"view_history","rt","trial_type","trial_index","plugin_version","time_elapsed","study_id","session_id","participant_id","catch_trial","prep_trial","sketcher_category","stimulus","response","response_category","sketch_id"
"[{""page_index"":0,""viewing_time"":14426},{""page_index"":1,""viewing_time"":7565},{""page_index"":2,""viewing_time"":12238},{""page_index"":3,""viewing_time"":18026}]","52255","instructions","0","null","52271","685c6ca90f751d3aae6b1794","685c6e4a07589d53a0f02702","55b9a9b0fdf99b6906d2aba4","","","","","","",""
"","3727","image-button-response","1","null","57014","685c6ca90f751d3aae6b1794","685c6e4a07589d53a0f02702","55b9a9b0fdf99b6906d2aba4","false","true","car","stimuli/prep_trials/1_car_prep.png","3","Car",""
"","4958","image-button-response","2","null","62488","685c6ca90f751d3aae6b1794","685c6e4a07589d53a0f02702","55b9a9b0fdf99b6906d2aba4","false","true","cat","stimuli/prep_trials/0_cat_prep.jpg","4","Cat",""
"","15991","image-button-response","3","null","78983","685c6ca90f751d3aae6b1794","685c6e4a07589d53a0f02702","55b9a9b0fdf99b6906d2aba4","false","false","House","https://kisumu-drawings.s3-us-west-1.amazonaws.com/70-005.png","8","House","70-005.png"
"","10469","image-button-response","4","null","89968","685c6ca90f751d3aae6b1794","685c6e4a07589d53a0f02702","55b9a9b0fdf99b6906d2aba4","false","false","Rabbit","https://kisumu-drawings.s3-us-west-1.amazonaws.com/110-008.png","9","Rabbit","110-008.png"
"","7969","image-button-response","5","null","98451","685c6ca90f751d3aae6b1794","685c6e4a07589d53a0f02702","55b9a9b0fdf99b6906d2aba4","false","false","Cat","https://kisumu-drawings.s3-us-west-1.amazonaws.com/110-011.png","4","Cat","110-011.png"
"","8051","image-button-response","6","null","107009","685c6ca90f751d3aae6b1794","685c6e4a07589d53a0f02702","55b9a9b0fdf99b6906d2aba4","false","false","Tree","https://kisumu-drawings.s3-us-west-1.amazonaws.com/30-015.png","10","Tree","30-015.png"
"","22077","image-button-response","7","null","129593","685c6ca90f751d3aae6b1794","685c6e4a07589d53a0f02702","55b9a9b0fdf99b6906d2aba4","false","false","House","https://kisumu-drawings.s3-us-west-1.amazonaws.com/29-011.png","7","Hat","29-011.png"
"","9905","image-button-response","8","null","140006","685c6ca90f751d3aae6b1794","685c6e4a07589d53a0f02702","55b9a9b0fdf99b6906d2aba4","false","false","Cat","https://kisumu-drawings.s3-us-west-1.amazonaws.com/29-008.png","0","Airplane","29-008.png"
"","12286","image-button-response","9","null","152802","685c6ca90f751d3aae6b1794","685c6e4a07589d53a0f02702","55b9a9b0fdf99b6906d2aba4","false","false","Chair","https://kisumu-drawings.s3-us-west-1.amazonaws.com/9-007.png","3","Car","9-007.png"
"","16478","image-button-response","10","null","169784","685c6ca90f751d3aae6b1794","685c6e4a07589d53a0f02702","55b9a9b0fdf99b6906d2aba4","false","false","Cat","https://kisumu-drawings.s3-us-west-1.amazonaws.com/96-012.png","2","Bird","96-012.png"
"","16182","image-button-response","11","null","186478","685c6ca90f751d3aae6b1794","685c6e4a07589d53a0f02702","55b9a9b0fdf99b6906d2aba4","false","false","Cat","https://kisumu-drawings.s3-us-west-1.amazonaws.com/71-016.png","4","Cat","71-016.png"
"","4770","image-button-response","12","null","191764","685c6ca90f751d3aae6b1794","685c6e4a07589d53a0f02702","55b9a9b0fdf99b6906d2aba4","false","false","Cup","https://kisumu-drawings.s3-us-west-1.amazonaws.com/96-010.png","6","Cup","96-010.png"
"","11572","image-button-response","13","null","203840","685c6ca90f751d3aae6b1794","685c6e4a07589d53a0f02702","55b9a9b0fdf99b6906d2aba4","false","false","Bird","https://kisumu-drawings.s3-us-west-1.amazonaws.com/30-007.png","9","Rabbit","30-007.png"
"","6108","image-button-response","14","null","210466","685c6ca90f751d3aae6b1794","685c6e4a07589d53a0f02702","55b9a9b0fdf99b6906d2aba4","false","false","Bird","https://kisumu-drawings.s3-us-west-1.amazonaws.com/10-014.png","4","Cat","10-014.png"
"","13667","image-button-response","15","null","224648","685c6ca90f751d3aae6b1794","685c6e4a07589d53a0f02702","55b9a9b0fdf99b6906d2aba4","false","false","Airplane","https://kisumu-drawings.s3-us-west-1.amazonaws.com/31-005.png","10","Tree","31-005.png"
"","5706","image-button-response","16","null","230871","685c6ca90f751d3aae6b1794","685c6e4a07589d53a0f02702","55b9a9b0fdf99b6906d2aba4","false","false","Tree","https://kisumu-drawings.s3-us-west-1.amazonaws.com/96-005.png","10","Tree","96-005.png"
"","3622","image-button-response","17","null","235003","685c6ca90f751d3aae6b1794","685c6e4a07589d53a0f02702","55b9a9b0fdf99b6906d2aba4","false","false","Bird","https://kisumu-drawings.s3-us-west-1.amazonaws.com/54-010.png","0","Airplane","54-010.png"
"","2040","image-button-response","18","null","237555","685c6ca90f751d3aae6b1794","685c6e4a07589d53a0f02702","55b9a9b0fdf99b6906d2aba4","true","false","airplane","stimuli/catch_trials/0_airplane_catch.jpg","0","Airplane",""
"","12819","image-button-response","19","null","250882","685c6ca90f751d3aae6b1794","685c6e4a07589d53a0f02702","55b9a9b0fdf99b6906d2aba4","false","false","Tree","https://kisumu-drawings.s3-us-west-1.amazonaws.com/9-016.png","8","House","9-016.png"
"","16303","image-button-response","20","null","267690","685c6ca90f751d3aae6b1794","685c6e4a07589d53a0f02702","55b9a9b0fdf99b6906d2aba4","false","false","Cat","https://kisumu-drawings.s3-us-west-1.amazonaws.com/54-006.png","4","Cat","54-006.png"
"","5883","image-button-response","21","null","274078","685c6ca90f751d3aae6b1794","685c6e4a07589d53a0f02702","55b9a9b0fdf99b6906d2aba4","false","false","Airplane","https://kisumu-drawings.s3-us-west-1.amazonaws.com/55-014.png","2","Bird","55-014.png"
"","5674","image-button-response","22","null","280270","685c6ca90f751d3aae6b1794","685c6e4a07589d53a0f02702","55b9a9b0fdf99b6906d2aba4","false","false","Chair","https://kisumu-drawings.s3-us-west-1.amazonaws.com/29-009.png","2","Bird","29-009.png"
"","3113","image-button-response","23","null","283888","685c6ca90f751d3aae6b1794","685c6e4a07589d53a0f02702","55b9a9b0fdf99b6906d2aba4","false","false","Bird","https://kisumu-drawings.s3-us-west-1.amazonaws.com/97-007.png","0","Airplane","97-007.png"
"","4473","image-button-response","24","null","288865","685c6ca90f751d3aae6b1794","685c6e4a07589d53a0f02702","55b9a9b0fdf99b6906d2aba4","false","false","Bicycle","https://kisumu-drawings.s3-us-west-1.amazonaws.com/98-006.png","1","Bicycle","98-006.png"
"","2798","image-button-response","25","null","292171","685c6ca90f751d3aae6b1794","685c6e4a07589d53a0f02702","55b9a9b0fdf99b6906d2aba4","false","false","House","https://kisumu-drawings.s3-us-west-1.amazonaws.com/97-011.png","8","House","97-011.png"
"","4658","image-button-response","26","null","297333","685c6ca90f751d3aae6b1794","685c6e4a07589d53a0f02702","55b9a9b0fdf99b6906d2aba4","false","false","Rabbit","https://kisumu-drawings.s3-us-west-1.amazonaws.com/29-013.png","2","Bird","29-013.png"
"","16206","image-button-response","27","null","314054","685c6ca90f751d3aae6b1794","685c6e4a07589d53a0f02702","55b9a9b0fdf99b6906d2aba4","false","false","Rabbit","https://kisumu-drawings.s3-us-west-1.amazonaws.com/9-014.png","8","House","9-014.png"
"","5729","image-button-response","28","null","320302","685c6ca90f751d3aae6b1794","685c6e4a07589d53a0f02702","55b9a9b0fdf99b6906d2aba4","false","false","Rabbit","https://kisumu-drawings.s3-us-west-1.amazonaws.com/96-006.png","4","Cat","96-006.png"
"","6040","image-button-response","29","null","326847","685c6ca90f751d3aae6b1794","685c6e4a07589d53a0f02702","55b9a9b0fdf99b6906d2aba4","false","false","Watch","https://kisumu-drawings.s3-us-west-1.amazonaws.com/70-016.png","11","Watch","70-016.png"
"","12085","image-button-response","30","null","339448","685c6ca90f751d3aae6b1794","685c6e4a07589d53a0f02702","55b9a9b0fdf99b6906d2aba4","false","false","Car","https://kisumu-drawings.s3-us-west-1.amazonaws.com/9-010.png","7","Hat","9-010.png"
"","18135","image-button-response","31","null","358098","685c6ca90f751d3aae6b1794","685c6e4a07589d53a0f02702","55b9a9b0fdf99b6906d2aba4","false","false","Airplane","https://kisumu-drawings.s3-us-west-1.amazonaws.com/11-010.png","10","Tree","11-010.png"
"","11743","image-button-response","32","null","370353","685c6ca90f751d3aae6b1794","685c6e4a07589d53a0f02702","55b9a9b0fdf99b6906d2aba4","false","false","Bicycle","https://kisumu-drawings.s3-us-west-1.amazonaws.com/11-009.png","10","Tree","11-009.png"
"","3146","image-button-response","33","null","374005","685c6ca90f751d3aae6b1794","685c6e4a07589d53a0f02702","55b9a9b0fdf99b6906d2aba4","false","false","Car","https://kisumu-drawings.s3-us-west-1.amazonaws.com/54-005.png","3","Car","54-005.png"
"","6909","image-button-response","34","null","381419","685c6ca90f751d3aae6b1794","685c6e4a07589d53a0f02702","55b9a9b0fdf99b6906d2aba4","false","false","Cat","https://kisumu-drawings.s3-us-west-1.amazonaws.com/10-008.png","4","Cat","10-008.png"
"","17404","image-button-response","35","null","399342","685c6ca90f751d3aae6b1794","685c6e4a07589d53a0f02702","55b9a9b0fdf99b6906d2aba4","false","false","Airplane","https://kisumu-drawings.s3-us-west-1.amazonaws.com/72-005.png","4","Cat","72-005.png"
"","5209","image-button-response","36","null","405057","685c6ca90f751d3aae6b1794","685c6e4a07589d53a0f02702","55b9a9b0fdf99b6906d2aba4","false","false","Chair","https://kisumu-drawings.s3-us-west-1.amazonaws.com/71-011.png","5","Chair","71-011.png"
"","7299","image-button-response","37","null","412863","685c6ca90f751d3aae6b1794","685c6e4a07589d53a0f02702","55b9a9b0fdf99b6906d2aba4","false","false","Tree","https://kisumu-drawings.s3-us-west-1.amazonaws.com/53-012.png","0","Airplane","53-012.png"
"","5156","image-button-response","38","null","418533","685c6ca90f751d3aae6b1794","685c6e4a07589d53a0f02702","55b9a9b0fdf99b6906d2aba4","false","false","Chair","https://kisumu-drawings.s3-us-west-1.amazonaws.com/96-011.png","5","Chair","96-011.png"
"","16758","image-button-response","39","null","435797","685c6ca90f751d3aae6b1794","685c6e4a07589d53a0f02702","55b9a9b0fdf99b6906d2aba4","false","false","Airplane","https://kisumu-drawings.s3-us-west-1.amazonaws.com/98-016.png","8","House","98-016.png"
"","4423","image-button-response","40","null","440732","685c6ca90f751d3aae6b1794","685c6e4a07589d53a0f02702","55b9a9b0fdf99b6906d2aba4","false","false","Car","https://kisumu-drawings.s3-us-west-1.amazonaws.com/97-014.png","3","Car","97-014.png"
"","17688","image-button-response","41","null","458935","685c6ca90f751d3aae6b1794","685c6e4a07589d53a0f02702","55b9a9b0fdf99b6906d2aba4","false","false","Watch","https://kisumu-drawings.s3-us-west-1.amazonaws.com/53-016.png","10","Tree","53-016.png"
"","4954","image-button-response","42","null","464393","685c6ca90f751d3aae6b1794","685c6e4a07589d53a0f02702","55b9a9b0fdf99b6906d2aba4","false","false","Rabbit","https://kisumu-drawings.s3-us-west-1.amazonaws.com/53-011.png","2","Bird","53-011.png"
"","2850","image-button-response","43","null","467747","685c6ca90f751d3aae6b1794","685c6e4a07589d53a0f02702","55b9a9b0fdf99b6906d2aba4","false","false","Hat","https://kisumu-drawings.s3-us-west-1.amazonaws.com/111-013.png","7","Hat","111-013.png"
"","14296","image-button-response","44","null","482560","685c6ca90f751d3aae6b1794","685c6e4a07589d53a0f02702","55b9a9b0fdf99b6906d2aba4","false","false","Hat","https://kisumu-drawings.s3-us-west-1.amazonaws.com/96-008.png","8","House","96-008.png"
"","3279","image-button-response","45","null","486343","685c6ca90f751d3aae6b1794","685c6e4a07589d53a0f02702","55b9a9b0fdf99b6906d2aba4","false","false","Bird","https://kisumu-drawings.s3-us-west-1.amazonaws.com/111-007.png","2","Bird","111-007.png"
"","2816","image-button-response","46","null","489679","685c6ca90f751d3aae6b1794","685c6e4a07589d53a0f02702","55b9a9b0fdf99b6906d2aba4","false","false","House","https://kisumu-drawings.s3-us-west-1.amazonaws.com/111-014.png","8","House","111-014.png"
"","8260","image-button-response","47","null","498450","685c6ca90f751d3aae6b1794","685c6e4a07589d53a0f02702","55b9a9b0fdf99b6906d2aba4","false","false","House","https://kisumu-drawings.s3-us-west-1.amazonaws.com/9-015.png","7","Hat","9-015.png"
"","13201","image-button-response","48","null","512165","685c6ca90f751d3aae6b1794","685c6e4a07589d53a0f02702","55b9a9b0fdf99b6906d2aba4","false","false","Watch","https://kisumu-drawings.s3-us-west-1.amazonaws.com/29-012.png","2","Bird","29-012.png"
"","3209","image-button-response","49","null","515883","685c6ca90f751d3aae6b1794","685c6e4a07589d53a0f02702","55b9a9b0fdf99b6906d2aba4","false","false","Watch","https://kisumu-drawings.s3-us-west-1.amazonaws.com/96-016.png","11","Watch","96-016.png"
"","13786","image-button-response","50","null","530183","685c6ca90f751d3aae6b1794","685c6e4a07589d53a0f02702","55b9a9b0fdf99b6906d2aba4","false","false","Car","https://kisumu-drawings.s3-us-west-1.amazonaws.com/71-009.png","10","Tree","71-009.png"
"","25294","image-button-response","51","null","555991","685c6ca90f751d3aae6b1794","685c6e4a07589d53a0f02702","55b9a9b0fdf99b6906d2aba4","false","false","Hat","https://kisumu-drawings.s3-us-west-1.amazonaws.com/70-014.png","6","Cup","70-014.png"
"","5196","image-button-response","52","null","561693","685c6ca90f751d3aae6b1794","685c6e4a07589d53a0f02702","55b9a9b0fdf99b6906d2aba4","false","false","Bicycle","https://kisumu-drawings.s3-us-west-1.amazonaws.com/31-006.png","1","Bicycle","31-006.png"
"","9484","image-button-response","53","null","571697","685c6ca90f751d3aae6b1794","685c6e4a07589d53a0f02702","55b9a9b0fdf99b6906d2aba4","false","false","Hat","https://kisumu-drawings.s3-us-west-1.amazonaws.com/53-014.png","2","Bird","53-014.png"
"","10213","image-button-response","54","null","582414","685c6ca90f751d3aae6b1794","685c6e4a07589d53a0f02702","55b9a9b0fdf99b6906d2aba4","false","false","Hat","https://kisumu-drawings.s3-us-west-1.amazonaws.com/9-006.png","2","Bird","9-006.png"
"","8904","image-button-response","55","null","591835","685c6ca90f751d3aae6b1794","685c6e4a07589d53a0f02702","55b9a9b0fdf99b6906d2aba4","false","false","Cup","https://kisumu-drawings.s3-us-west-1.amazonaws.com/29-010.png","1","Bicycle","29-010.png"
"","25815","image-button-response","56","null","618159","685c6ca90f751d3aae6b1794","685c6e4a07589d53a0f02702","55b9a9b0fdf99b6906d2aba4","false","false","Hat","https://kisumu-drawings.s3-us-west-1.amazonaws.com/29-015.png","5","Chair","29-015.png"
"","4207","image-button-response","57","null","622881","685c6ca90f751d3aae6b1794","685c6e4a07589d53a0f02702","55b9a9b0fdf99b6906d2aba4","false","false","Car","https://kisumu-drawings.s3-us-west-1.amazonaws.com/30-008.png","5","Chair","30-008.png"
"","3462","image-button-response","58","null","626850","685c6ca90f751d3aae6b1794","685c6e4a07589d53a0f02702","55b9a9b0fdf99b6906d2aba4","false","false","Cup","https://kisumu-drawings.s3-us-west-1.amazonaws.com/110-013.png","6","Cup","110-013.png"
"","3506","image-button-response","59","null","630860","685c6ca90f751d3aae6b1794","685c6e4a07589d53a0f02702","55b9a9b0fdf99b6906d2aba4","false","false","Airplane","https://kisumu-drawings.s3-us-west-1.amazonaws.com/112-015.png","0","Airplane","112-015.png"
"","3031","image-button-response","60","null","634407","685c6ca90f751d3aae6b1794","685c6e4a07589d53a0f02702","55b9a9b0fdf99b6906d2aba4","false","false","Car","https://kisumu-drawings.s3-us-west-1.amazonaws.com/110-010.png","3","Car","110-010.png"
"","6771","image-button-response","61","null","641683","685c6ca90f751d3aae6b1794","685c6e4a07589d53a0f02702","55b9a9b0fdf99b6906d2aba4","false","false","Rabbit","https://kisumu-drawings.s3-us-west-1.amazonaws.com/70-006.png","4","Cat","70-006.png"
"","11564","image-button-response","62","null","653760","685c6ca90f751d3aae6b1794","685c6e4a07589d53a0f02702","55b9a9b0fdf99b6906d2aba4","false","false","Chair","https://kisumu-drawings.s3-us-west-1.amazonaws.com/110-012.png","5","Chair","110-012.png"
"","14742","image-button-response","63","null","669007","685c6ca90f751d3aae6b1794","685c6e4a07589d53a0f02702","55b9a9b0fdf99b6906d2aba4","false","false","Cup","https://kisumu-drawings.s3-us-west-1.amazonaws.com/9-013.png","8","House","9-013.png"
"","2542","image-button-response","64","null","672058","685c6ca90f751d3aae6b1794","685c6e4a07589d53a0f02702","55b9a9b0fdf99b6906d2aba4","false","false","House","https://kisumu-drawings.s3-us-west-1.amazonaws.com/53-015.png","8","House","53-015.png"
"","18846","image-button-response","65","null","691408","685c6ca90f751d3aae6b1794","685c6e4a07589d53a0f02702","55b9a9b0fdf99b6906d2aba4","false","false","Bicycle","https://kisumu-drawings.s3-us-west-1.amazonaws.com/71-013.png","8","House","71-013.png"
"","10406","image-button-response","66","null","702331","685c6ca90f751d3aae6b1794","685c6e4a07589d53a0f02702","55b9a9b0fdf99b6906d2aba4","false","false","Watch","https://kisumu-drawings.s3-us-west-1.amazonaws.com/9-005.png","4","Cat","9-005.png"
"","13532","image-button-response","67","null","716367","685c6ca90f751d3aae6b1794","685c6e4a07589d53a0f02702","55b9a9b0fdf99b6906d2aba4","false","false","Chair","https://kisumu-drawings.s3-us-west-1.amazonaws.com/53-008.png","5","Chair","53-008.png"
"","3081","image-button-response","68","null","719959","685c6ca90f751d3aae6b1794","685c6e4a07589d53a0f02702","55b9a9b0fdf99b6906d2aba4","false","false","Watch","https://kisumu-drawings.s3-us-west-1.amazonaws.com/110-005.png","11","Watch","110-005.png"
"","3954","image-button-response","69","null","724419","685c6ca90f751d3aae6b1794","685c6e4a07589d53a0f02702","55b9a9b0fdf99b6906d2aba4","false","false","Cup","https://kisumu-drawings.s3-us-west-1.amazonaws.com/70-007.png","6","Cup","70-007.png"
"","4771","image-button-response","70","null","729703","685c6ca90f751d3aae6b1794","685c6e4a07589d53a0f02702","55b9a9b0fdf99b6906d2aba4","false","false","Bicycle","https://kisumu-drawings.s3-us-west-1.amazonaws.com/55-006.png","1","Bicycle","55-006.png"
"","7114","image-button-response","71","null","737327","685c6ca90f751d3aae6b1794","685c6e4a07589d53a0f02702","55b9a9b0fdf99b6906d2aba4","false","false","Cup","https://kisumu-drawings.s3-us-west-1.amazonaws.com/53-013.png","2","Bird","53-013.png"
"","2895","image-button-response","72","null","740727","685c6ca90f751d3aae6b1794","685c6e4a07589d53a0f02702","55b9a9b0fdf99b6906d2aba4","false","false","Tree","https://kisumu-drawings.s3-us-west-1.amazonaws.com/70-015.png","10","Tree","70-015.png"
"","6052","image-button-response","73","null","747291","685c6ca90f751d3aae6b1794","685c6e4a07589d53a0f02702","55b9a9b0fdf99b6906d2aba4","false","false","Bird","https://kisumu-drawings.s3-us-west-1.amazonaws.com/71-010.png","2","Bird","71-010.png"
"","7872","image-button-response","74","null","755668","685c6ca90f751d3aae6b1794","685c6e4a07589d53a0f02702","55b9a9b0fdf99b6906d2aba4","false","false","Bicycle","https://kisumu-drawings.s3-us-west-1.amazonaws.com/111-010.png","1","Bicycle","111-010.png"
"","4210","image-button-response","75","null","760384","685c6ca90f751d3aae6b1794","685c6e4a07589d53a0f02702","55b9a9b0fdf99b6906d2aba4","false","false","Tree","https://kisumu-drawings.s3-us-west-1.amazonaws.com/110-009.png","10","Tree","110-009.png"
