"view_history","rt","trial_type","trial_index","plugin_version","time_elapsed","study_id","session_id","participant_id","catch_trial","prep_trial","sketcher_category","stimulus","response","response_category","sketch_id"
"[{""page_index"":0,""viewing_time"":5797},{""page_index"":1,""viewing_time"":2390},{""page_index"":2,""viewing_time"":3442},{""page_index"":3,""viewing_time"":9145}]","20775","instructions","0","null","20779","685c6ca90f751d3aae6b1794","685c6e6cd54d2fe70c14ffcc","5685850c333cbd000d4e042f","","","","","","",""
"","2806","image-button-response","1","null","24602","685c6ca90f751d3aae6b1794","685c6e6cd54d2fe70c14ffcc","5685850c333cbd000d4e042f","false","true","car","stimuli/prep_trials/1_car_prep.png","3","Car",""
"","2078","image-button-response","2","null","27189","685c6ca90f751d3aae6b1794","685c6e6cd54d2fe70c14ffcc","5685850c333cbd000d4e042f","false","true","cat","stimuli/prep_trials/0_cat_prep.jpg","4","Cat",""
"","12671","image-button-response","3","null","40364","685c6ca90f751d3aae6b1794","685c6e6cd54d2fe70c14ffcc","5685850c333cbd000d4e042f","false","false","Rabbit","https://kisumu-drawings.s3-us-west-1.amazonaws.com/97-012.png","9","Rabbit","97-012.png"
"","6520","image-button-response","4","null","47386","685c6ca90f751d3aae6b1794","685c6e6cd54d2fe70c14ffcc","5685850c333cbd000d4e042f","false","false","Watch","https://kisumu-drawings.s3-us-west-1.amazonaws.com/71-015.png","11","Watch","71-015.png"
"","3116","image-button-response","5","null","51018","685c6ca90f751d3aae6b1794","685c6e6cd54d2fe70c14ffcc","5685850c333cbd000d4e042f","false","false","Bicycle","https://kisumu-drawings.s3-us-west-1.amazonaws.com/74-014.png","1","Bicycle","74-014.png"
"","11467","image-button-response","6","null","63000","685c6ca90f751d3aae6b1794","685c6e6cd54d2fe70c14ffcc","5685850c333cbd000d4e042f","false","false","Hat","https://kisumu-drawings.s3-us-west-1.amazonaws.com/112-014.png","7","Hat","112-014.png"
"","14487","image-button-response","7","null","77989","685c6ca90f751d3aae6b1794","685c6e6cd54d2fe70c14ffcc","5685850c333cbd000d4e042f","false","false","Hat","https://kisumu-drawings.s3-us-west-1.amazonaws.com/55-005.png","10","Tree","55-005.png"
"","12416","image-button-response","8","null","90918","685c6ca90f751d3aae6b1794","685c6e6cd54d2fe70c14ffcc","5685850c333cbd000d4e042f","false","false","Rabbit","https://kisumu-drawings.s3-us-west-1.amazonaws.com/10-010.png","1","Bicycle","10-010.png"
"","10916","image-button-response","9","null","102349","685c6ca90f751d3aae6b1794","685c6e6cd54d2fe70c14ffcc","5685850c333cbd000d4e042f","false","false","Bicycle","https://kisumu-drawings.s3-us-west-1.amazonaws.com/13-010.png","5","Chair","13-010.png"
"","2547","image-button-response","10","null","105397","685c6ca90f751d3aae6b1794","685c6e6cd54d2fe70c14ffcc","5685850c333cbd000d4e042f","false","false","Watch","https://kisumu-drawings.s3-us-west-1.amazonaws.com/111-015.png","11","Watch","111-015.png"
"","1768","image-button-response","11","null","107667","685c6ca90f751d3aae6b1794","685c6e6cd54d2fe70c14ffcc","5685850c333cbd000d4e042f","false","false","Cup","https://kisumu-drawings.s3-us-west-1.amazonaws.com/97-008.png","6","Cup","97-008.png"
"","1739","image-button-response","12","null","109908","685c6ca90f751d3aae6b1794","685c6e6cd54d2fe70c14ffcc","5685850c333cbd000d4e042f","false","false","Tree","https://kisumu-drawings.s3-us-west-1.amazonaws.com/97-016.png","10","Tree","97-016.png"
"","10173","image-button-response","13","null","120583","685c6ca90f751d3aae6b1794","685c6e6cd54d2fe70c14ffcc","5685850c333cbd000d4e042f","false","false","Watch","https://kisumu-drawings.s3-us-west-1.amazonaws.com/97-010.png","11","Watch","97-010.png"
"","10288","image-button-response","14","null","131379","685c6ca90f751d3aae6b1794","685c6e6cd54d2fe70c14ffcc","5685850c333cbd000d4e042f","false","false","Bird","https://kisumu-drawings.s3-us-west-1.amazonaws.com/13-009.png","11","Watch","13-009.png"
"","24147","image-button-response","15","null","156031","685c6ca90f751d3aae6b1794","685c6e6cd54d2fe70c14ffcc","5685850c333cbd000d4e042f","false","false","Cup","https://kisumu-drawings.s3-us-west-1.amazonaws.com/11-014.png","4","Cat","11-014.png"
"","9739","image-button-response","16","null","166271","685c6ca90f751d3aae6b1794","685c6e6cd54d2fe70c14ffcc","5685850c333cbd000d4e042f","false","false","Cat","https://kisumu-drawings.s3-us-west-1.amazonaws.com/55-012.png","2","Bird","55-012.png"
"","4062","image-button-response","17","null","170849","685c6ca90f751d3aae6b1794","685c6e6cd54d2fe70c14ffcc","5685850c333cbd000d4e042f","false","false","Cat","https://kisumu-drawings.s3-us-west-1.amazonaws.com/12-011.png","4","Cat","12-011.png"
"","1682","image-button-response","18","null","173046","685c6ca90f751d3aae6b1794","685c6e6cd54d2fe70c14ffcc","5685850c333cbd000d4e042f","false","false","Watch","https://kisumu-drawings.s3-us-west-1.amazonaws.com/30-016.png","11","Watch","30-016.png"
"","1490","image-button-response","19","null","175037","685c6ca90f751d3aae6b1794","685c6e6cd54d2fe70c14ffcc","5685850c333cbd000d4e042f","false","false","Tree","https://kisumu-drawings.s3-us-west-1.amazonaws.com/111-008.png","10","Tree","111-008.png"
"","1394","image-button-response","20","null","176933","685c6ca90f751d3aae6b1794","685c6e6cd54d2fe70c14ffcc","5685850c333cbd000d4e042f","false","false","Tree","https://kisumu-drawings.s3-us-west-1.amazonaws.com/31-015.png","10","Tree","31-015.png"
"","15697","image-button-response","21","null","193132","685c6ca90f751d3aae6b1794","685c6e6cd54d2fe70c14ffcc","5685850c333cbd000d4e042f","false","false","Rabbit","https://kisumu-drawings.s3-us-west-1.amazonaws.com/30-014.png","7","Hat","30-014.png"
"","1809","image-button-response","22","null","195446","685c6ca90f751d3aae6b1794","685c6e6cd54d2fe70c14ffcc","5685850c333cbd000d4e042f","false","false","Bird","https://kisumu-drawings.s3-us-west-1.amazonaws.com/41-008.png","0","Airplane","41-008.png"
"","2014","image-button-response","23","null","197976","685c6ca90f751d3aae6b1794","685c6e6cd54d2fe70c14ffcc","5685850c333cbd000d4e042f","false","false","House","https://kisumu-drawings.s3-us-west-1.amazonaws.com/71-008.png","8","House","71-008.png"
"","9097","image-button-response","24","null","207580","685c6ca90f751d3aae6b1794","685c6e6cd54d2fe70c14ffcc","5685850c333cbd000d4e042f","false","false","Chair","https://kisumu-drawings.s3-us-west-1.amazonaws.com/55-013.png","8","House","55-013.png"
"","3455","image-button-response","25","null","211538","685c6ca90f751d3aae6b1794","685c6e6cd54d2fe70c14ffcc","5685850c333cbd000d4e042f","false","false","Tree","https://kisumu-drawings.s3-us-west-1.amazonaws.com/11-007.png","9","Rabbit","11-007.png"
"","14069","image-button-response","26","null","226116","685c6ca90f751d3aae6b1794","685c6e6cd54d2fe70c14ffcc","5685850c333cbd000d4e042f","false","false","Airplane","https://kisumu-drawings.s3-us-west-1.amazonaws.com/33-005.png","4","Cat","33-005.png"
"","2111","image-button-response","27","null","228731","685c6ca90f751d3aae6b1794","685c6e6cd54d2fe70c14ffcc","5685850c333cbd000d4e042f","false","false","Airplane","https://kisumu-drawings.s3-us-west-1.amazonaws.com/81-014.png","0","Airplane","81-014.png"
"","1976","image-button-response","28","null","231209","685c6ca90f751d3aae6b1794","685c6e6cd54d2fe70c14ffcc","5685850c333cbd000d4e042f","false","false","Chair","https://kisumu-drawings.s3-us-west-1.amazonaws.com/98-008.png","5","Chair","98-008.png"
"","1127","image-button-response","29","null","232846","685c6ca90f751d3aae6b1794","685c6e6cd54d2fe70c14ffcc","5685850c333cbd000d4e042f","true","false","airplane","stimuli/catch_trials/0_airplane_catch.jpg","0","Airplane",""
"","10557","image-button-response","30","null","243912","685c6ca90f751d3aae6b1794","685c6e6cd54d2fe70c14ffcc","5685850c333cbd000d4e042f","false","false","Cat","https://kisumu-drawings.s3-us-west-1.amazonaws.com/31-009.png","5","Chair","31-009.png"
"","2658","image-button-response","31","null","247075","685c6ca90f751d3aae6b1794","685c6e6cd54d2fe70c14ffcc","5685850c333cbd000d4e042f","false","false","House","https://kisumu-drawings.s3-us-west-1.amazonaws.com/31-013.png","2","Bird","31-013.png"
"","1397","image-button-response","32","null","248988","685c6ca90f751d3aae6b1794","685c6e6cd54d2fe70c14ffcc","5685850c333cbd000d4e042f","false","false","Chair","https://kisumu-drawings.s3-us-west-1.amazonaws.com/72-015.png","5","Chair","72-015.png"
"","1389","image-button-response","33","null","250883","685c6ca90f751d3aae6b1794","685c6e6cd54d2fe70c14ffcc","5685850c333cbd000d4e042f","false","false","House","https://kisumu-drawings.s3-us-west-1.amazonaws.com/98-005.png","8","House","98-005.png"
"","1346","image-button-response","34","null","252730","685c6ca90f751d3aae6b1794","685c6e6cd54d2fe70c14ffcc","5685850c333cbd000d4e042f","false","false","Chair","https://kisumu-drawings.s3-us-west-1.amazonaws.com/31-010.png","5","Chair","31-010.png"
"","8706","image-button-response","35","null","261938","685c6ca90f751d3aae6b1794","685c6e6cd54d2fe70c14ffcc","5685850c333cbd000d4e042f","false","false","Hat","https://kisumu-drawings.s3-us-west-1.amazonaws.com/30-012.png","0","Airplane","30-012.png"
"","2159","image-button-response","36","null","264606","685c6ca90f751d3aae6b1794","685c6e6cd54d2fe70c14ffcc","5685850c333cbd000d4e042f","false","false","Cup","https://kisumu-drawings.s3-us-west-1.amazonaws.com/72-010.png","6","Cup","72-010.png"
"","1515","image-button-response","37","null","266632","685c6ca90f751d3aae6b1794","685c6e6cd54d2fe70c14ffcc","5685850c333cbd000d4e042f","false","false","House","https://kisumu-drawings.s3-us-west-1.amazonaws.com/112-007.png","8","House","112-007.png"
"","6052","image-button-response","38","null","273188","685c6ca90f751d3aae6b1794","685c6e6cd54d2fe70c14ffcc","5685850c333cbd000d4e042f","false","false","House","https://kisumu-drawings.s3-us-west-1.amazonaws.com/10-009.png","3","Car","10-009.png"
"","10591","image-button-response","39","null","284286","685c6ca90f751d3aae6b1794","685c6e6cd54d2fe70c14ffcc","5685850c333cbd000d4e042f","false","false","Tree","https://kisumu-drawings.s3-us-west-1.amazonaws.com/71-014.png","10","Tree","71-014.png"
"","1949","image-button-response","40","null","286751","685c6ca90f751d3aae6b1794","685c6e6cd54d2fe70c14ffcc","5685850c333cbd000d4e042f","false","false","House","https://kisumu-drawings.s3-us-west-1.amazonaws.com/54-015.png","8","House","54-015.png"
"","2964","image-button-response","41","null","290224","685c6ca90f751d3aae6b1794","685c6e6cd54d2fe70c14ffcc","5685850c333cbd000d4e042f","false","false","Hat","https://kisumu-drawings.s3-us-west-1.amazonaws.com/98-012.png","11","Watch","98-012.png"
"","3225","image-button-response","42","null","293954","685c6ca90f751d3aae6b1794","685c6e6cd54d2fe70c14ffcc","5685850c333cbd000d4e042f","false","false","Chair","https://kisumu-drawings.s3-us-west-1.amazonaws.com/11-013.png","11","Watch","11-013.png"
"","2630","image-button-response","43","null","297101","685c6ca90f751d3aae6b1794","685c6e6cd54d2fe70c14ffcc","5685850c333cbd000d4e042f","false","false","Bicycle","https://kisumu-drawings.s3-us-west-1.amazonaws.com/33-006.png","9","Rabbit","33-006.png"
"","1936","image-button-response","44","null","299539","685c6ca90f751d3aae6b1794","685c6e6cd54d2fe70c14ffcc","5685850c333cbd000d4e042f","false","false","Bicycle","https://kisumu-drawings.s3-us-west-1.amazonaws.com/42-009.png","1","Bicycle","42-009.png"
"","15022","image-button-response","45","null","315068","685c6ca90f751d3aae6b1794","685c6e6cd54d2fe70c14ffcc","5685850c333cbd000d4e042f","false","false","Rabbit","https://kisumu-drawings.s3-us-west-1.amazonaws.com/71-005.png","4","Cat","71-005.png"
"","7643","image-button-response","46","null","323212","685c6ca90f751d3aae6b1794","685c6e6cd54d2fe70c14ffcc","5685850c333cbd000d4e042f","false","false","Cup","https://kisumu-drawings.s3-us-west-1.amazonaws.com/55-015.png","11","Watch","55-015.png"
"","2488","image-button-response","47","null","326205","685c6ca90f751d3aae6b1794","685c6e6cd54d2fe70c14ffcc","5685850c333cbd000d4e042f","false","false","Bird","https://kisumu-drawings.s3-us-west-1.amazonaws.com/32-012.png","4","Cat","32-012.png"
"","2069","image-button-response","48","null","328778","685c6ca90f751d3aae6b1794","685c6e6cd54d2fe70c14ffcc","5685850c333cbd000d4e042f","false","false","Airplane","https://kisumu-drawings.s3-us-west-1.amazonaws.com/114-011.png","3","Car","114-011.png"
"","3050","image-button-response","49","null","332333","685c6ca90f751d3aae6b1794","685c6e6cd54d2fe70c14ffcc","5685850c333cbd000d4e042f","false","false","Chair","https://kisumu-drawings.s3-us-west-1.amazonaws.com/112-008.png","5","Chair","112-008.png"
"","1738","image-button-response","50","null","334573","685c6ca90f751d3aae6b1794","685c6e6cd54d2fe70c14ffcc","5685850c333cbd000d4e042f","false","false","Car","https://kisumu-drawings.s3-us-west-1.amazonaws.com/41-010.png","3","Car","41-010.png"
"","5293","image-button-response","51","null","340373","685c6ca90f751d3aae6b1794","685c6e6cd54d2fe70c14ffcc","5685850c333cbd000d4e042f","false","false","Rabbit","https://kisumu-drawings.s3-us-west-1.amazonaws.com/111-011.png","4","Cat","111-011.png"
"","10136","image-button-response","52","null","351015","685c6ca90f751d3aae6b1794","685c6e6cd54d2fe70c14ffcc","5685850c333cbd000d4e042f","false","false","Bicycle","https://kisumu-drawings.s3-us-west-1.amazonaws.com/100-010.png","0","Airplane","100-010.png"
"","2123","image-button-response","53","null","353640","685c6ca90f751d3aae6b1794","685c6e6cd54d2fe70c14ffcc","5685850c333cbd000d4e042f","false","false","Tree","https://kisumu-drawings.s3-us-west-1.amazonaws.com/54-011.png","10","Tree","54-011.png"
"","9468","image-button-response","54","null","363611","685c6ca90f751d3aae6b1794","685c6e6cd54d2fe70c14ffcc","5685850c333cbd000d4e042f","false","false","Bird","https://kisumu-drawings.s3-us-west-1.amazonaws.com/73-008.png","2","Bird","73-008.png"
"","2307","image-button-response","55","null","366427","685c6ca90f751d3aae6b1794","685c6e6cd54d2fe70c14ffcc","5685850c333cbd000d4e042f","false","false","Watch","https://kisumu-drawings.s3-us-west-1.amazonaws.com/54-012.png","11","Watch","54-012.png"
"","1824","image-button-response","56","null","368752","685c6ca90f751d3aae6b1794","685c6e6cd54d2fe70c14ffcc","5685850c333cbd000d4e042f","false","false","Hat","https://kisumu-drawings.s3-us-west-1.amazonaws.com/72-011.png","5","Chair","72-011.png"
"","2329","image-button-response","57","null","371584","685c6ca90f751d3aae6b1794","685c6e6cd54d2fe70c14ffcc","5685850c333cbd000d4e042f","false","false","Car","https://kisumu-drawings.s3-us-west-1.amazonaws.com/73-012.png","3","Car","73-012.png"
"","5307","image-button-response","58","null","377393","685c6ca90f751d3aae6b1794","685c6e6cd54d2fe70c14ffcc","5685850c333cbd000d4e042f","false","false","Cat","https://kisumu-drawings.s3-us-west-1.amazonaws.com/112-016.png","2","Bird","112-016.png"
"","2991","image-button-response","59","null","380899","685c6ca90f751d3aae6b1794","685c6e6cd54d2fe70c14ffcc","5685850c333cbd000d4e042f","false","false","Cat","https://kisumu-drawings.s3-us-west-1.amazonaws.com/98-009.png","4","Cat","98-009.png"
"","1292","image-button-response","60","null","382696","685c6ca90f751d3aae6b1794","685c6e6cd54d2fe70c14ffcc","5685850c333cbd000d4e042f","false","false","Bird","https://kisumu-drawings.s3-us-west-1.amazonaws.com/114-015.png","2","Bird","114-015.png"
"","1261","image-button-response","61","null","384459","685c6ca90f751d3aae6b1794","685c6e6cd54d2fe70c14ffcc","5685850c333cbd000d4e042f","false","false","Car","https://kisumu-drawings.s3-us-west-1.amazonaws.com/12-010.png","3","Car","12-010.png"
"","5751","image-button-response","62","null","390714","685c6ca90f751d3aae6b1794","685c6e6cd54d2fe70c14ffcc","5685850c333cbd000d4e042f","false","false","Hat","https://kisumu-drawings.s3-us-west-1.amazonaws.com/10-015.png","11","Watch","10-015.png"
"","4569","image-button-response","63","null","395787","685c6ca90f751d3aae6b1794","685c6e6cd54d2fe70c14ffcc","5685850c333cbd000d4e042f","false","false","Bird","https://kisumu-drawings.s3-us-west-1.amazonaws.com/99-014.png","2","Bird","99-014.png"
"","4864","image-button-response","64","null","401159","685c6ca90f751d3aae6b1794","685c6e6cd54d2fe70c14ffcc","5685850c333cbd000d4e042f","false","false","Cup","https://kisumu-drawings.s3-us-west-1.amazonaws.com/31-011.png","3","Car","31-011.png"
"","1369","image-button-response","65","null","403032","685c6ca90f751d3aae6b1794","685c6e6cd54d2fe70c14ffcc","5685850c333cbd000d4e042f","false","false","Car","https://kisumu-drawings.s3-us-west-1.amazonaws.com/100-012.png","3","Car","100-012.png"
"","5391","image-button-response","66","null","408932","685c6ca90f751d3aae6b1794","685c6e6cd54d2fe70c14ffcc","5685850c333cbd000d4e042f","false","false","Airplane","https://kisumu-drawings.s3-us-west-1.amazonaws.com/14-012.png","11","Watch","14-012.png"
"","1828","image-button-response","67","null","411263","685c6ca90f751d3aae6b1794","685c6e6cd54d2fe70c14ffcc","5685850c333cbd000d4e042f","false","false","Car","https://kisumu-drawings.s3-us-west-1.amazonaws.com/113-015.png","3","Car","113-015.png"
"","1220","image-button-response","68","null","412989","685c6ca90f751d3aae6b1794","685c6e6cd54d2fe70c14ffcc","5685850c333cbd000d4e042f","false","false","Car","https://kisumu-drawings.s3-us-west-1.amazonaws.com/32-011.png","3","Car","32-011.png"
"","11372","image-button-response","69","null","424876","685c6ca90f751d3aae6b1794","685c6e6cd54d2fe70c14ffcc","5685850c333cbd000d4e042f","false","false","Watch","https://kisumu-drawings.s3-us-west-1.amazonaws.com/10-012.png","11","Watch","10-012.png"
"","2357","image-button-response","70","null","427738","685c6ca90f751d3aae6b1794","685c6e6cd54d2fe70c14ffcc","5685850c333cbd000d4e042f","false","false","Cat","https://kisumu-drawings.s3-us-west-1.amazonaws.com/72-014.png","4","Cat","72-014.png"
"","1712","image-button-response","71","null","429956","685c6ca90f751d3aae6b1794","685c6e6cd54d2fe70c14ffcc","5685850c333cbd000d4e042f","false","false","Airplane","https://kisumu-drawings.s3-us-west-1.amazonaws.com/74-015.png","0","Airplane","74-015.png"
"","1636","image-button-response","72","null","432103","685c6ca90f751d3aae6b1794","685c6e6cd54d2fe70c14ffcc","5685850c333cbd000d4e042f","false","false","Bicycle","https://kisumu-drawings.s3-us-west-1.amazonaws.com/114-014.png","1","Bicycle","114-014.png"
"","14739","image-button-response","73","null","447342","685c6ca90f751d3aae6b1794","685c6e6cd54d2fe70c14ffcc","5685850c333cbd000d4e042f","false","false","Airplane","https://kisumu-drawings.s3-us-west-1.amazonaws.com/42-016.png","5","Chair","42-016.png"
"","3144","image-button-response","74","null","450988","685c6ca90f751d3aae6b1794","685c6e6cd54d2fe70c14ffcc","5685850c333cbd000d4e042f","false","false","Cup","https://kisumu-drawings.s3-us-west-1.amazonaws.com/112-009.png","6","Cup","112-009.png"
"","2220","image-button-response","75","null","453717","685c6ca90f751d3aae6b1794","685c6e6cd54d2fe70c14ffcc","5685850c333cbd000d4e042f","false","false","Rabbit","https://kisumu-drawings.s3-us-west-1.amazonaws.com/54-016.png","4","Cat","54-016.png"
