"view_history","rt","trial_type","trial_index","plugin_version","time_elapsed","study_id","session_id","participant_id","catch_trial","prep_trial","sketcher_category","stimulus","response","response_category","sketch_id"
"[{""page_index"":0,""viewing_time"":57218},{""page_index"":1,""viewing_time"":9425},{""page_index"":2,""viewing_time"":5965},{""page_index"":3,""viewing_time"":4336}]","76944","instructions","0","null","76952","685c6ca90f751d3aae6b1794","685c6e3f4bcca8e4d99b24a0","56e6a66af6ed900006a5867c","","","","","","",""
"","2691","image-button-response","1","null","80648","685c6ca90f751d3aae6b1794","685c6e3f4bcca8e4d99b24a0","56e6a66af6ed900006a5867c","false","true","car","stimuli/prep_trials/1_car_prep.png","3","Car",""
"","1338","image-button-response","2","null","82500","685c6ca90f751d3aae6b1794","685c6e3f4bcca8e4d99b24a0","56e6a66af6ed900006a5867c","false","true","cat","stimuli/prep_trials/0_cat_prep.jpg","4","Cat",""
"","14989","image-button-response","3","null","97992","685c6ca90f751d3aae6b1794","685c6e3f4bcca8e4d99b24a0","56e6a66af6ed900006a5867c","false","false","Car","https://kisumu-drawings.s3-us-west-1.amazonaws.com/8-006.png","5","Chair","8-006.png"
"","9830","image-button-response","4","null","108327","685c6ca90f751d3aae6b1794","685c6e3f4bcca8e4d99b24a0","56e6a66af6ed900006a5867c","false","false","Bicycle","https://kisumu-drawings.s3-us-west-1.amazonaws.com/28-005.png","1","Bicycle","28-005.png"
"","13993","image-button-response","5","null","122828","685c6ca90f751d3aae6b1794","685c6e3f4bcca8e4d99b24a0","56e6a66af6ed900006a5867c","false","false","Cat","https://kisumu-drawings.s3-us-west-1.amazonaws.com/8-007.png","5","Chair","8-007.png"
"","15159","image-button-response","6","null","138494","685c6ca90f751d3aae6b1794","685c6e3f4bcca8e4d99b24a0","56e6a66af6ed900006a5867c","false","false","Cat","https://kisumu-drawings.s3-us-west-1.amazonaws.com/109-005.png","4","Cat","109-005.png"
"","8806","image-button-response","7","null","147814","685c6ca90f751d3aae6b1794","685c6e3f4bcca8e4d99b24a0","56e6a66af6ed900006a5867c","false","false","Car","https://kisumu-drawings.s3-us-west-1.amazonaws.com/96-013.png","3","Car","96-013.png"
"","22543","image-button-response","8","null","170862","685c6ca90f751d3aae6b1794","685c6e3f4bcca8e4d99b24a0","56e6a66af6ed900006a5867c","false","false","Hat","https://kisumu-drawings.s3-us-west-1.amazonaws.com/7-014.png","5","Chair","7-014.png"
"","11202","image-button-response","9","null","182571","685c6ca90f751d3aae6b1794","685c6e3f4bcca8e4d99b24a0","56e6a66af6ed900006a5867c","false","false","Bird","https://kisumu-drawings.s3-us-west-1.amazonaws.com/28-016.png","11","Watch","28-016.png"
"","8262","image-button-response","10","null","191347","685c6ca90f751d3aae6b1794","685c6e3f4bcca8e4d99b24a0","56e6a66af6ed900006a5867c","false","false","House","https://kisumu-drawings.s3-us-west-1.amazonaws.com/95-006.png","8","House","95-006.png"
"","17110","image-button-response","11","null","208973","685c6ca90f751d3aae6b1794","685c6e3f4bcca8e4d99b24a0","56e6a66af6ed900006a5867c","false","false","Car","https://kisumu-drawings.s3-us-west-1.amazonaws.com/28-007.png","3","Car","28-007.png"
"","8698","image-button-response","12","null","218187","685c6ca90f751d3aae6b1794","685c6e3f4bcca8e4d99b24a0","56e6a66af6ed900006a5867c","false","false","Cup","https://kisumu-drawings.s3-us-west-1.amazonaws.com/69-007.png","6","Cup","69-007.png"
"","6581","image-button-response","13","null","225274","685c6ca90f751d3aae6b1794","685c6e3f4bcca8e4d99b24a0","56e6a66af6ed900006a5867c","false","false","Bird","https://kisumu-drawings.s3-us-west-1.amazonaws.com/69-015.png","2","Bird","69-015.png"
"","4948","image-button-response","14","null","230724","685c6ca90f751d3aae6b1794","685c6e3f4bcca8e4d99b24a0","56e6a66af6ed900006a5867c","false","false","Rabbit","https://kisumu-drawings.s3-us-west-1.amazonaws.com/8-013.png","5","Chair","8-013.png"
"","5637","image-button-response","15","null","236864","685c6ca90f751d3aae6b1794","685c6e3f4bcca8e4d99b24a0","56e6a66af6ed900006a5867c","false","false","Watch","https://kisumu-drawings.s3-us-west-1.amazonaws.com/52-013.png","11","Watch","52-013.png"
"","9357","image-button-response","16","null","246732","685c6ca90f751d3aae6b1794","685c6e3f4bcca8e4d99b24a0","56e6a66af6ed900006a5867c","false","false","Tree","https://kisumu-drawings.s3-us-west-1.amazonaws.com/95-014.png","10","Tree","95-014.png"
"","8062","image-button-response","17","null","255301","685c6ca90f751d3aae6b1794","685c6e3f4bcca8e4d99b24a0","56e6a66af6ed900006a5867c","false","false","Tree","https://kisumu-drawings.s3-us-west-1.amazonaws.com/8-014.png","5","Chair","8-014.png"
"","3802","image-button-response","18","null","259617","685c6ca90f751d3aae6b1794","685c6e3f4bcca8e4d99b24a0","56e6a66af6ed900006a5867c","false","false","Cat","https://kisumu-drawings.s3-us-west-1.amazonaws.com/52-014.png","4","Cat","52-014.png"
"","3028","image-button-response","19","null","263153","685c6ca90f751d3aae6b1794","685c6e3f4bcca8e4d99b24a0","56e6a66af6ed900006a5867c","false","false","House","https://kisumu-drawings.s3-us-west-1.amazonaws.com/28-012.png","8","House","28-012.png"
"","3323","image-button-response","20","null","266984","685c6ca90f751d3aae6b1794","685c6e3f4bcca8e4d99b24a0","56e6a66af6ed900006a5867c","false","false","Chair","https://kisumu-drawings.s3-us-west-1.amazonaws.com/109-010.png","5","Chair","109-010.png"
"","3799","image-button-response","21","null","271286","685c6ca90f751d3aae6b1794","685c6e3f4bcca8e4d99b24a0","56e6a66af6ed900006a5867c","false","false","Airplane","https://kisumu-drawings.s3-us-west-1.amazonaws.com/70-008.png","0","Airplane","70-008.png"
"","3563","image-button-response","22","null","275351","685c6ca90f751d3aae6b1794","685c6e3f4bcca8e4d99b24a0","56e6a66af6ed900006a5867c","false","false","Hat","https://kisumu-drawings.s3-us-west-1.amazonaws.com/52-009.png","7","Hat","52-009.png"
"","3437","image-button-response","23","null","279301","685c6ca90f751d3aae6b1794","685c6e3f4bcca8e4d99b24a0","56e6a66af6ed900006a5867c","false","false","Tree","https://kisumu-drawings.s3-us-west-1.amazonaws.com/28-015.png","10","Tree","28-015.png"
"","3098","image-button-response","24","null","282911","685c6ca90f751d3aae6b1794","685c6e3f4bcca8e4d99b24a0","56e6a66af6ed900006a5867c","false","false","Cat","https://kisumu-drawings.s3-us-west-1.amazonaws.com/28-008.png","4","Cat","28-008.png"
"","3154","image-button-response","25","null","286575","685c6ca90f751d3aae6b1794","685c6e3f4bcca8e4d99b24a0","56e6a66af6ed900006a5867c","false","false","Cup","https://kisumu-drawings.s3-us-west-1.amazonaws.com/95-013.png","6","Cup","95-013.png"
"","3489","image-button-response","26","null","290576","685c6ca90f751d3aae6b1794","685c6e3f4bcca8e4d99b24a0","56e6a66af6ed900006a5867c","false","false","Tree","https://kisumu-drawings.s3-us-west-1.amazonaws.com/109-009.png","10","Tree","109-009.png"
"","8585","image-button-response","27","null","299677","685c6ca90f751d3aae6b1794","685c6e3f4bcca8e4d99b24a0","56e6a66af6ed900006a5867c","false","false","Car","https://kisumu-drawings.s3-us-west-1.amazonaws.com/52-006.png","3","Car","52-006.png"
"","26061","image-button-response","28","null","326247","685c6ca90f751d3aae6b1794","685c6e3f4bcca8e4d99b24a0","56e6a66af6ed900006a5867c","false","false","Bird","https://kisumu-drawings.s3-us-west-1.amazonaws.com/95-008.png","11","Watch","95-008.png"
"","10351","image-button-response","29","null","337112","685c6ca90f751d3aae6b1794","685c6e3f4bcca8e4d99b24a0","56e6a66af6ed900006a5867c","false","false","Bicycle","https://kisumu-drawings.s3-us-west-1.amazonaws.com/69-014.png","1","Bicycle","69-014.png"
"","5189","image-button-response","30","null","342812","685c6ca90f751d3aae6b1794","685c6e3f4bcca8e4d99b24a0","56e6a66af6ed900006a5867c","false","false","Rabbit","https://kisumu-drawings.s3-us-west-1.amazonaws.com/69-010.png","4","Cat","69-010.png"
"","6918","image-button-response","31","null","350234","685c6ca90f751d3aae6b1794","685c6e3f4bcca8e4d99b24a0","56e6a66af6ed900006a5867c","false","false","Airplane","https://kisumu-drawings.s3-us-west-1.amazonaws.com/95-009.png","3","Car","95-009.png"
"","3415","image-button-response","32","null","354165","685c6ca90f751d3aae6b1794","685c6e3f4bcca8e4d99b24a0","56e6a66af6ed900006a5867c","false","false","House","https://kisumu-drawings.s3-us-west-1.amazonaws.com/109-012.png","8","House","109-012.png"
"","2834","image-button-response","33","null","357504","685c6ca90f751d3aae6b1794","685c6e3f4bcca8e4d99b24a0","56e6a66af6ed900006a5867c","false","false","Rabbit","https://kisumu-drawings.s3-us-west-1.amazonaws.com/95-016.png","4","Cat","95-016.png"
"","4222","image-button-response","34","null","362232","685c6ca90f751d3aae6b1794","685c6e3f4bcca8e4d99b24a0","56e6a66af6ed900006a5867c","false","false","Cup","https://kisumu-drawings.s3-us-west-1.amazonaws.com/109-007.png","6","Cup","109-007.png"
"","4528","image-button-response","35","null","367274","685c6ca90f751d3aae6b1794","685c6e3f4bcca8e4d99b24a0","56e6a66af6ed900006a5867c","false","false","Hat","https://kisumu-drawings.s3-us-west-1.amazonaws.com/109-011.png","7","Hat","109-011.png"
"","4138","image-button-response","36","null","371914","685c6ca90f751d3aae6b1794","685c6e3f4bcca8e4d99b24a0","56e6a66af6ed900006a5867c","false","false","Rabbit","https://kisumu-drawings.s3-us-west-1.amazonaws.com/52-011.png","4","Cat","52-011.png"
"","6362","image-button-response","37","null","378782","685c6ca90f751d3aae6b1794","685c6e3f4bcca8e4d99b24a0","56e6a66af6ed900006a5867c","false","false","Bicycle","https://kisumu-drawings.s3-us-west-1.amazonaws.com/109-016.png","1","Bicycle","109-016.png"
"","2502","image-button-response","38","null","381790","685c6ca90f751d3aae6b1794","685c6e3f4bcca8e4d99b24a0","56e6a66af6ed900006a5867c","false","false","Chair","https://kisumu-drawings.s3-us-west-1.amazonaws.com/28-009.png","5","Chair","28-009.png"
"","4538","image-button-response","39","null","386841","685c6ca90f751d3aae6b1794","685c6e3f4bcca8e4d99b24a0","56e6a66af6ed900006a5867c","false","false","House","https://kisumu-drawings.s3-us-west-1.amazonaws.com/69-009.png","8","House","69-009.png"
"","2894","image-button-response","40","null","390241","685c6ca90f751d3aae6b1794","685c6e3f4bcca8e4d99b24a0","56e6a66af6ed900006a5867c","true","false","airplane","stimuli/catch_trials/0_airplane_catch.jpg","0","Airplane",""
"","8567","image-button-response","41","null","399310","685c6ca90f751d3aae6b1794","685c6e3f4bcca8e4d99b24a0","56e6a66af6ed900006a5867c","false","false","Bird","https://kisumu-drawings.s3-us-west-1.amazonaws.com/109-013.png","2","Bird","109-013.png"
"","6942","image-button-response","42","null","406766","685c6ca90f751d3aae6b1794","685c6e3f4bcca8e4d99b24a0","56e6a66af6ed900006a5867c","false","false","Hat","https://kisumu-drawings.s3-us-west-1.amazonaws.com/69-008.png","7","Hat","69-008.png"
"","2997","image-button-response","43","null","410265","685c6ca90f751d3aae6b1794","685c6e3f4bcca8e4d99b24a0","56e6a66af6ed900006a5867c","false","false","Hat","https://kisumu-drawings.s3-us-west-1.amazonaws.com/27-015.png","6","Cup","27-015.png"
"","5945","image-button-response","44","null","416718","685c6ca90f751d3aae6b1794","685c6e3f4bcca8e4d99b24a0","56e6a66af6ed900006a5867c","false","false","Cat","https://kisumu-drawings.s3-us-west-1.amazonaws.com/69-005.png","4","Cat","69-005.png"
"","2612","image-button-response","45","null","419833","685c6ca90f751d3aae6b1794","685c6e3f4bcca8e4d99b24a0","56e6a66af6ed900006a5867c","false","false","Watch","https://kisumu-drawings.s3-us-west-1.amazonaws.com/28-014.png","11","Watch","28-014.png"
"","4028","image-button-response","46","null","424367","685c6ca90f751d3aae6b1794","685c6e3f4bcca8e4d99b24a0","56e6a66af6ed900006a5867c","false","false","Tree","https://kisumu-drawings.s3-us-west-1.amazonaws.com/69-011.png","10","Tree","69-011.png"
"","4978","image-button-response","47","null","429851","685c6ca90f751d3aae6b1794","685c6e3f4bcca8e4d99b24a0","56e6a66af6ed900006a5867c","false","false","Car","https://kisumu-drawings.s3-us-west-1.amazonaws.com/109-014.png","3","Car","109-014.png"
"","3211","image-button-response","48","null","433576","685c6ca90f751d3aae6b1794","685c6e3f4bcca8e4d99b24a0","56e6a66af6ed900006a5867c","false","false","Cat","https://kisumu-drawings.s3-us-west-1.amazonaws.com/95-011.png","4","Cat","95-011.png"
"","3951","image-button-response","49","null","438035","685c6ca90f751d3aae6b1794","685c6e3f4bcca8e4d99b24a0","56e6a66af6ed900006a5867c","false","false","Chair","https://kisumu-drawings.s3-us-west-1.amazonaws.com/69-006.png","5","Chair","69-006.png"
"","4396","image-button-response","50","null","442944","685c6ca90f751d3aae6b1794","685c6e3f4bcca8e4d99b24a0","56e6a66af6ed900006a5867c","false","false","Chair","https://kisumu-drawings.s3-us-west-1.amazonaws.com/95-012.png","5","Chair","95-012.png"
"","3363","image-button-response","51","null","446816","685c6ca90f751d3aae6b1794","685c6e3f4bcca8e4d99b24a0","56e6a66af6ed900006a5867c","false","false","Bird","https://kisumu-drawings.s3-us-west-1.amazonaws.com/8-005.png","5","Chair","8-005.png"
"","7673","image-button-response","52","null","454993","685c6ca90f751d3aae6b1794","685c6e3f4bcca8e4d99b24a0","56e6a66af6ed900006a5867c","false","false","Rabbit","https://kisumu-drawings.s3-us-west-1.amazonaws.com/28-013.png","9","Rabbit","28-013.png"
"","2133","image-button-response","53","null","457626","685c6ca90f751d3aae6b1794","685c6e3f4bcca8e4d99b24a0","56e6a66af6ed900006a5867c","false","false","House","https://kisumu-drawings.s3-us-west-1.amazonaws.com/8-012.png","6","Cup","8-012.png"
"","6411","image-button-response","54","null","464552","685c6ca90f751d3aae6b1794","685c6e3f4bcca8e4d99b24a0","56e6a66af6ed900006a5867c","false","false","Airplane","https://kisumu-drawings.s3-us-west-1.amazonaws.com/28-006.png","11","Watch","28-006.png"
"","2701","image-button-response","55","null","467768","685c6ca90f751d3aae6b1794","685c6e3f4bcca8e4d99b24a0","56e6a66af6ed900006a5867c","false","false","Rabbit","https://kisumu-drawings.s3-us-west-1.amazonaws.com/109-008.png","4","Cat","109-008.png"
"","1616","image-button-response","56","null","469894","685c6ca90f751d3aae6b1794","685c6e3f4bcca8e4d99b24a0","56e6a66af6ed900006a5867c","false","false","Tree","https://kisumu-drawings.s3-us-west-1.amazonaws.com/52-012.png","10","Tree","52-012.png"
"","2526","image-button-response","57","null","472928","685c6ca90f751d3aae6b1794","685c6e3f4bcca8e4d99b24a0","56e6a66af6ed900006a5867c","false","false","Watch","https://kisumu-drawings.s3-us-west-1.amazonaws.com/8-009.png","4","Cat","8-009.png"
"","1483","image-button-response","58","null","474919","685c6ca90f751d3aae6b1794","685c6e3f4bcca8e4d99b24a0","56e6a66af6ed900006a5867c","false","false","Chair","https://kisumu-drawings.s3-us-west-1.amazonaws.com/52-016.png","5","Chair","52-016.png"
"","3289","image-button-response","59","null","478718","685c6ca90f751d3aae6b1794","685c6e3f4bcca8e4d99b24a0","56e6a66af6ed900006a5867c","false","false","Bicycle","https://kisumu-drawings.s3-us-west-1.amazonaws.com/52-005.png","1","Bicycle","52-005.png"
"","3384","image-button-response","60","null","482611","685c6ca90f751d3aae6b1794","685c6e3f4bcca8e4d99b24a0","56e6a66af6ed900006a5867c","false","false","Airplane","https://kisumu-drawings.s3-us-west-1.amazonaws.com/109-015.png","3","Car","109-015.png"
"","2132","image-button-response","61","null","485258","685c6ca90f751d3aae6b1794","685c6e3f4bcca8e4d99b24a0","56e6a66af6ed900006a5867c","false","false","Watch","https://kisumu-drawings.s3-us-west-1.amazonaws.com/109-006.png","11","Watch","109-006.png"
"","2139","image-button-response","62","null","487903","685c6ca90f751d3aae6b1794","685c6e3f4bcca8e4d99b24a0","56e6a66af6ed900006a5867c","false","false","Cup","https://kisumu-drawings.s3-us-west-1.amazonaws.com/8-010.png","5","Chair","8-010.png"
"","3104","image-button-response","63","null","491518","685c6ca90f751d3aae6b1794","685c6e3f4bcca8e4d99b24a0","56e6a66af6ed900006a5867c","false","false","Bicycle","https://kisumu-drawings.s3-us-west-1.amazonaws.com/8-016.png","5","Chair","8-016.png"
"","4084","image-button-response","64","null","496113","685c6ca90f751d3aae6b1794","685c6e3f4bcca8e4d99b24a0","56e6a66af6ed900006a5867c","false","false","Car","https://kisumu-drawings.s3-us-west-1.amazonaws.com/69-016.png","3","Car","69-016.png"
"","3461","image-button-response","65","null","500078","685c6ca90f751d3aae6b1794","685c6e3f4bcca8e4d99b24a0","56e6a66af6ed900006a5867c","false","false","Hat","https://kisumu-drawings.s3-us-west-1.amazonaws.com/95-005.png","7","Hat","95-005.png"
"","11707","image-button-response","66","null","512294","685c6ca90f751d3aae6b1794","685c6e3f4bcca8e4d99b24a0","56e6a66af6ed900006a5867c","false","false","Airplane","https://kisumu-drawings.s3-us-west-1.amazonaws.com/52-015.png","5","Chair","52-015.png"
"","6535","image-button-response","67","null","519344","685c6ca90f751d3aae6b1794","685c6e3f4bcca8e4d99b24a0","56e6a66af6ed900006a5867c","false","false","House","https://kisumu-drawings.s3-us-west-1.amazonaws.com/52-010.png","8","House","52-010.png"
"","6667","image-button-response","68","null","526522","685c6ca90f751d3aae6b1794","685c6e3f4bcca8e4d99b24a0","56e6a66af6ed900006a5867c","false","false","Airplane","https://kisumu-drawings.s3-us-west-1.amazonaws.com/9-009.png","6","Cup","9-009.png"
"","3908","image-button-response","69","null","530931","685c6ca90f751d3aae6b1794","685c6e3f4bcca8e4d99b24a0","56e6a66af6ed900006a5867c","false","false","Chair","https://kisumu-drawings.s3-us-west-1.amazonaws.com/8-008.png","5","Chair","8-008.png"
"","6557","image-button-response","70","null","538003","685c6ca90f751d3aae6b1794","685c6e3f4bcca8e4d99b24a0","56e6a66af6ed900006a5867c","false","false","Bird","https://kisumu-drawings.s3-us-west-1.amazonaws.com/52-007.png","2","Bird","52-007.png"
"","5589","image-button-response","71","null","544105","685c6ca90f751d3aae6b1794","685c6e3f4bcca8e4d99b24a0","56e6a66af6ed900006a5867c","false","false","Watch","https://kisumu-drawings.s3-us-west-1.amazonaws.com/69-012.png","11","Watch","69-012.png"
"","2922","image-button-response","72","null","547539","685c6ca90f751d3aae6b1794","685c6e3f4bcca8e4d99b24a0","56e6a66af6ed900006a5867c","false","false","Watch","https://kisumu-drawings.s3-us-west-1.amazonaws.com/95-015.png","11","Watch","95-015.png"
"","7417","image-button-response","73","null","555459","685c6ca90f751d3aae6b1794","685c6e3f4bcca8e4d99b24a0","56e6a66af6ed900006a5867c","false","false","Bicycle","https://kisumu-drawings.s3-us-west-1.amazonaws.com/95-010.png","1","Bicycle","95-010.png"
"","2040","image-button-response","74","null","558013","685c6ca90f751d3aae6b1794","685c6e3f4bcca8e4d99b24a0","56e6a66af6ed900006a5867c","false","false","Cup","https://kisumu-drawings.s3-us-west-1.amazonaws.com/52-008.png","6","Cup","52-008.png"
"","1247","image-button-response","75","null","559764","685c6ca90f751d3aae6b1794","685c6e3f4bcca8e4d99b24a0","56e6a66af6ed900006a5867c","false","false","Cup","https://kisumu-drawings.s3-us-west-1.amazonaws.com/28-010.png","6","Cup","28-010.png"
