"view_history","rt","trial_type","trial_index","plugin_version","time_elapsed","study_id","session_id","participant_id","catch_trial","prep_trial","sketcher_category","stimulus","response","response_category","sketch_id"
"[{""page_index"":0,""viewing_time"":122344},{""page_index"":1,""viewing_time"":269866},{""page_index"":2,""viewing_time"":31479},{""page_index"":3,""viewing_time"":8032}]","431722","instructions","0","null","431734","685c6ca90f751d3aae6b1794","685c7660821ccc872e60f6ff","5801cfc607d709000141b5be","","","","","","",""
"","3892","image-button-response","1","null","436630","685c6ca90f751d3aae6b1794","685c7660821ccc872e60f6ff","5801cfc607d709000141b5be","false","true","car","stimuli/prep_trials/1_car_prep.png","3","Car",""
"","1364","image-button-response","2","null","438496","685c6ca90f751d3aae6b1794","685c7660821ccc872e60f6ff","5801cfc607d709000141b5be","false","true","cat","stimuli/prep_trials/0_cat_prep.jpg","4","Cat",""
"","7224","image-button-response","3","null","446222","685c6ca90f751d3aae6b1794","685c7660821ccc872e60f6ff","5801cfc607d709000141b5be","false","false","Chair","https://kisumu-drawings.s3-us-west-1.amazonaws.com/48-007.png","7","Hat","48-007.png"
"","5961","image-button-response","4","null","452686","685c6ca90f751d3aae6b1794","685c7660821ccc872e60f6ff","5801cfc607d709000141b5be","false","false","Bird","https://kisumu-drawings.s3-us-west-1.amazonaws.com/54-010.png","0","Airplane","54-010.png"
"","22726","image-button-response","5","null","475915","685c6ca90f751d3aae6b1794","685c7660821ccc872e60f6ff","5801cfc607d709000141b5be","false","false","Car","https://kisumu-drawings.s3-us-west-1.amazonaws.com/30-008.png","7","Hat","30-008.png"
"","7651","image-button-response","6","null","484068","685c6ca90f751d3aae6b1794","685c7660821ccc872e60f6ff","5801cfc607d709000141b5be","false","false","Rabbit","https://kisumu-drawings.s3-us-west-1.amazonaws.com/66-008.png","4","Cat","66-008.png"
"","15966","image-button-response","7","null","500537","685c6ca90f751d3aae6b1794","685c7660821ccc872e60f6ff","5801cfc607d709000141b5be","false","false","Cat","https://kisumu-drawings.s3-us-west-1.amazonaws.com/101-011.png","4","Cat","101-011.png"
"","2474","image-button-response","8","null","503514","685c6ca90f751d3aae6b1794","685c7660821ccc872e60f6ff","5801cfc607d709000141b5be","false","false","Bird","https://kisumu-drawings.s3-us-west-1.amazonaws.com/117-011.png","2","Bird","117-011.png"
"","33280","image-button-response","9","null","537296","685c6ca90f751d3aae6b1794","685c7660821ccc872e60f6ff","5801cfc607d709000141b5be","false","false","Rabbit","https://kisumu-drawings.s3-us-west-1.amazonaws.com/15-006.png","8","House","15-006.png"
"","31396","image-button-response","10","null","569194","685c6ca90f751d3aae6b1794","685c7660821ccc872e60f6ff","5801cfc607d709000141b5be","false","false","Airplane","https://kisumu-drawings.s3-us-west-1.amazonaws.com/34-011.png","2","Bird","34-011.png"
"","4000","image-button-response","11","null","573697","685c6ca90f751d3aae6b1794","685c7660821ccc872e60f6ff","5801cfc607d709000141b5be","false","false","Cat","https://kisumu-drawings.s3-us-west-1.amazonaws.com/68-011.png","4","Cat","68-011.png"
"","1881","image-button-response","12","null","576079","685c6ca90f751d3aae6b1794","685c7660821ccc872e60f6ff","5801cfc607d709000141b5be","false","false","Chair","https://kisumu-drawings.s3-us-west-1.amazonaws.com/31-010.png","5","Chair","31-010.png"
"","14008","image-button-response","13","null","590591","685c6ca90f751d3aae6b1794","685c7660821ccc872e60f6ff","5801cfc607d709000141b5be","false","false","Car","https://kisumu-drawings.s3-us-west-1.amazonaws.com/13-011.png","6","Cup","13-011.png"
"","3922","image-button-response","14","null","595015","685c6ca90f751d3aae6b1794","685c7660821ccc872e60f6ff","5801cfc607d709000141b5be","true","false","airplane","stimuli/catch_trials/0_airplane_catch.jpg","0","Airplane",""
"","5004","image-button-response","15","null","600522","685c6ca90f751d3aae6b1794","685c7660821ccc872e60f6ff","5801cfc607d709000141b5be","false","false","Bird","https://kisumu-drawings.s3-us-west-1.amazonaws.com/14-013.png","6","Cup","14-013.png"
"","18151","image-button-response","16","null","619176","685c6ca90f751d3aae6b1794","685c7660821ccc872e60f6ff","5801cfc607d709000141b5be","false","false","Watch","https://kisumu-drawings.s3-us-west-1.amazonaws.com/65-010.png","11","Watch","65-010.png"
"","61088","image-button-response","17","null","680766","685c6ca90f751d3aae6b1794","685c7660821ccc872e60f6ff","5801cfc607d709000141b5be","false","false","Airplane","https://kisumu-drawings.s3-us-west-1.amazonaws.com/98-016.png","8","House","98-016.png"
"","5976","image-button-response","18","null","687246","685c6ca90f751d3aae6b1794","685c7660821ccc872e60f6ff","5801cfc607d709000141b5be","false","false","Rabbit","https://kisumu-drawings.s3-us-west-1.amazonaws.com/111-011.png","4","Cat","111-011.png"
"","5034","image-button-response","19","null","692782","685c6ca90f751d3aae6b1794","685c7660821ccc872e60f6ff","5801cfc607d709000141b5be","false","false","Watch","https://kisumu-drawings.s3-us-west-1.amazonaws.com/84-006.png","11","Watch","84-006.png"
"","26318","image-button-response","20","null","719603","685c6ca90f751d3aae6b1794","685c7660821ccc872e60f6ff","5801cfc607d709000141b5be","false","false","Bicycle","https://kisumu-drawings.s3-us-west-1.amazonaws.com/5-015.png","2","Bird","5-015.png"
"","6158","image-button-response","21","null","726263","685c6ca90f751d3aae6b1794","685c7660821ccc872e60f6ff","5801cfc607d709000141b5be","false","false","Cat","https://kisumu-drawings.s3-us-west-1.amazonaws.com/44-014.png","4","Cat","44-014.png"
"","3156","image-button-response","22","null","729922","685c6ca90f751d3aae6b1794","685c7660821ccc872e60f6ff","5801cfc607d709000141b5be","false","false","House","https://kisumu-drawings.s3-us-west-1.amazonaws.com/58-005.png","8","House","58-005.png"
"","2354","image-button-response","23","null","732779","685c6ca90f751d3aae6b1794","685c7660821ccc872e60f6ff","5801cfc607d709000141b5be","false","false","Airplane","https://kisumu-drawings.s3-us-west-1.amazonaws.com/58-013.png","0","Airplane","58-013.png"
"","4275","image-button-response","24","null","737556","685c6ca90f751d3aae6b1794","685c7660821ccc872e60f6ff","5801cfc607d709000141b5be","false","false","Bird","https://kisumu-drawings.s3-us-west-1.amazonaws.com/74-006.png","9","Rabbit","74-006.png"
"","2025","image-button-response","25","null","740083","685c6ca90f751d3aae6b1794","685c7660821ccc872e60f6ff","5801cfc607d709000141b5be","false","false","Hat","https://kisumu-drawings.s3-us-west-1.amazonaws.com/49-006.png","7","Hat","49-006.png"
"","8559","image-button-response","26","null","749144","685c6ca90f751d3aae6b1794","685c7660821ccc872e60f6ff","5801cfc607d709000141b5be","false","false","House","https://kisumu-drawings.s3-us-west-1.amazonaws.com/29-011.png","4","Cat","29-011.png"
"","4679","image-button-response","27","null","754326","685c6ca90f751d3aae6b1794","685c7660821ccc872e60f6ff","5801cfc607d709000141b5be","false","false","Cup","https://kisumu-drawings.s3-us-west-1.amazonaws.com/21-007.png","5","Chair","21-007.png"
"","3628","image-button-response","28","null","758456","685c6ca90f751d3aae6b1794","685c7660821ccc872e60f6ff","5801cfc607d709000141b5be","false","false","Cup","https://kisumu-drawings.s3-us-west-1.amazonaws.com/51-010.png","6","Cup","51-010.png"
"","2548","image-button-response","29","null","761505","685c6ca90f751d3aae6b1794","685c7660821ccc872e60f6ff","5801cfc607d709000141b5be","false","false","Car","https://kisumu-drawings.s3-us-west-1.amazonaws.com/99-016.png","3","Car","99-016.png"
"","3286","image-button-response","30","null","765294","685c6ca90f751d3aae6b1794","685c7660821ccc872e60f6ff","5801cfc607d709000141b5be","false","false","Bicycle","https://kisumu-drawings.s3-us-west-1.amazonaws.com/53-010.png","4","Cat","53-010.png"
"","2151","image-button-response","31","null","767947","685c6ca90f751d3aae6b1794","685c7660821ccc872e60f6ff","5801cfc607d709000141b5be","false","false","Chair","https://kisumu-drawings.s3-us-west-1.amazonaws.com/76-009.png","5","Chair","76-009.png"
"","2094","image-button-response","32","null","770544","685c6ca90f751d3aae6b1794","685c7660821ccc872e60f6ff","5801cfc607d709000141b5be","false","false","Watch","https://kisumu-drawings.s3-us-west-1.amazonaws.com/55-010.png","2","Bird","55-010.png"
"","9951","image-button-response","33","null","780996","685c6ca90f751d3aae6b1794","685c7660821ccc872e60f6ff","5801cfc607d709000141b5be","false","false","Watch","https://kisumu-drawings.s3-us-west-1.amazonaws.com/116-007.png","11","Watch","116-007.png"
"","3458","image-button-response","34","null","784957","685c6ca90f751d3aae6b1794","685c7660821ccc872e60f6ff","5801cfc607d709000141b5be","false","false","House","https://kisumu-drawings.s3-us-west-1.amazonaws.com/72-012.png","8","House","72-012.png"
"","148330","image-button-response","35","null","933789","685c6ca90f751d3aae6b1794","685c7660821ccc872e60f6ff","5801cfc607d709000141b5be","false","false","Airplane","https://kisumu-drawings.s3-us-west-1.amazonaws.com/80-009.png","0","Airplane","80-009.png"
"","3409","image-button-response","36","null","937702","685c6ca90f751d3aae6b1794","685c7660821ccc872e60f6ff","5801cfc607d709000141b5be","false","false","Chair","https://kisumu-drawings.s3-us-west-1.amazonaws.com/109-010.png","5","Chair","109-010.png"
"","27012","image-button-response","37","null","965216","685c6ca90f751d3aae6b1794","685c7660821ccc872e60f6ff","5801cfc607d709000141b5be","false","false","Tree","https://kisumu-drawings.s3-us-west-1.amazonaws.com/74-010.png","9","Rabbit","74-010.png"
"","5701","image-button-response","38","null","971418","685c6ca90f751d3aae6b1794","685c7660821ccc872e60f6ff","5801cfc607d709000141b5be","false","false","Watch","https://kisumu-drawings.s3-us-west-1.amazonaws.com/21-009.png","4","Cat","21-009.png"
"","2868","image-button-response","39","null","974788","685c6ca90f751d3aae6b1794","685c7660821ccc872e60f6ff","5801cfc607d709000141b5be","false","false","Hat","https://kisumu-drawings.s3-us-west-1.amazonaws.com/99-007.png","7","Hat","99-007.png"
"","2069","image-button-response","40","null","977359","685c6ca90f751d3aae6b1794","685c7660821ccc872e60f6ff","5801cfc607d709000141b5be","false","false","Chair","https://kisumu-drawings.s3-us-west-1.amazonaws.com/96-011.png","5","Chair","96-011.png"
"","2345","image-button-response","41","null","980206","685c6ca90f751d3aae6b1794","685c7660821ccc872e60f6ff","5801cfc607d709000141b5be","false","false","Airplane","https://kisumu-drawings.s3-us-west-1.amazonaws.com/110-014.png","0","Airplane","110-014.png"
"","2148","image-button-response","42","null","982856","685c6ca90f751d3aae6b1794","685c7660821ccc872e60f6ff","5801cfc607d709000141b5be","false","false","Car","https://kisumu-drawings.s3-us-west-1.amazonaws.com/59-010.png","3","Car","59-010.png"
"","3113","image-button-response","43","null","986471","685c6ca90f751d3aae6b1794","685c7660821ccc872e60f6ff","5801cfc607d709000141b5be","false","false","Hat","https://kisumu-drawings.s3-us-west-1.amazonaws.com/35-013.png","7","Hat","35-013.png"
"","2872","image-button-response","44","null","989846","685c6ca90f751d3aae6b1794","685c7660821ccc872e60f6ff","5801cfc607d709000141b5be","false","false","Bird","https://kisumu-drawings.s3-us-west-1.amazonaws.com/92-012.png","0","Airplane","92-012.png"
"","2281","image-button-response","45","null","992630","685c6ca90f751d3aae6b1794","685c7660821ccc872e60f6ff","5801cfc607d709000141b5be","false","false","Hat","https://kisumu-drawings.s3-us-west-1.amazonaws.com/79-015.png","7","Hat","79-015.png"
"","10641","image-button-response","46","null","1003774","685c6ca90f751d3aae6b1794","685c7660821ccc872e60f6ff","5801cfc607d709000141b5be","false","false","Cat","https://kisumu-drawings.s3-us-west-1.amazonaws.com/33-012.png","4","Cat","33-012.png"
"","11095","image-button-response","47","null","1015372","685c6ca90f751d3aae6b1794","685c7660821ccc872e60f6ff","5801cfc607d709000141b5be","false","false","Bicycle","https://kisumu-drawings.s3-us-west-1.amazonaws.com/74-014.png","3","Car","74-014.png"
"","3711","image-button-response","48","null","1019586","685c6ca90f751d3aae6b1794","685c7660821ccc872e60f6ff","5801cfc607d709000141b5be","false","false","Tree","https://kisumu-drawings.s3-us-west-1.amazonaws.com/107-010.png","9","Rabbit","107-010.png"
"","4363","image-button-response","49","null","1024452","685c6ca90f751d3aae6b1794","685c7660821ccc872e60f6ff","5801cfc607d709000141b5be","false","false","Airplane","https://kisumu-drawings.s3-us-west-1.amazonaws.com/9-009.png","7","Hat","9-009.png"
"","10447","image-button-response","50","null","1035402","685c6ca90f751d3aae6b1794","685c7660821ccc872e60f6ff","5801cfc607d709000141b5be","false","false","Rabbit","https://kisumu-drawings.s3-us-west-1.amazonaws.com/82-009.png","3","Car","82-009.png"
"","7800","image-button-response","51","null","1043705","685c6ca90f751d3aae6b1794","685c7660821ccc872e60f6ff","5801cfc607d709000141b5be","false","false","Cat","https://kisumu-drawings.s3-us-west-1.amazonaws.com/16-007.png","5","Chair","16-007.png"
"","4996","image-button-response","52","null","1049203","685c6ca90f751d3aae6b1794","685c7660821ccc872e60f6ff","5801cfc607d709000141b5be","false","false","House","https://kisumu-drawings.s3-us-west-1.amazonaws.com/4-012.png","9","Rabbit","4-012.png"
"","3278","image-button-response","53","null","1052984","685c6ca90f751d3aae6b1794","685c7660821ccc872e60f6ff","5801cfc607d709000141b5be","false","false","House","https://kisumu-drawings.s3-us-west-1.amazonaws.com/110-016.png","8","House","110-016.png"
"","3312","image-button-response","54","null","1056797","685c6ca90f751d3aae6b1794","685c7660821ccc872e60f6ff","5801cfc607d709000141b5be","false","false","Bicycle","https://kisumu-drawings.s3-us-west-1.amazonaws.com/38-015.png","3","Car","38-015.png"
"","5209","image-button-response","55","null","1062508","685c6ca90f751d3aae6b1794","685c7660821ccc872e60f6ff","5801cfc607d709000141b5be","false","false","Hat","https://kisumu-drawings.s3-us-west-1.amazonaws.com/109-011.png","7","Hat","109-011.png"
"","6106","image-button-response","56","null","1069116","685c6ca90f751d3aae6b1794","685c7660821ccc872e60f6ff","5801cfc607d709000141b5be","false","false","Rabbit","https://kisumu-drawings.s3-us-west-1.amazonaws.com/34-008.png","4","Cat","34-008.png"
"","7366","image-button-response","57","null","1076986","685c6ca90f751d3aae6b1794","685c7660821ccc872e60f6ff","5801cfc607d709000141b5be","false","false","Rabbit","https://kisumu-drawings.s3-us-west-1.amazonaws.com/52-011.png","4","Cat","52-011.png"
"","3282","image-button-response","58","null","1080769","685c6ca90f751d3aae6b1794","685c7660821ccc872e60f6ff","5801cfc607d709000141b5be","false","false","Bird","https://kisumu-drawings.s3-us-west-1.amazonaws.com/31-007.png","2","Bird","31-007.png"
"","2741","image-button-response","59","null","1084013","685c6ca90f751d3aae6b1794","685c7660821ccc872e60f6ff","5801cfc607d709000141b5be","false","false","Watch","https://kisumu-drawings.s3-us-west-1.amazonaws.com/18-008.png","2","Bird","18-008.png"
"","2677","image-button-response","60","null","1087191","685c6ca90f751d3aae6b1794","685c7660821ccc872e60f6ff","5801cfc607d709000141b5be","false","false","Tree","https://kisumu-drawings.s3-us-west-1.amazonaws.com/30-015.png","10","Tree","30-015.png"
"","3427","image-button-response","61","null","1091121","685c6ca90f751d3aae6b1794","685c7660821ccc872e60f6ff","5801cfc607d709000141b5be","false","false","Tree","https://kisumu-drawings.s3-us-west-1.amazonaws.com/8-014.png","10","Tree","8-014.png"
"","2978","image-button-response","62","null","1094602","685c6ca90f751d3aae6b1794","685c7660821ccc872e60f6ff","5801cfc607d709000141b5be","false","false","Car","https://kisumu-drawings.s3-us-west-1.amazonaws.com/77-015.png","3","Car","77-015.png"
"","6212","image-button-response","63","null","1101317","685c6ca90f751d3aae6b1794","685c7660821ccc872e60f6ff","5801cfc607d709000141b5be","false","false","Car","https://kisumu-drawings.s3-us-west-1.amazonaws.com/105-008.png","3","Car","105-008.png"
"","1903","image-button-response","64","null","1103722","685c6ca90f751d3aae6b1794","685c7660821ccc872e60f6ff","5801cfc607d709000141b5be","false","false","Bicycle","https://kisumu-drawings.s3-us-west-1.amazonaws.com/101-016.png","3","Car","101-016.png"
"","1824","image-button-response","65","null","1106048","685c6ca90f751d3aae6b1794","685c7660821ccc872e60f6ff","5801cfc607d709000141b5be","false","false","House","https://kisumu-drawings.s3-us-west-1.amazonaws.com/93-010.png","8","House","93-010.png"
"","2716","image-button-response","66","null","1109268","685c6ca90f751d3aae6b1794","685c7660821ccc872e60f6ff","5801cfc607d709000141b5be","false","false","Bicycle","https://kisumu-drawings.s3-us-west-1.amazonaws.com/98-006.png","3","Car","98-006.png"
"","6506","image-button-response","67","null","1116277","685c6ca90f751d3aae6b1794","685c7660821ccc872e60f6ff","5801cfc607d709000141b5be","false","false","Cat","https://kisumu-drawings.s3-us-west-1.amazonaws.com/97-015.png","4","Cat","97-015.png"
"","2826","image-button-response","68","null","1119605","685c6ca90f751d3aae6b1794","685c7660821ccc872e60f6ff","5801cfc607d709000141b5be","false","false","Cup","https://kisumu-drawings.s3-us-west-1.amazonaws.com/65-008.png","6","Cup","65-008.png"
"","2680","image-button-response","69","null","1122788","685c6ca90f751d3aae6b1794","685c7660821ccc872e60f6ff","5801cfc607d709000141b5be","false","false","Tree","https://kisumu-drawings.s3-us-west-1.amazonaws.com/98-010.png","2","Bird","98-010.png"
"","1565","image-button-response","70","null","1124856","685c6ca90f751d3aae6b1794","685c7660821ccc872e60f6ff","5801cfc607d709000141b5be","false","false","Cup","https://kisumu-drawings.s3-us-west-1.amazonaws.com/110-013.png","6","Cup","110-013.png"
"","3180","image-button-response","71","null","1128538","685c6ca90f751d3aae6b1794","685c7660821ccc872e60f6ff","5801cfc607d709000141b5be","false","false","Cup","https://kisumu-drawings.s3-us-west-1.amazonaws.com/19-011.png","7","Hat","19-011.png"
"","4892","image-button-response","72","null","1133932","685c6ca90f751d3aae6b1794","685c7660821ccc872e60f6ff","5801cfc607d709000141b5be","false","false","Hat","https://kisumu-drawings.s3-us-west-1.amazonaws.com/7-014.png","7","Hat","7-014.png"
"","1861","image-button-response","73","null","1136295","685c6ca90f751d3aae6b1794","685c7660821ccc872e60f6ff","5801cfc607d709000141b5be","false","false","Cup","https://kisumu-drawings.s3-us-west-1.amazonaws.com/88-012.png","6","Cup","88-012.png"
"","3848","image-button-response","74","null","1140646","685c6ca90f751d3aae6b1794","685c7660821ccc872e60f6ff","5801cfc607d709000141b5be","false","false","Chair","https://kisumu-drawings.s3-us-west-1.amazonaws.com/6-012.png","6","Cup","6-012.png"
"","1423","image-button-response","75","null","1142572","685c6ca90f751d3aae6b1794","685c7660821ccc872e60f6ff","5801cfc607d709000141b5be","false","false","Tree","https://kisumu-drawings.s3-us-west-1.amazonaws.com/58-006.png","10","Tree","58-006.png"
