"view_history","rt","trial_type","trial_index","plugin_version","time_elapsed","study_id","session_id","participant_id","catch_trial","prep_trial","sketcher_category","stimulus","response","response_category","sketch_id"
"[{""page_index"":0,""viewing_time"":1211635},{""page_index"":1,""viewing_time"":2548},{""page_index"":2,""viewing_time"":135322},{""page_index"":3,""viewing_time"":2155}]","1351660","instructions","0","null","1351661","685c6ca90f751d3aae6b1794","685c6e3ecf79710635ea54ae","5c4ea7c3889752000156ddc5","","","","","","",""
"","2139","image-button-response","1","null","1354809","685c6ca90f751d3aae6b1794","685c6e3ecf79710635ea54ae","5c4ea7c3889752000156ddc5","false","true","car","stimuli/prep_trials/1_car_prep.png","3","Car",""
"","1149","image-button-response","2","null","1356472","685c6ca90f751d3aae6b1794","685c6e3ecf79710635ea54ae","5c4ea7c3889752000156ddc5","false","true","cat","stimuli/prep_trials/0_cat_prep.jpg","4","Cat",""
"","3968","image-button-response","3","null","1360956","685c6ca90f751d3aae6b1794","685c6e3ecf79710635ea54ae","5c4ea7c3889752000156ddc5","false","false","Tree","https://kisumu-drawings.s3-us-west-1.amazonaws.com/50-009.png","10","Tree","50-009.png"
"","1929","image-button-response","4","null","1363395","685c6ca90f751d3aae6b1794","685c6e3ecf79710635ea54ae","5c4ea7c3889752000156ddc5","false","false","House","https://kisumu-drawings.s3-us-west-1.amazonaws.com/50-007.png","8","House","50-007.png"
"","8414","image-button-response","5","null","1372312","685c6ca90f751d3aae6b1794","685c6e3ecf79710635ea54ae","5c4ea7c3889752000156ddc5","false","false","Bird","https://kisumu-drawings.s3-us-west-1.amazonaws.com/28-016.png","1","Bicycle","28-016.png"
"","2331","image-button-response","6","null","1375153","685c6ca90f751d3aae6b1794","685c6e3ecf79710635ea54ae","5c4ea7c3889752000156ddc5","false","false","Hat","https://kisumu-drawings.s3-us-west-1.amazonaws.com/63-014.png","5","Chair","63-014.png"
"","4505","image-button-response","7","null","1380159","685c6ca90f751d3aae6b1794","685c6e3ecf79710635ea54ae","5c4ea7c3889752000156ddc5","false","false","Hat","https://kisumu-drawings.s3-us-west-1.amazonaws.com/51-011.png","5","Chair","51-011.png"
"","2150","image-button-response","8","null","1382824","685c6ca90f751d3aae6b1794","685c6e3ecf79710635ea54ae","5c4ea7c3889752000156ddc5","false","false","House","https://kisumu-drawings.s3-us-west-1.amazonaws.com/27-009.png","8","House","27-009.png"
"","2004","image-button-response","9","null","1385329","685c6ca90f751d3aae6b1794","685c6e3ecf79710635ea54ae","5c4ea7c3889752000156ddc5","false","false","Bicycle","https://kisumu-drawings.s3-us-west-1.amazonaws.com/110-006.png","1","Bicycle","110-006.png"
"","3312","image-button-response","10","null","1389151","685c6ca90f751d3aae6b1794","685c6e3ecf79710635ea54ae","5c4ea7c3889752000156ddc5","false","false","Chair","https://kisumu-drawings.s3-us-west-1.amazonaws.com/69-006.png","5","Chair","69-006.png"
"","1807","image-button-response","11","null","1391459","685c6ca90f751d3aae6b1794","685c6e3ecf79710635ea54ae","5c4ea7c3889752000156ddc5","false","false","Chair","https://kisumu-drawings.s3-us-west-1.amazonaws.com/8-008.png","10","Tree","8-008.png"
"","1696","image-button-response","12","null","1393658","685c6ca90f751d3aae6b1794","685c6e3ecf79710635ea54ae","5c4ea7c3889752000156ddc5","false","false","Cup","https://kisumu-drawings.s3-us-west-1.amazonaws.com/27-014.png","5","Chair","27-014.png"
"","3688","image-button-response","13","null","1397847","685c6ca90f751d3aae6b1794","685c6e3ecf79710635ea54ae","5c4ea7c3889752000156ddc5","false","false","Cup","https://kisumu-drawings.s3-us-west-1.amazonaws.com/108-005.png","6","Cup","108-005.png"
"","3065","image-button-response","14","null","1401422","685c6ca90f751d3aae6b1794","685c6e3ecf79710635ea54ae","5c4ea7c3889752000156ddc5","false","false","Watch","https://kisumu-drawings.s3-us-west-1.amazonaws.com/26-015.png","1","Bicycle","26-015.png"
"","5795","image-button-response","15","null","1407731","685c6ca90f751d3aae6b1794","685c6e3ecf79710635ea54ae","5c4ea7c3889752000156ddc5","false","false","Car","https://kisumu-drawings.s3-us-west-1.amazonaws.com/52-006.png","8","House","52-006.png"
"","15043","image-button-response","16","null","1423280","685c6ca90f751d3aae6b1794","685c6e3ecf79710635ea54ae","5c4ea7c3889752000156ddc5","false","false","Rabbit","https://kisumu-drawings.s3-us-west-1.amazonaws.com/26-013.png","10","Tree","26-013.png"
"","10642","image-button-response","17","null","1434435","685c6ca90f751d3aae6b1794","685c6e3ecf79710635ea54ae","5c4ea7c3889752000156ddc5","false","false","Cat","https://kisumu-drawings.s3-us-west-1.amazonaws.com/94-009.png","11","Watch","94-009.png"
"","3633","image-button-response","18","null","1438573","685c6ca90f751d3aae6b1794","685c6e3ecf79710635ea54ae","5c4ea7c3889752000156ddc5","false","false","Airplane","https://kisumu-drawings.s3-us-west-1.amazonaws.com/110-014.png","0","Airplane","110-014.png"
"","5257","image-button-response","19","null","1444339","685c6ca90f751d3aae6b1794","685c6e3ecf79710635ea54ae","5c4ea7c3889752000156ddc5","false","false","Bicycle","https://kisumu-drawings.s3-us-west-1.amazonaws.com/53-010.png","5","Chair","53-010.png"
"","2965","image-button-response","20","null","1447806","685c6ca90f751d3aae6b1794","685c6e3ecf79710635ea54ae","5c4ea7c3889752000156ddc5","false","false","Cat","https://kisumu-drawings.s3-us-west-1.amazonaws.com/27-008.png","4","Cat","27-008.png"
"","2029","image-button-response","21","null","1450345","685c6ca90f751d3aae6b1794","685c6e3ecf79710635ea54ae","5c4ea7c3889752000156ddc5","false","false","Cat","https://kisumu-drawings.s3-us-west-1.amazonaws.com/52-014.png","4","Cat","52-014.png"
"","1862","image-button-response","22","null","1452711","685c6ca90f751d3aae6b1794","685c6e3ecf79710635ea54ae","5c4ea7c3889752000156ddc5","false","false","Bird","https://kisumu-drawings.s3-us-west-1.amazonaws.com/8-005.png","10","Tree","8-005.png"
"","1644","image-button-response","23","null","1454860","685c6ca90f751d3aae6b1794","685c6e3ecf79710635ea54ae","5c4ea7c3889752000156ddc5","false","false","Chair","https://kisumu-drawings.s3-us-west-1.amazonaws.com/51-009.png","5","Chair","51-009.png"
"","1877","image-button-response","24","null","1457253","685c6ca90f751d3aae6b1794","685c6e3ecf79710635ea54ae","5c4ea7c3889752000156ddc5","false","false","Cup","https://kisumu-drawings.s3-us-west-1.amazonaws.com/63-015.png","6","Cup","63-015.png"
"","1490","image-button-response","25","null","1459248","685c6ca90f751d3aae6b1794","685c6e3ecf79710635ea54ae","5c4ea7c3889752000156ddc5","false","false","Watch","https://kisumu-drawings.s3-us-west-1.amazonaws.com/107-011.png","11","Watch","107-011.png"
"","5009","image-button-response","26","null","1464766","685c6ca90f751d3aae6b1794","685c6e3ecf79710635ea54ae","5c4ea7c3889752000156ddc5","false","false","Airplane","https://kisumu-drawings.s3-us-west-1.amazonaws.com/30-005.png","7","Hat","30-005.png"
"","1782","image-button-response","27","null","1467055","685c6ca90f751d3aae6b1794","685c6e3ecf79710635ea54ae","5c4ea7c3889752000156ddc5","false","false","Bicycle","https://kisumu-drawings.s3-us-west-1.amazonaws.com/96-014.png","5","Chair","96-014.png"
"","1556","image-button-response","28","null","1469115","685c6ca90f751d3aae6b1794","685c6e3ecf79710635ea54ae","5c4ea7c3889752000156ddc5","false","false","Chair","https://kisumu-drawings.s3-us-west-1.amazonaws.com/94-010.png","5","Chair","94-010.png"
"","1594","image-button-response","29","null","1471217","685c6ca90f751d3aae6b1794","685c6e3ecf79710635ea54ae","5c4ea7c3889752000156ddc5","false","false","Hat","https://kisumu-drawings.s3-us-west-1.amazonaws.com/7-014.png","5","Chair","7-014.png"
"","2919","image-button-response","30","null","1474638","685c6ca90f751d3aae6b1794","685c6e3ecf79710635ea54ae","5c4ea7c3889752000156ddc5","false","false","Bicycle","https://kisumu-drawings.s3-us-west-1.amazonaws.com/70-009.png","3","Car","70-009.png"
"","6228","image-button-response","31","null","1481371","685c6ca90f751d3aae6b1794","685c6e3ecf79710635ea54ae","5c4ea7c3889752000156ddc5","false","false","Watch","https://kisumu-drawings.s3-us-west-1.amazonaws.com/50-010.png","6","Cup","50-010.png"
"","1820","image-button-response","32","null","1483697","685c6ca90f751d3aae6b1794","685c6e3ecf79710635ea54ae","5c4ea7c3889752000156ddc5","false","false","Car","https://kisumu-drawings.s3-us-west-1.amazonaws.com/109-014.png","3","Car","109-014.png"
"","1367","image-button-response","33","null","1485565","685c6ca90f751d3aae6b1794","685c6e3ecf79710635ea54ae","5c4ea7c3889752000156ddc5","false","false","Watch","https://kisumu-drawings.s3-us-west-1.amazonaws.com/68-016.png","11","Watch","68-016.png"
"","2418","image-button-response","34","null","1488484","685c6ca90f751d3aae6b1794","685c6e3ecf79710635ea54ae","5c4ea7c3889752000156ddc5","false","false","House","https://kisumu-drawings.s3-us-west-1.amazonaws.com/68-014.png","8","House","68-014.png"
"","3036","image-button-response","35","null","1492032","685c6ca90f751d3aae6b1794","685c6e3ecf79710635ea54ae","5c4ea7c3889752000156ddc5","false","false","Tree","https://kisumu-drawings.s3-us-west-1.amazonaws.com/93-014.png","10","Tree","93-014.png"
"","3476","image-button-response","36","null","1496020","685c6ca90f751d3aae6b1794","685c6e3ecf79710635ea54ae","5c4ea7c3889752000156ddc5","false","false","Cat","https://kisumu-drawings.s3-us-west-1.amazonaws.com/69-005.png","4","Cat","69-005.png"
"","3345","image-button-response","37","null","1499873","685c6ca90f751d3aae6b1794","685c6e3ecf79710635ea54ae","5c4ea7c3889752000156ddc5","false","false","Hat","https://kisumu-drawings.s3-us-west-1.amazonaws.com/94-015.png","6","Cup","94-015.png"
"","2792","image-button-response","38","null","1503166","685c6ca90f751d3aae6b1794","685c6e3ecf79710635ea54ae","5c4ea7c3889752000156ddc5","false","false","Bird","https://kisumu-drawings.s3-us-west-1.amazonaws.com/69-015.png","2","Bird","69-015.png"
"","3221","image-button-response","39","null","1506893","685c6ca90f751d3aae6b1794","685c6e3ecf79710635ea54ae","5c4ea7c3889752000156ddc5","false","false","Car","https://kisumu-drawings.s3-us-west-1.amazonaws.com/28-007.png","8","House","28-007.png"
"","1774","image-button-response","40","null","1509172","685c6ca90f751d3aae6b1794","685c6e3ecf79710635ea54ae","5c4ea7c3889752000156ddc5","false","false","House","https://kisumu-drawings.s3-us-west-1.amazonaws.com/7-013.png","8","House","7-013.png"
"","2602","image-button-response","41","null","1512287","685c6ca90f751d3aae6b1794","685c6e3ecf79710635ea54ae","5c4ea7c3889752000156ddc5","false","false","Cup","https://kisumu-drawings.s3-us-west-1.amazonaws.com/7-012.png","6","Cup","7-012.png"
"","2109","image-button-response","42","null","1514898","685c6ca90f751d3aae6b1794","685c6e3ecf79710635ea54ae","5c4ea7c3889752000156ddc5","false","false","Car","https://kisumu-drawings.s3-us-west-1.amazonaws.com/95-007.png","3","Car","95-007.png"
"","1628","image-button-response","43","null","1517033","685c6ca90f751d3aae6b1794","685c6e3ecf79710635ea54ae","5c4ea7c3889752000156ddc5","false","false","Bicycle","https://kisumu-drawings.s3-us-west-1.amazonaws.com/9-008.png","5","Chair","9-008.png"
"","1619","image-button-response","44","null","1519153","685c6ca90f751d3aae6b1794","685c6e3ecf79710635ea54ae","5c4ea7c3889752000156ddc5","false","false","Cup","https://kisumu-drawings.s3-us-west-1.amazonaws.com/51-010.png","6","Cup","51-010.png"
"","1745","image-button-response","45","null","1521408","685c6ca90f751d3aae6b1794","685c6e3ecf79710635ea54ae","5c4ea7c3889752000156ddc5","false","false","Airplane","https://kisumu-drawings.s3-us-west-1.amazonaws.com/54-008.png","11","Watch","54-008.png"
"","1692","image-button-response","46","null","1523604","685c6ca90f751d3aae6b1794","685c6e3ecf79710635ea54ae","5c4ea7c3889752000156ddc5","false","false","House","https://kisumu-drawings.s3-us-west-1.amazonaws.com/93-010.png","8","House","93-010.png"
"","1430","image-button-response","47","null","1525539","685c6ca90f751d3aae6b1794","685c6e3ecf79710635ea54ae","5c4ea7c3889752000156ddc5","false","false","Watch","https://kisumu-drawings.s3-us-west-1.amazonaws.com/6-015.png","10","Tree","6-015.png"
"","2725","image-button-response","48","null","1528770","685c6ca90f751d3aae6b1794","685c6e3ecf79710635ea54ae","5c4ea7c3889752000156ddc5","false","false","Bird","https://kisumu-drawings.s3-us-west-1.amazonaws.com/109-013.png","2","Bird","109-013.png"
"","1677","image-button-response","49","null","1530954","685c6ca90f751d3aae6b1794","685c6e3ecf79710635ea54ae","5c4ea7c3889752000156ddc5","false","false","Tree","https://kisumu-drawings.s3-us-west-1.amazonaws.com/107-010.png","2","Bird","107-010.png"
"","1647","image-button-response","50","null","1533114","685c6ca90f751d3aae6b1794","685c6e3ecf79710635ea54ae","5c4ea7c3889752000156ddc5","false","false","Tree","https://kisumu-drawings.s3-us-west-1.amazonaws.com/26-016.png","10","Tree","26-016.png"
"","1657","image-button-response","51","null","1535283","685c6ca90f751d3aae6b1794","685c6e3ecf79710635ea54ae","5c4ea7c3889752000156ddc5","false","false","Rabbit","https://kisumu-drawings.s3-us-west-1.amazonaws.com/6-008.png","5","Chair","6-008.png"
"","1661","image-button-response","52","null","1537446","685c6ca90f751d3aae6b1794","685c6e3ecf79710635ea54ae","5c4ea7c3889752000156ddc5","false","false","Rabbit","https://kisumu-drawings.s3-us-west-1.amazonaws.com/50-008.png","4","Cat","50-008.png"
"","1464","image-button-response","53","null","1539424","685c6ca90f751d3aae6b1794","685c6e3ecf79710635ea54ae","5c4ea7c3889752000156ddc5","false","false","Watch","https://kisumu-drawings.s3-us-west-1.amazonaws.com/93-016.png","11","Watch","93-016.png"
"","1766","image-button-response","54","null","1541694","685c6ca90f751d3aae6b1794","685c6e3ecf79710635ea54ae","5c4ea7c3889752000156ddc5","false","false","Rabbit","https://kisumu-drawings.s3-us-west-1.amazonaws.com/107-005.png","4","Cat","107-005.png"
"","1330","image-button-response","55","null","1543530","685c6ca90f751d3aae6b1794","685c6e3ecf79710635ea54ae","5c4ea7c3889752000156ddc5","false","false","Bird","https://kisumu-drawings.s3-us-west-1.amazonaws.com/52-007.png","4","Cat","52-007.png"
"","8410","image-button-response","56","null","1552449","685c6ca90f751d3aae6b1794","685c6e3ecf79710635ea54ae","5c4ea7c3889752000156ddc5","false","false","Bird","https://kisumu-drawings.s3-us-west-1.amazonaws.com/95-008.png","2","Bird","95-008.png"
"","1646","image-button-response","57","null","1554605","685c6ca90f751d3aae6b1794","685c6e3ecf79710635ea54ae","5c4ea7c3889752000156ddc5","false","false","Airplane","https://kisumu-drawings.s3-us-west-1.amazonaws.com/71-012.png","10","Tree","71-012.png"
"","1629","image-button-response","58","null","1556746","685c6ca90f751d3aae6b1794","685c6e3ecf79710635ea54ae","5c4ea7c3889752000156ddc5","false","false","Rabbit","https://kisumu-drawings.s3-us-west-1.amazonaws.com/68-005.png","4","Cat","68-005.png"
"","1300","image-button-response","59","null","1558557","685c6ca90f751d3aae6b1794","685c6e3ecf79710635ea54ae","5c4ea7c3889752000156ddc5","false","false","Car","https://kisumu-drawings.s3-us-west-1.amazonaws.com/8-006.png","10","Tree","8-006.png"
"","3050","image-button-response","60","null","1562114","685c6ca90f751d3aae6b1794","685c6e3ecf79710635ea54ae","5c4ea7c3889752000156ddc5","false","false","Hat","https://kisumu-drawings.s3-us-west-1.amazonaws.com/108-006.png","8","House","108-006.png"
"","1144","image-button-response","61","null","1563760","685c6ca90f751d3aae6b1794","685c6e3ecf79710635ea54ae","5c4ea7c3889752000156ddc5","true","false","airplane","stimuli/catch_trials/0_airplane_catch.jpg","0","Airplane",""
"","1452","image-button-response","62","null","1565713","685c6ca90f751d3aae6b1794","685c6e3ecf79710635ea54ae","5c4ea7c3889752000156ddc5","false","false","Tree","https://kisumu-drawings.s3-us-west-1.amazonaws.com/68-015.png","10","Tree","68-015.png"
"","1860","image-button-response","63","null","1568074","685c6ca90f751d3aae6b1794","685c6e3ecf79710635ea54ae","5c4ea7c3889752000156ddc5","false","false","Airplane","https://kisumu-drawings.s3-us-west-1.amazonaws.com/10-013.png","5","Chair","10-013.png"
"","2076","image-button-response","64","null","1570657","685c6ca90f751d3aae6b1794","685c6e3ecf79710635ea54ae","5c4ea7c3889752000156ddc5","false","false","Bicycle","https://kisumu-drawings.s3-us-west-1.amazonaws.com/29-005.png","4","Cat","29-005.png"
"","1258","image-button-response","65","null","1572431","685c6ca90f751d3aae6b1794","685c6e3ecf79710635ea54ae","5c4ea7c3889752000156ddc5","false","false","Chair","https://kisumu-drawings.s3-us-west-1.amazonaws.com/109-010.png","5","Chair","109-010.png"
"","1820","image-button-response","66","null","1574767","685c6ca90f751d3aae6b1794","685c6e3ecf79710635ea54ae","5c4ea7c3889752000156ddc5","false","false","House","https://kisumu-drawings.s3-us-west-1.amazonaws.com/107-006.png","8","House","107-006.png"
"","1702","image-button-response","67","null","1576986","685c6ca90f751d3aae6b1794","685c6e3ecf79710635ea54ae","5c4ea7c3889752000156ddc5","false","false","Airplane","https://kisumu-drawings.s3-us-west-1.amazonaws.com/96-009.png","0","Airplane","96-009.png"
"","1158","image-button-response","68","null","1578650","685c6ca90f751d3aae6b1794","685c6e3ecf79710635ea54ae","5c4ea7c3889752000156ddc5","false","false","Tree","https://kisumu-drawings.s3-us-west-1.amazonaws.com/6-014.png","0","Airplane","6-014.png"
"","1302","image-button-response","69","null","1580457","685c6ca90f751d3aae6b1794","685c6e3ecf79710635ea54ae","5c4ea7c3889752000156ddc5","false","false","Cat","https://kisumu-drawings.s3-us-west-1.amazonaws.com/8-007.png","10","Tree","8-007.png"
"","1519","image-button-response","70","null","1582481","685c6ca90f751d3aae6b1794","685c6e3ecf79710635ea54ae","5c4ea7c3889752000156ddc5","false","false","Cat","https://kisumu-drawings.s3-us-west-1.amazonaws.com/108-015.png","4","Cat","108-015.png"
"","7252","image-button-response","71","null","1590246","685c6ca90f751d3aae6b1794","685c6e3ecf79710635ea54ae","5c4ea7c3889752000156ddc5","false","false","Car","https://kisumu-drawings.s3-us-west-1.amazonaws.com/69-016.png","3","Car","69-016.png"
"","1282","image-button-response","72","null","1592043","685c6ca90f751d3aae6b1794","685c6e3ecf79710635ea54ae","5c4ea7c3889752000156ddc5","false","false","Hat","https://kisumu-drawings.s3-us-west-1.amazonaws.com/27-015.png","4","Cat","27-015.png"
"","1717","image-button-response","73","null","1594262","685c6ca90f751d3aae6b1794","685c6e3ecf79710635ea54ae","5c4ea7c3889752000156ddc5","false","false","Cup","https://kisumu-drawings.s3-us-west-1.amazonaws.com/94-005.png","6","Cup","94-005.png"
"","1840","image-button-response","74","null","1596616","685c6ca90f751d3aae6b1794","685c6e3ecf79710635ea54ae","5c4ea7c3889752000156ddc5","false","false","Rabbit","https://kisumu-drawings.s3-us-west-1.amazonaws.com/93-012.png","4","Cat","93-012.png"
"","2018","image-button-response","75","null","1599144","685c6ca90f751d3aae6b1794","685c6e3ecf79710635ea54ae","5c4ea7c3889752000156ddc5","false","false","Chair","https://kisumu-drawings.s3-us-west-1.amazonaws.com/27-011.png","5","Chair","27-011.png"
