"view_history","rt","trial_type","trial_index","plugin_version","time_elapsed","study_id","session_id","participant_id","catch_trial","prep_trial","sketcher_category","stimulus","response","response_category","sketch_id"
"[{""page_index"":0,""viewing_time"":12429},{""page_index"":1,""viewing_time"":33630},{""page_index"":2,""viewing_time"":13723},{""page_index"":3,""viewing_time"":6903}]","66686","instructions","0","null","66692","685c6ca90f751d3aae6b1794","685c70953f98fccd6c42ad8d","5c508096f45b26000122f391","","","","","","",""
"","2747","image-button-response","1","null","70455","685c6ca90f751d3aae6b1794","685c70953f98fccd6c42ad8d","5c508096f45b26000122f391","false","true","car","stimuli/prep_trials/1_car_prep.png","3","Car",""
"","2236","image-button-response","2","null","73198","685c6ca90f751d3aae6b1794","685c70953f98fccd6c42ad8d","5c508096f45b26000122f391","false","true","cat","stimuli/prep_trials/0_cat_prep.jpg","4","Cat",""
"","7241","image-button-response","3","null","80942","685c6ca90f751d3aae6b1794","685c70953f98fccd6c42ad8d","5c508096f45b26000122f391","false","false","Tree","https://kisumu-drawings.s3-us-west-1.amazonaws.com/47-011.png","10","Tree","47-011.png"
"","9827","image-button-response","4","null","91275","685c6ca90f751d3aae6b1794","685c70953f98fccd6c42ad8d","5c508096f45b26000122f391","false","false","Tree","https://kisumu-drawings.s3-us-west-1.amazonaws.com/19-008.png","0","Airplane","19-008.png"
"","3060","image-button-response","5","null","94852","685c6ca90f751d3aae6b1794","685c70953f98fccd6c42ad8d","5c508096f45b26000122f391","false","false","House","https://kisumu-drawings.s3-us-west-1.amazonaws.com/88-010.png","8","House","88-010.png"
"","3603","image-button-response","6","null","98957","685c6ca90f751d3aae6b1794","685c70953f98fccd6c42ad8d","5c508096f45b26000122f391","false","false","House","https://kisumu-drawings.s3-us-west-1.amazonaws.com/61-008.png","8","House","61-008.png"
"","3961","image-button-response","7","null","103420","685c6ca90f751d3aae6b1794","685c70953f98fccd6c42ad8d","5c508096f45b26000122f391","false","false","Cup","https://kisumu-drawings.s3-us-west-1.amazonaws.com/101-010.png","6","Cup","101-010.png"
"","1737","image-button-response","8","null","105677","685c6ca90f751d3aae6b1794","685c70953f98fccd6c42ad8d","5c508096f45b26000122f391","false","false","Bicycle","https://kisumu-drawings.s3-us-west-1.amazonaws.com/55-006.png","1","Bicycle","55-006.png"
"","11865","image-button-response","9","null","118048","685c6ca90f751d3aae6b1794","685c70953f98fccd6c42ad8d","5c508096f45b26000122f391","false","false","Rabbit","https://kisumu-drawings.s3-us-west-1.amazonaws.com/40-016.png","2","Bird","40-016.png"
"","5480","image-button-response","10","null","124032","685c6ca90f751d3aae6b1794","685c70953f98fccd6c42ad8d","5c508096f45b26000122f391","false","false","Car","https://kisumu-drawings.s3-us-west-1.amazonaws.com/87-008.png","3","Car","87-008.png"
"","1653","image-button-response","11","null","126196","685c6ca90f751d3aae6b1794","685c70953f98fccd6c42ad8d","5c508096f45b26000122f391","false","false","House","https://kisumu-drawings.s3-us-west-1.amazonaws.com/21-010.png","8","House","21-010.png"
"","7570","image-button-response","12","null","134268","685c6ca90f751d3aae6b1794","685c70953f98fccd6c42ad8d","5c508096f45b26000122f391","false","false","Car","https://kisumu-drawings.s3-us-west-1.amazonaws.com/50-015.png","3","Car","50-015.png"
"","1665","image-button-response","13","null","136445","685c6ca90f751d3aae6b1794","685c70953f98fccd6c42ad8d","5c508096f45b26000122f391","false","false","Car","https://kisumu-drawings.s3-us-west-1.amazonaws.com/79-008.png","3","Car","79-008.png"
"","1273","image-button-response","14","null","138222","685c6ca90f751d3aae6b1794","685c70953f98fccd6c42ad8d","5c508096f45b26000122f391","false","false","Cat","https://kisumu-drawings.s3-us-west-1.amazonaws.com/28-008.png","4","Cat","28-008.png"
"","16275","image-button-response","15","null","155008","685c6ca90f751d3aae6b1794","685c70953f98fccd6c42ad8d","5c508096f45b26000122f391","false","false","House","https://kisumu-drawings.s3-us-west-1.amazonaws.com/1-009.png","2","Bird","1-009.png"
"","7969","image-button-response","16","null","163483","685c6ca90f751d3aae6b1794","685c70953f98fccd6c42ad8d","5c508096f45b26000122f391","false","false","Rabbit","https://kisumu-drawings.s3-us-west-1.amazonaws.com/119-008.png","9","Rabbit","119-008.png"
"","3037","image-button-response","17","null","167032","685c6ca90f751d3aae6b1794","685c70953f98fccd6c42ad8d","5c508096f45b26000122f391","false","false","Cup","https://kisumu-drawings.s3-us-west-1.amazonaws.com/88-012.png","6","Cup","88-012.png"
"","3036","image-button-response","18","null","170569","685c6ca90f751d3aae6b1794","685c70953f98fccd6c42ad8d","5c508096f45b26000122f391","false","false","Bicycle","https://kisumu-drawings.s3-us-west-1.amazonaws.com/69-014.png","3","Car","69-014.png"
"","1311","image-button-response","19","null","172384","685c6ca90f751d3aae6b1794","685c70953f98fccd6c42ad8d","5c508096f45b26000122f391","true","false","airplane","stimuli/catch_trials/0_airplane_catch.jpg","0","Airplane",""
"","1682","image-button-response","20","null","174577","685c6ca90f751d3aae6b1794","685c70953f98fccd6c42ad8d","5c508096f45b26000122f391","false","false","Cat","https://kisumu-drawings.s3-us-west-1.amazonaws.com/102-012.png","4","Cat","102-012.png"
"","2936","image-button-response","21","null","178030","685c6ca90f751d3aae6b1794","685c70953f98fccd6c42ad8d","5c508096f45b26000122f391","false","false","Tree","https://kisumu-drawings.s3-us-west-1.amazonaws.com/120-013.png","10","Tree","120-013.png"
"","7985","image-button-response","22","null","186520","685c6ca90f751d3aae6b1794","685c70953f98fccd6c42ad8d","5c508096f45b26000122f391","false","false","Cat","https://kisumu-drawings.s3-us-west-1.amazonaws.com/55-012.png","4","Cat","55-012.png"
"","3302","image-button-response","23","null","190328","685c6ca90f751d3aae6b1794","685c70953f98fccd6c42ad8d","5c508096f45b26000122f391","false","false","Airplane","https://kisumu-drawings.s3-us-west-1.amazonaws.com/37-008.png","11","Watch","37-008.png"
"","5923","image-button-response","24","null","196755","685c6ca90f751d3aae6b1794","685c70953f98fccd6c42ad8d","5c508096f45b26000122f391","false","false","Bird","https://kisumu-drawings.s3-us-west-1.amazonaws.com/74-006.png","3","Car","74-006.png"
"","1840","image-button-response","25","null","199102","685c6ca90f751d3aae6b1794","685c70953f98fccd6c42ad8d","5c508096f45b26000122f391","false","false","Tree","https://kisumu-drawings.s3-us-west-1.amazonaws.com/79-006.png","10","Tree","79-006.png"
"","2931","image-button-response","26","null","202549","685c6ca90f751d3aae6b1794","685c70953f98fccd6c42ad8d","5c508096f45b26000122f391","false","false","Hat","https://kisumu-drawings.s3-us-west-1.amazonaws.com/101-008.png","7","Hat","101-008.png"
"","3510","image-button-response","27","null","206575","685c6ca90f751d3aae6b1794","685c70953f98fccd6c42ad8d","5c508096f45b26000122f391","false","false","Watch","https://kisumu-drawings.s3-us-west-1.amazonaws.com/39-014.png","9","Rabbit","39-014.png"
"","4117","image-button-response","28","null","211199","685c6ca90f751d3aae6b1794","685c70953f98fccd6c42ad8d","5c508096f45b26000122f391","false","false","Hat","https://kisumu-drawings.s3-us-west-1.amazonaws.com/21-008.png","6","Cup","21-008.png"
"","2410","image-button-response","29","null","214122","685c6ca90f751d3aae6b1794","685c70953f98fccd6c42ad8d","5c508096f45b26000122f391","false","false","Car","https://kisumu-drawings.s3-us-west-1.amazonaws.com/6-010.png","6","Cup","6-010.png"
"","28935","image-button-response","30","null","243563","685c6ca90f751d3aae6b1794","685c70953f98fccd6c42ad8d","5c508096f45b26000122f391","false","false","Bird","https://kisumu-drawings.s3-us-west-1.amazonaws.com/7-010.png","10","Tree","7-010.png"
"","1366","image-button-response","31","null","245446","685c6ca90f751d3aae6b1794","685c70953f98fccd6c42ad8d","5c508096f45b26000122f391","false","false","Tree","https://kisumu-drawings.s3-us-west-1.amazonaws.com/86-012.png","10","Tree","86-012.png"
"","1413","image-button-response","32","null","247367","685c6ca90f751d3aae6b1794","685c70953f98fccd6c42ad8d","5c508096f45b26000122f391","false","false","Bird","https://kisumu-drawings.s3-us-west-1.amazonaws.com/97-007.png","6","Cup","97-007.png"
"","2108","image-button-response","33","null","249991","685c6ca90f751d3aae6b1794","685c70953f98fccd6c42ad8d","5c508096f45b26000122f391","false","false","Cup","https://kisumu-drawings.s3-us-west-1.amazonaws.com/21-007.png","6","Cup","21-007.png"
"","3850","image-button-response","34","null","254343","685c6ca90f751d3aae6b1794","685c70953f98fccd6c42ad8d","5c508096f45b26000122f391","false","false","Watch","https://kisumu-drawings.s3-us-west-1.amazonaws.com/46-011.png","11","Watch","46-011.png"
"","1914","image-button-response","35","null","256763","685c6ca90f751d3aae6b1794","685c70953f98fccd6c42ad8d","5c508096f45b26000122f391","false","false","Cat","https://kisumu-drawings.s3-us-west-1.amazonaws.com/90-013.png","4","Cat","90-013.png"
"","1958","image-button-response","36","null","259235","685c6ca90f751d3aae6b1794","685c70953f98fccd6c42ad8d","5c508096f45b26000122f391","false","false","House","https://kisumu-drawings.s3-us-west-1.amazonaws.com/49-007.png","8","House","49-007.png"
"","1876","image-button-response","37","null","261623","685c6ca90f751d3aae6b1794","685c70953f98fccd6c42ad8d","5c508096f45b26000122f391","false","false","Cat","https://kisumu-drawings.s3-us-west-1.amazonaws.com/6-011.png","8","House","6-011.png"
"","1543","image-button-response","38","null","263682","685c6ca90f751d3aae6b1794","685c70953f98fccd6c42ad8d","5c508096f45b26000122f391","false","false","Chair","https://kisumu-drawings.s3-us-west-1.amazonaws.com/15-009.png","8","House","15-009.png"
"","2381","image-button-response","39","null","266565","685c6ca90f751d3aae6b1794","685c70953f98fccd6c42ad8d","5c508096f45b26000122f391","false","false","Bicycle","https://kisumu-drawings.s3-us-west-1.amazonaws.com/12-007.png","1","Bicycle","12-007.png"
"","4667","image-button-response","40","null","271735","685c6ca90f751d3aae6b1794","685c70953f98fccd6c42ad8d","5c508096f45b26000122f391","false","false","Bicycle","https://kisumu-drawings.s3-us-west-1.amazonaws.com/86-010.png","1","Bicycle","86-010.png"
"","16382","image-button-response","41","null","288631","685c6ca90f751d3aae6b1794","685c70953f98fccd6c42ad8d","5c508096f45b26000122f391","false","false","Airplane","https://kisumu-drawings.s3-us-west-1.amazonaws.com/53-009.png","2","Bird","53-009.png"
"","2144","image-button-response","42","null","291290","685c6ca90f751d3aae6b1794","685c70953f98fccd6c42ad8d","5c508096f45b26000122f391","false","false","Tree","https://kisumu-drawings.s3-us-west-1.amazonaws.com/40-014.png","10","Tree","40-014.png"
"","2216","image-button-response","43","null","294022","685c6ca90f751d3aae6b1794","685c70953f98fccd6c42ad8d","5c508096f45b26000122f391","false","false","Watch","https://kisumu-drawings.s3-us-west-1.amazonaws.com/18-008.png","6","Cup","18-008.png"
"","1159","image-button-response","44","null","295684","685c6ca90f751d3aae6b1794","685c70953f98fccd6c42ad8d","5c508096f45b26000122f391","false","false","Hat","https://kisumu-drawings.s3-us-west-1.amazonaws.com/88-011.png","6","Cup","88-011.png"
"","1139","image-button-response","45","null","297336","685c6ca90f751d3aae6b1794","685c70953f98fccd6c42ad8d","5c508096f45b26000122f391","false","false","Cup","https://kisumu-drawings.s3-us-west-1.amazonaws.com/5-012.png","6","Cup","5-012.png"
"","1883","image-button-response","46","null","299734","685c6ca90f751d3aae6b1794","685c70953f98fccd6c42ad8d","5c508096f45b26000122f391","false","false","Airplane","https://kisumu-drawings.s3-us-west-1.amazonaws.com/75-010.png","0","Airplane","75-010.png"
"","1377","image-button-response","47","null","301613","685c6ca90f751d3aae6b1794","685c70953f98fccd6c42ad8d","5c508096f45b26000122f391","false","false","Cup","https://kisumu-drawings.s3-us-west-1.amazonaws.com/61-016.png","6","Cup","61-016.png"
"","2424","image-button-response","48","null","304542","685c6ca90f751d3aae6b1794","685c70953f98fccd6c42ad8d","5c508096f45b26000122f391","false","false","Bird","https://kisumu-drawings.s3-us-west-1.amazonaws.com/57-012.png","2","Bird","57-012.png"
"","2794","image-button-response","49","null","307839","685c6ca90f751d3aae6b1794","685c70953f98fccd6c42ad8d","5c508096f45b26000122f391","false","false","Watch","https://kisumu-drawings.s3-us-west-1.amazonaws.com/83-005.png","11","Watch","83-005.png"
"","2062","image-button-response","50","null","310416","685c6ca90f751d3aae6b1794","685c70953f98fccd6c42ad8d","5c508096f45b26000122f391","false","false","Airplane","https://kisumu-drawings.s3-us-west-1.amazonaws.com/104-006.png","0","Airplane","104-006.png"
"","2505","image-button-response","51","null","313423","685c6ca90f751d3aae6b1794","685c70953f98fccd6c42ad8d","5c508096f45b26000122f391","false","false","Chair","https://kisumu-drawings.s3-us-west-1.amazonaws.com/80-013.png","5","Chair","80-013.png"
"","8310","image-button-response","52","null","322242","685c6ca90f751d3aae6b1794","685c70953f98fccd6c42ad8d","5c508096f45b26000122f391","false","false","Hat","https://kisumu-drawings.s3-us-west-1.amazonaws.com/49-006.png","7","Hat","49-006.png"
"","3926","image-button-response","53","null","326678","685c6ca90f751d3aae6b1794","685c70953f98fccd6c42ad8d","5c508096f45b26000122f391","false","false","Airplane","https://kisumu-drawings.s3-us-west-1.amazonaws.com/17-005.png","0","Airplane","17-005.png"
"","3706","image-button-response","54","null","330899","685c6ca90f751d3aae6b1794","685c70953f98fccd6c42ad8d","5c508096f45b26000122f391","false","false","Bicycle","https://kisumu-drawings.s3-us-west-1.amazonaws.com/31-006.png","1","Bicycle","31-006.png"
"","6811","image-button-response","55","null","338224","685c6ca90f751d3aae6b1794","685c70953f98fccd6c42ad8d","5c508096f45b26000122f391","false","false","Rabbit","https://kisumu-drawings.s3-us-west-1.amazonaws.com/1-010.png","5","Chair","1-010.png"
"","6790","image-button-response","56","null","345529","685c6ca90f751d3aae6b1794","685c70953f98fccd6c42ad8d","5c508096f45b26000122f391","false","false","Bird","https://kisumu-drawings.s3-us-west-1.amazonaws.com/37-006.png","0","Airplane","37-006.png"
"","4840","image-button-response","57","null","350879","685c6ca90f751d3aae6b1794","685c70953f98fccd6c42ad8d","5c508096f45b26000122f391","false","false","Rabbit","https://kisumu-drawings.s3-us-west-1.amazonaws.com/87-013.png","9","Rabbit","87-013.png"
"","2000","image-button-response","58","null","353390","685c6ca90f751d3aae6b1794","685c70953f98fccd6c42ad8d","5c508096f45b26000122f391","false","false","Bicycle","https://kisumu-drawings.s3-us-west-1.amazonaws.com/105-006.png","1","Bicycle","105-006.png"
"","7808","image-button-response","59","null","361702","685c6ca90f751d3aae6b1794","685c70953f98fccd6c42ad8d","5c508096f45b26000122f391","false","false","Hat","https://kisumu-drawings.s3-us-west-1.amazonaws.com/1-016.png","6","Cup","1-016.png"
"","2385","image-button-response","60","null","364603","685c6ca90f751d3aae6b1794","685c70953f98fccd6c42ad8d","5c508096f45b26000122f391","false","false","Chair","https://kisumu-drawings.s3-us-west-1.amazonaws.com/32-013.png","4","Cat","32-013.png"
"","2319","image-button-response","61","null","367424","685c6ca90f751d3aae6b1794","685c70953f98fccd6c42ad8d","5c508096f45b26000122f391","false","false","Watch","https://kisumu-drawings.s3-us-west-1.amazonaws.com/78-014.png","11","Watch","78-014.png"
"","4125","image-button-response","62","null","372054","685c6ca90f751d3aae6b1794","685c70953f98fccd6c42ad8d","5c508096f45b26000122f391","false","false","Rabbit","https://kisumu-drawings.s3-us-west-1.amazonaws.com/48-014.png","5","Chair","48-014.png"
"","2588","image-button-response","63","null","375143","685c6ca90f751d3aae6b1794","685c70953f98fccd6c42ad8d","5c508096f45b26000122f391","false","false","Chair","https://kisumu-drawings.s3-us-west-1.amazonaws.com/49-005.png","8","House","49-005.png"
"","1776","image-button-response","64","null","377425","685c6ca90f751d3aae6b1794","685c70953f98fccd6c42ad8d","5c508096f45b26000122f391","false","false","Hat","https://kisumu-drawings.s3-us-west-1.amazonaws.com/61-007.png","7","Hat","61-007.png"
"","2141","image-button-response","65","null","380072","685c6ca90f751d3aae6b1794","685c70953f98fccd6c42ad8d","5c508096f45b26000122f391","false","false","Cat","https://kisumu-drawings.s3-us-west-1.amazonaws.com/70-012.png","4","Cat","70-012.png"
"","4522","image-button-response","66","null","385099","685c6ca90f751d3aae6b1794","685c70953f98fccd6c42ad8d","5c508096f45b26000122f391","false","false","Rabbit","https://kisumu-drawings.s3-us-west-1.amazonaws.com/61-009.png","9","Rabbit","61-009.png"
"","2901","image-button-response","67","null","388516","685c6ca90f751d3aae6b1794","685c70953f98fccd6c42ad8d","5c508096f45b26000122f391","false","false","Chair","https://kisumu-drawings.s3-us-west-1.amazonaws.com/111-005.png","5","Chair","111-005.png"
"","2915","image-button-response","68","null","391933","685c6ca90f751d3aae6b1794","685c70953f98fccd6c42ad8d","5c508096f45b26000122f391","false","false","Car","https://kisumu-drawings.s3-us-west-1.amazonaws.com/103-016.png","3","Car","103-016.png"
"","2528","image-button-response","69","null","394971","685c6ca90f751d3aae6b1794","685c70953f98fccd6c42ad8d","5c508096f45b26000122f391","false","false","House","https://kisumu-drawings.s3-us-west-1.amazonaws.com/101-005.png","8","House","101-005.png"
"","2764","image-button-response","70","null","398242","685c6ca90f751d3aae6b1794","685c70953f98fccd6c42ad8d","5c508096f45b26000122f391","false","false","Car","https://kisumu-drawings.s3-us-west-1.amazonaws.com/34-015.png","3","Car","34-015.png"
"","3676","image-button-response","71","null","402435","685c6ca90f751d3aae6b1794","685c70953f98fccd6c42ad8d","5c508096f45b26000122f391","false","false","Bird","https://kisumu-drawings.s3-us-west-1.amazonaws.com/109-013.png","2","Bird","109-013.png"
"","3728","image-button-response","72","null","406673","685c6ca90f751d3aae6b1794","685c70953f98fccd6c42ad8d","5c508096f45b26000122f391","false","false","Chair","https://kisumu-drawings.s3-us-west-1.amazonaws.com/92-009.png","5","Chair","92-009.png"
"","7262","image-button-response","73","null","414446","685c6ca90f751d3aae6b1794","685c70953f98fccd6c42ad8d","5c508096f45b26000122f391","false","false","Cup","https://kisumu-drawings.s3-us-west-1.amazonaws.com/49-013.png","6","Cup","49-013.png"
"","2159","image-button-response","74","null","417121","685c6ca90f751d3aae6b1794","685c70953f98fccd6c42ad8d","5c508096f45b26000122f391","false","false","Airplane","https://kisumu-drawings.s3-us-west-1.amazonaws.com/91-016.png","0","Airplane","91-016.png"
"","1683","image-button-response","75","null","419314","685c6ca90f751d3aae6b1794","685c70953f98fccd6c42ad8d","5c508096f45b26000122f391","false","false","Watch","https://kisumu-drawings.s3-us-west-1.amazonaws.com/117-007.png","11","Watch","117-007.png"
