"view_history","rt","trial_type","trial_index","plugin_version","time_elapsed","study_id","session_id","participant_id","catch_trial","prep_trial","sketcher_category","stimulus","response","response_category","sketch_id"
"[{""page_index"":0,""viewing_time"":10172},{""page_index"":1,""viewing_time"":2303},{""page_index"":2,""viewing_time"":3000},{""page_index"":3,""viewing_time"":6616}]","22091","instructions","0","null","22105","685c6ca90f751d3aae6b1794","685c6e33a8d5085b911cc320","5d0eecdd348afe00015865aa","","","","","","",""
"","2969","image-button-response","1","null","26083","685c6ca90f751d3aae6b1794","685c6e33a8d5085b911cc320","5d0eecdd348afe00015865aa","false","true","car","stimuli/prep_trials/1_car_prep.png","3","Car",""
"","2910","image-button-response","2","null","29497","685c6ca90f751d3aae6b1794","685c6e33a8d5085b911cc320","5d0eecdd348afe00015865aa","false","true","cat","stimuli/prep_trials/0_cat_prep.jpg","4","Cat",""
"","6336","image-button-response","3","null","36337","685c6ca90f751d3aae6b1794","685c6e33a8d5085b911cc320","5d0eecdd348afe00015865aa","false","false","Hat","https://kisumu-drawings.s3-us-west-1.amazonaws.com/95-005.png","7","Hat","95-005.png"
"","4591","image-button-response","4","null","41432","685c6ca90f751d3aae6b1794","685c6e33a8d5085b911cc320","5d0eecdd348afe00015865aa","false","false","Cup","https://kisumu-drawings.s3-us-west-1.amazonaws.com/52-008.png","6","Cup","52-008.png"
"","3025","image-button-response","5","null","44961","685c6ca90f751d3aae6b1794","685c6e33a8d5085b911cc320","5d0eecdd348afe00015865aa","false","false","Hat","https://kisumu-drawings.s3-us-west-1.amazonaws.com/52-009.png","7","Hat","52-009.png"
"","4440","image-button-response","6","null","49905","685c6ca90f751d3aae6b1794","685c6e33a8d5085b911cc320","5d0eecdd348afe00015865aa","false","false","Tree","https://kisumu-drawings.s3-us-west-1.amazonaws.com/28-015.png","2","Bird","28-015.png"
"","4024","image-button-response","7","null","54432","685c6ca90f751d3aae6b1794","685c6e33a8d5085b911cc320","5d0eecdd348afe00015865aa","false","false","Tree","https://kisumu-drawings.s3-us-west-1.amazonaws.com/109-009.png","10","Tree","109-009.png"
"","7016","image-button-response","8","null","61953","685c6ca90f751d3aae6b1794","685c6e33a8d5085b911cc320","5d0eecdd348afe00015865aa","false","false","Cat","https://kisumu-drawings.s3-us-west-1.amazonaws.com/94-009.png","4","Cat","94-009.png"
"","4175","image-button-response","9","null","66633","685c6ca90f751d3aae6b1794","685c6e33a8d5085b911cc320","5d0eecdd348afe00015865aa","false","false","Hat","https://kisumu-drawings.s3-us-west-1.amazonaws.com/109-011.png","7","Hat","109-011.png"
"","4657","image-button-response","10","null","71792","685c6ca90f751d3aae6b1794","685c6e33a8d5085b911cc320","5d0eecdd348afe00015865aa","false","false","Rabbit","https://kisumu-drawings.s3-us-west-1.amazonaws.com/63-010.png","5","Chair","63-010.png"
"","2392","image-button-response","11","null","74689","685c6ca90f751d3aae6b1794","685c6e33a8d5085b911cc320","5d0eecdd348afe00015865aa","true","false","airplane","stimuli/catch_trials/0_airplane_catch.jpg","0","Airplane",""
"","8201","image-button-response","12","null","83393","685c6ca90f751d3aae6b1794","685c6e33a8d5085b911cc320","5d0eecdd348afe00015865aa","false","false","Airplane","https://kisumu-drawings.s3-us-west-1.amazonaws.com/28-006.png","2","Bird","28-006.png"
"","2647","image-button-response","13","null","86545","685c6ca90f751d3aae6b1794","685c6e33a8d5085b911cc320","5d0eecdd348afe00015865aa","false","false","Cup","https://kisumu-drawings.s3-us-west-1.amazonaws.com/94-005.png","6","Cup","94-005.png"
"","4728","image-button-response","14","null","91776","685c6ca90f751d3aae6b1794","685c6e33a8d5085b911cc320","5d0eecdd348afe00015865aa","false","false","Airplane","https://kisumu-drawings.s3-us-west-1.amazonaws.com/95-009.png","3","Car","95-009.png"
"","2674","image-button-response","15","null","94952","685c6ca90f751d3aae6b1794","685c6e33a8d5085b911cc320","5d0eecdd348afe00015865aa","false","false","House","https://kisumu-drawings.s3-us-west-1.amazonaws.com/51-005.png","8","House","51-005.png"
"","4346","image-button-response","16","null","99800","685c6ca90f751d3aae6b1794","685c6e33a8d5085b911cc320","5d0eecdd348afe00015865aa","false","false","Chair","https://kisumu-drawings.s3-us-west-1.amazonaws.com/109-010.png","5","Chair","109-010.png"
"","3570","image-button-response","17","null","103872","685c6ca90f751d3aae6b1794","685c6e33a8d5085b911cc320","5d0eecdd348afe00015865aa","false","false","Bird","https://kisumu-drawings.s3-us-west-1.amazonaws.com/51-008.png","0","Airplane","51-008.png"
"","5209","image-button-response","18","null","109584","685c6ca90f751d3aae6b1794","685c6e33a8d5085b911cc320","5d0eecdd348afe00015865aa","false","false","Bird","https://kisumu-drawings.s3-us-west-1.amazonaws.com/69-015.png","2","Bird","69-015.png"
"","4002","image-button-response","19","null","114088","685c6ca90f751d3aae6b1794","685c6e33a8d5085b911cc320","5d0eecdd348afe00015865aa","false","false","Airplane","https://kisumu-drawings.s3-us-west-1.amazonaws.com/109-015.png","3","Car","109-015.png"
"","4337","image-button-response","20","null","118928","685c6ca90f751d3aae6b1794","685c6e33a8d5085b911cc320","5d0eecdd348afe00015865aa","false","false","Chair","https://kisumu-drawings.s3-us-west-1.amazonaws.com/52-016.png","5","Chair","52-016.png"
"","2673","image-button-response","21","null","122104","685c6ca90f751d3aae6b1794","685c6e33a8d5085b911cc320","5d0eecdd348afe00015865aa","false","false","Cat","https://kisumu-drawings.s3-us-west-1.amazonaws.com/52-014.png","4","Cat","52-014.png"
"","4265","image-button-response","22","null","126873","685c6ca90f751d3aae6b1794","685c6e33a8d5085b911cc320","5d0eecdd348afe00015865aa","false","false","Cat","https://kisumu-drawings.s3-us-west-1.amazonaws.com/69-005.png","4","Cat","69-005.png"
"","7289","image-button-response","23","null","134664","685c6ca90f751d3aae6b1794","685c6e33a8d5085b911cc320","5d0eecdd348afe00015865aa","false","false","Tree","https://kisumu-drawings.s3-us-west-1.amazonaws.com/8-014.png","2","Bird","8-014.png"
"","3256","image-button-response","24","null","138424","685c6ca90f751d3aae6b1794","685c6e33a8d5085b911cc320","5d0eecdd348afe00015865aa","false","false","Car","https://kisumu-drawings.s3-us-west-1.amazonaws.com/109-014.png","3","Car","109-014.png"
"","4481","image-button-response","25","null","143408","685c6ca90f751d3aae6b1794","685c6e33a8d5085b911cc320","5d0eecdd348afe00015865aa","false","false","Bicycle","https://kisumu-drawings.s3-us-west-1.amazonaws.com/52-005.png","9","Rabbit","52-005.png"
"","6073","image-button-response","26","null","149984","685c6ca90f751d3aae6b1794","685c6e33a8d5085b911cc320","5d0eecdd348afe00015865aa","false","false","Car","https://kisumu-drawings.s3-us-west-1.amazonaws.com/52-006.png","3","Car","52-006.png"
"","4089","image-button-response","27","null","154576","685c6ca90f751d3aae6b1794","685c6e33a8d5085b911cc320","5d0eecdd348afe00015865aa","false","false","House","https://kisumu-drawings.s3-us-west-1.amazonaws.com/63-006.png","8","House","63-006.png"
"","11842","image-button-response","28","null","166920","685c6ca90f751d3aae6b1794","685c6e33a8d5085b911cc320","5d0eecdd348afe00015865aa","false","false","Airplane","https://kisumu-drawings.s3-us-west-1.amazonaws.com/52-015.png","0","Airplane","52-015.png"
"","4161","image-button-response","29","null","171584","685c6ca90f751d3aae6b1794","685c6e33a8d5085b911cc320","5d0eecdd348afe00015865aa","false","false","Tree","https://kisumu-drawings.s3-us-west-1.amazonaws.com/95-014.png","10","Tree","95-014.png"
"","2858","image-button-response","30","null","174944","685c6ca90f751d3aae6b1794","685c6e33a8d5085b911cc320","5d0eecdd348afe00015865aa","false","false","Hat","https://kisumu-drawings.s3-us-west-1.amazonaws.com/27-015.png","6","Cup","27-015.png"
"","3170","image-button-response","31","null","178616","685c6ca90f751d3aae6b1794","685c6e33a8d5085b911cc320","5d0eecdd348afe00015865aa","false","false","Rabbit","https://kisumu-drawings.s3-us-west-1.amazonaws.com/109-008.png","4","Cat","109-008.png"
"","2497","image-button-response","32","null","181616","685c6ca90f751d3aae6b1794","685c6e33a8d5085b911cc320","5d0eecdd348afe00015865aa","false","false","Cat","https://kisumu-drawings.s3-us-west-1.amazonaws.com/109-005.png","4","Cat","109-005.png"
"","4530","image-button-response","33","null","186649","685c6ca90f751d3aae6b1794","685c6e33a8d5085b911cc320","5d0eecdd348afe00015865aa","false","false","Bird","https://kisumu-drawings.s3-us-west-1.amazonaws.com/8-005.png","1","Bicycle","8-005.png"
"","2529","image-button-response","34","null","189680","685c6ca90f751d3aae6b1794","685c6e33a8d5085b911cc320","5d0eecdd348afe00015865aa","false","false","Bicycle","https://kisumu-drawings.s3-us-west-1.amazonaws.com/69-014.png","3","Car","69-014.png"
"","2194","image-button-response","35","null","192376","685c6ca90f751d3aae6b1794","685c6e33a8d5085b911cc320","5d0eecdd348afe00015865aa","false","false","Cup","https://kisumu-drawings.s3-us-west-1.amazonaws.com/69-007.png","6","Cup","69-007.png"
"","2769","image-button-response","36","null","195648","685c6ca90f751d3aae6b1794","685c6e33a8d5085b911cc320","5d0eecdd348afe00015865aa","false","false","Watch","https://kisumu-drawings.s3-us-west-1.amazonaws.com/52-013.png","11","Watch","52-013.png"
"","2802","image-button-response","37","null","198952","685c6ca90f751d3aae6b1794","685c6e33a8d5085b911cc320","5d0eecdd348afe00015865aa","false","false","Car","https://kisumu-drawings.s3-us-west-1.amazonaws.com/8-006.png","4","Cat","8-006.png"
"","2273","image-button-response","38","null","201728","685c6ca90f751d3aae6b1794","685c6e33a8d5085b911cc320","5d0eecdd348afe00015865aa","false","false","Bird","https://kisumu-drawings.s3-us-west-1.amazonaws.com/27-007.png","0","Airplane","27-007.png"
"","1730","image-button-response","39","null","203960","685c6ca90f751d3aae6b1794","685c6e33a8d5085b911cc320","5d0eecdd348afe00015865aa","false","false","Watch","https://kisumu-drawings.s3-us-west-1.amazonaws.com/63-005.png","0","Airplane","63-005.png"
"","2922","image-button-response","40","null","207384","685c6ca90f751d3aae6b1794","685c6e33a8d5085b911cc320","5d0eecdd348afe00015865aa","false","false","Chair","https://kisumu-drawings.s3-us-west-1.amazonaws.com/95-012.png","8","House","95-012.png"
"","2173","image-button-response","41","null","210073","685c6ca90f751d3aae6b1794","685c6e33a8d5085b911cc320","5d0eecdd348afe00015865aa","false","false","Cup","https://kisumu-drawings.s3-us-west-1.amazonaws.com/108-005.png","6","Cup","108-005.png"
"","1730","image-button-response","42","null","212305","685c6ca90f751d3aae6b1794","685c6e33a8d5085b911cc320","5d0eecdd348afe00015865aa","false","false","Chair","https://kisumu-drawings.s3-us-west-1.amazonaws.com/8-008.png","6","Cup","8-008.png"
"","2177","image-button-response","43","null","214984","685c6ca90f751d3aae6b1794","685c6e33a8d5085b911cc320","5d0eecdd348afe00015865aa","false","false","Airplane","https://kisumu-drawings.s3-us-west-1.amazonaws.com/69-013.png","0","Airplane","69-013.png"
"","2497","image-button-response","44","null","217985","685c6ca90f751d3aae6b1794","685c6e33a8d5085b911cc320","5d0eecdd348afe00015865aa","false","false","House","https://kisumu-drawings.s3-us-west-1.amazonaws.com/109-012.png","8","House","109-012.png"
"","2537","image-button-response","45","null","221024","685c6ca90f751d3aae6b1794","685c6e33a8d5085b911cc320","5d0eecdd348afe00015865aa","false","false","Bicycle","https://kisumu-drawings.s3-us-west-1.amazonaws.com/28-005.png","0","Airplane","28-005.png"
"","2161","image-button-response","46","null","223689","685c6ca90f751d3aae6b1794","685c6e33a8d5085b911cc320","5d0eecdd348afe00015865aa","false","false","Rabbit","https://kisumu-drawings.s3-us-west-1.amazonaws.com/8-013.png","0","Airplane","8-013.png"
"","2585","image-button-response","47","null","226776","685c6ca90f751d3aae6b1794","685c6e33a8d5085b911cc320","5d0eecdd348afe00015865aa","false","false","Watch","https://kisumu-drawings.s3-us-west-1.amazonaws.com/94-006.png","11","Watch","94-006.png"
"","2233","image-button-response","48","null","229512","685c6ca90f751d3aae6b1794","685c6e33a8d5085b911cc320","5d0eecdd348afe00015865aa","false","false","Cat","https://kisumu-drawings.s3-us-west-1.amazonaws.com/8-007.png","11","Watch","8-007.png"
"","1993","image-button-response","49","null","232008","685c6ca90f751d3aae6b1794","685c6e33a8d5085b911cc320","5d0eecdd348afe00015865aa","false","false","Watch","https://kisumu-drawings.s3-us-west-1.amazonaws.com/28-014.png","11","Watch","28-014.png"
"","2650","image-button-response","50","null","235161","685c6ca90f751d3aae6b1794","685c6e33a8d5085b911cc320","5d0eecdd348afe00015865aa","false","false","Rabbit","https://kisumu-drawings.s3-us-west-1.amazonaws.com/51-012.png","4","Cat","51-012.png"
"","2776","image-button-response","51","null","238440","685c6ca90f751d3aae6b1794","685c6e33a8d5085b911cc320","5d0eecdd348afe00015865aa","false","false","Car","https://kisumu-drawings.s3-us-west-1.amazonaws.com/95-007.png","3","Car","95-007.png"
"","2754","image-button-response","52","null","241697","685c6ca90f751d3aae6b1794","685c6e33a8d5085b911cc320","5d0eecdd348afe00015865aa","false","false","Watch","https://kisumu-drawings.s3-us-west-1.amazonaws.com/109-006.png","11","Watch","109-006.png"
"","3761","image-button-response","53","null","245960","685c6ca90f751d3aae6b1794","685c6e33a8d5085b911cc320","5d0eecdd348afe00015865aa","false","false","Watch","https://kisumu-drawings.s3-us-west-1.amazonaws.com/8-009.png","9","Rabbit","8-009.png"
"","2169","image-button-response","54","null","248632","685c6ca90f751d3aae6b1794","685c6e33a8d5085b911cc320","5d0eecdd348afe00015865aa","false","false","Rabbit","https://kisumu-drawings.s3-us-west-1.amazonaws.com/94-008.png","9","Rabbit","94-008.png"
"","3633","image-button-response","55","null","252768","685c6ca90f751d3aae6b1794","685c6e33a8d5085b911cc320","5d0eecdd348afe00015865aa","false","false","Tree","https://kisumu-drawings.s3-us-west-1.amazonaws.com/51-013.png","10","Tree","51-013.png"
"","2185","image-button-response","56","null","255456","685c6ca90f751d3aae6b1794","685c6e33a8d5085b911cc320","5d0eecdd348afe00015865aa","false","false","Car","https://kisumu-drawings.s3-us-west-1.amazonaws.com/69-016.png","3","Car","69-016.png"
"","1985","image-button-response","57","null","257944","685c6ca90f751d3aae6b1794","685c6e33a8d5085b911cc320","5d0eecdd348afe00015865aa","false","false","Rabbit","https://kisumu-drawings.s3-us-west-1.amazonaws.com/28-013.png","4","Cat","28-013.png"
"","3066","image-button-response","58","null","261513","685c6ca90f751d3aae6b1794","685c6e33a8d5085b911cc320","5d0eecdd348afe00015865aa","false","false","House","https://kisumu-drawings.s3-us-west-1.amazonaws.com/95-006.png","8","House","95-006.png"
"","1889","image-button-response","59","null","263904","685c6ca90f751d3aae6b1794","685c6e33a8d5085b911cc320","5d0eecdd348afe00015865aa","false","false","Cup","https://kisumu-drawings.s3-us-west-1.amazonaws.com/7-012.png","6","Cup","7-012.png"
"","2473","image-button-response","60","null","266881","685c6ca90f751d3aae6b1794","685c6e33a8d5085b911cc320","5d0eecdd348afe00015865aa","false","false","Tree","https://kisumu-drawings.s3-us-west-1.amazonaws.com/69-011.png","10","Tree","69-011.png"
"","2753","image-button-response","61","null","270136","685c6ca90f751d3aae6b1794","685c6e33a8d5085b911cc320","5d0eecdd348afe00015865aa","false","false","Bird","https://kisumu-drawings.s3-us-west-1.amazonaws.com/109-013.png","2","Bird","109-013.png"
"","3009","image-button-response","62","null","273648","685c6ca90f751d3aae6b1794","685c6e33a8d5085b911cc320","5d0eecdd348afe00015865aa","false","false","Bicycle","https://kisumu-drawings.s3-us-west-1.amazonaws.com/109-016.png","1","Bicycle","109-016.png"
"","3297","image-button-response","63","null","277448","685c6ca90f751d3aae6b1794","685c6e33a8d5085b911cc320","5d0eecdd348afe00015865aa","false","false","Chair","https://kisumu-drawings.s3-us-west-1.amazonaws.com/69-006.png","5","Chair","69-006.png"
"","2178","image-button-response","64","null","280129","685c6ca90f751d3aae6b1794","685c6e33a8d5085b911cc320","5d0eecdd348afe00015865aa","false","false","House","https://kisumu-drawings.s3-us-west-1.amazonaws.com/28-012.png","8","House","28-012.png"
"","3313","image-button-response","65","null","283944","685c6ca90f751d3aae6b1794","685c6e33a8d5085b911cc320","5d0eecdd348afe00015865aa","false","false","Hat","https://kisumu-drawings.s3-us-west-1.amazonaws.com/69-008.png","11","Watch","69-008.png"
"","3025","image-button-response","66","null","287473","685c6ca90f751d3aae6b1794","685c6e33a8d5085b911cc320","5d0eecdd348afe00015865aa","false","false","Cup","https://kisumu-drawings.s3-us-west-1.amazonaws.com/28-010.png","0","Airplane","28-010.png"
"","2569","image-button-response","67","null","290544","685c6ca90f751d3aae6b1794","685c6e33a8d5085b911cc320","5d0eecdd348afe00015865aa","false","false","Cat","https://kisumu-drawings.s3-us-west-1.amazonaws.com/27-008.png","9","Rabbit","27-008.png"
"","3211","image-button-response","68","null","294258","685c6ca90f751d3aae6b1794","685c6e33a8d5085b911cc320","5d0eecdd348afe00015865aa","false","false","Chair","https://kisumu-drawings.s3-us-west-1.amazonaws.com/28-009.png","8","House","28-009.png"
"","1928","image-button-response","69","null","296688","685c6ca90f751d3aae6b1794","685c6e33a8d5085b911cc320","5d0eecdd348afe00015865aa","false","false","House","https://kisumu-drawings.s3-us-west-1.amazonaws.com/8-012.png","9","Rabbit","8-012.png"
"","3353","image-button-response","70","null","300544","685c6ca90f751d3aae6b1794","685c6e33a8d5085b911cc320","5d0eecdd348afe00015865aa","false","false","Bicycle","https://kisumu-drawings.s3-us-west-1.amazonaws.com/95-010.png","1","Bicycle","95-010.png"
"","2058","image-button-response","71","null","303104","685c6ca90f751d3aae6b1794","685c6e33a8d5085b911cc320","5d0eecdd348afe00015865aa","false","false","Car","https://kisumu-drawings.s3-us-west-1.amazonaws.com/28-007.png","3","Car","28-007.png"
"","1953","image-button-response","72","null","305561","685c6ca90f751d3aae6b1794","685c6e33a8d5085b911cc320","5d0eecdd348afe00015865aa","false","false","Hat","https://kisumu-drawings.s3-us-west-1.amazonaws.com/7-014.png","3","Car","7-014.png"
"","1777","image-button-response","73","null","307841","685c6ca90f751d3aae6b1794","685c6e33a8d5085b911cc320","5d0eecdd348afe00015865aa","false","false","Bicycle","https://kisumu-drawings.s3-us-west-1.amazonaws.com/8-016.png","3","Car","8-016.png"
"","1633","image-button-response","74","null","309977","685c6ca90f751d3aae6b1794","685c6e33a8d5085b911cc320","5d0eecdd348afe00015865aa","false","false","Airplane","https://kisumu-drawings.s3-us-west-1.amazonaws.com/9-009.png","3","Car","9-009.png"
"","6289","image-button-response","75","null","316768","685c6ca90f751d3aae6b1794","685c6e33a8d5085b911cc320","5d0eecdd348afe00015865aa","false","false","Bird","https://kisumu-drawings.s3-us-west-1.amazonaws.com/95-008.png","3","Car","95-008.png"
