"view_history","rt","trial_type","trial_index","plugin_version","time_elapsed","study_id","session_id","participant_id","catch_trial","prep_trial","sketcher_category","stimulus","response","response_category","sketch_id"
"[{""page_index"":0,""viewing_time"":40979},{""page_index"":1,""viewing_time"":42385},{""page_index"":2,""viewing_time"":5611},{""page_index"":3,""viewing_time"":6685}]","95660","instructions","0","null","95667","685c6ca90f751d3aae6b1794","685c77a86386851d6da4bfce","5d23cee7771223001647e8c7","","","","","","",""
"","3061","image-button-response","1","null","99738","685c6ca90f751d3aae6b1794","685c77a86386851d6da4bfce","5d23cee7771223001647e8c7","false","true","car","stimuli/prep_trials/1_car_prep.png","3","Car",""
"","1815","image-button-response","2","null","102054","685c6ca90f751d3aae6b1794","685c77a86386851d6da4bfce","5d23cee7771223001647e8c7","false","true","cat","stimuli/prep_trials/0_cat_prep.jpg","4","Cat",""
"","5363","image-button-response","3","null","107932","685c6ca90f751d3aae6b1794","685c77a86386851d6da4bfce","5d23cee7771223001647e8c7","false","false","Cup","https://kisumu-drawings.s3-us-west-1.amazonaws.com/24-014.png","6","Cup","24-014.png"
"","6082","image-button-response","4","null","114516","685c6ca90f751d3aae6b1794","685c77a86386851d6da4bfce","5d23cee7771223001647e8c7","false","false","Bird","https://kisumu-drawings.s3-us-west-1.amazonaws.com/54-010.png","0","Airplane","54-010.png"
"","2708","image-button-response","5","null","117731","685c6ca90f751d3aae6b1794","685c77a86386851d6da4bfce","5d23cee7771223001647e8c7","false","false","Bird","https://kisumu-drawings.s3-us-west-1.amazonaws.com/83-007.png","2","Bird","83-007.png"
"","29370","image-button-response","6","null","147602","685c6ca90f751d3aae6b1794","685c77a86386851d6da4bfce","5d23cee7771223001647e8c7","false","false","Rabbit","https://kisumu-drawings.s3-us-west-1.amazonaws.com/106-014.png","9","Rabbit","106-014.png"
"","5125","image-button-response","7","null","153229","685c6ca90f751d3aae6b1794","685c77a86386851d6da4bfce","5d23cee7771223001647e8c7","false","false","Car","https://kisumu-drawings.s3-us-west-1.amazonaws.com/2-016.png","3","Car","2-016.png"
"","2244","image-button-response","8","null","155975","685c6ca90f751d3aae6b1794","685c77a86386851d6da4bfce","5d23cee7771223001647e8c7","false","false","Tree","https://kisumu-drawings.s3-us-west-1.amazonaws.com/57-005.png","10","Tree","57-005.png"
"","18506","image-button-response","9","null","174983","685c6ca90f751d3aae6b1794","685c77a86386851d6da4bfce","5d23cee7771223001647e8c7","false","false","Rabbit","https://kisumu-drawings.s3-us-west-1.amazonaws.com/37-015.png","2","Bird","37-015.png"
"","10595","image-button-response","10","null","186079","685c6ca90f751d3aae6b1794","685c77a86386851d6da4bfce","5d23cee7771223001647e8c7","false","false","Cat","https://kisumu-drawings.s3-us-west-1.amazonaws.com/55-012.png","7","Hat","55-012.png"
"","3212","image-button-response","11","null","189796","685c6ca90f751d3aae6b1794","685c77a86386851d6da4bfce","5d23cee7771223001647e8c7","false","false","Bird","https://kisumu-drawings.s3-us-west-1.amazonaws.com/33-007.png","7","Hat","33-007.png"
"","4070","image-button-response","12","null","194379","685c6ca90f751d3aae6b1794","685c77a86386851d6da4bfce","5d23cee7771223001647e8c7","false","false","Bicycle","https://kisumu-drawings.s3-us-west-1.amazonaws.com/77-014.png","3","Car","77-014.png"
"","3887","image-button-response","13","null","198777","685c6ca90f751d3aae6b1794","685c77a86386851d6da4bfce","5d23cee7771223001647e8c7","false","false","Airplane","https://kisumu-drawings.s3-us-west-1.amazonaws.com/30-005.png","0","Airplane","30-005.png"
"","3502","image-button-response","14","null","202780","685c6ca90f751d3aae6b1794","685c77a86386851d6da4bfce","5d23cee7771223001647e8c7","false","false","Cat","https://kisumu-drawings.s3-us-west-1.amazonaws.com/107-013.png","4","Cat","107-013.png"
"","2232","image-button-response","15","null","205527","685c6ca90f751d3aae6b1794","685c77a86386851d6da4bfce","5d23cee7771223001647e8c7","false","false","House","https://kisumu-drawings.s3-us-west-1.amazonaws.com/44-009.png","8","House","44-009.png"
"","8370","image-button-response","16","null","214402","685c6ca90f751d3aae6b1794","685c77a86386851d6da4bfce","5d23cee7771223001647e8c7","false","false","Tree","https://kisumu-drawings.s3-us-west-1.amazonaws.com/18-016.png","6","Cup","18-016.png"
"","1592","image-button-response","17","null","216507","685c6ca90f751d3aae6b1794","685c77a86386851d6da4bfce","5d23cee7771223001647e8c7","false","false","Cup","https://kisumu-drawings.s3-us-west-1.amazonaws.com/80-006.png","6","Cup","80-006.png"
"","2258","image-button-response","18","null","219266","685c6ca90f751d3aae6b1794","685c77a86386851d6da4bfce","5d23cee7771223001647e8c7","false","false","Tree","https://kisumu-drawings.s3-us-west-1.amazonaws.com/113-010.png","10","Tree","113-010.png"
"","1875","image-button-response","19","null","221642","685c6ca90f751d3aae6b1794","685c77a86386851d6da4bfce","5d23cee7771223001647e8c7","false","false","House","https://kisumu-drawings.s3-us-west-1.amazonaws.com/24-015.png","8","House","24-015.png"
"","1634","image-button-response","20","null","223783","685c6ca90f751d3aae6b1794","685c77a86386851d6da4bfce","5d23cee7771223001647e8c7","false","false","Airplane","https://kisumu-drawings.s3-us-west-1.amazonaws.com/41-005.png","0","Airplane","41-005.png"
"","2447","image-button-response","21","null","226734","685c6ca90f751d3aae6b1794","685c77a86386851d6da4bfce","5d23cee7771223001647e8c7","false","false","Car","https://kisumu-drawings.s3-us-west-1.amazonaws.com/46-009.png","3","Car","46-009.png"
"","2709","image-button-response","22","null","229945","685c6ca90f751d3aae6b1794","685c77a86386851d6da4bfce","5d23cee7771223001647e8c7","false","false","Bicycle","https://kisumu-drawings.s3-us-west-1.amazonaws.com/15-012.png","3","Car","15-012.png"
"","1711","image-button-response","23","null","232174","685c6ca90f751d3aae6b1794","685c77a86386851d6da4bfce","5d23cee7771223001647e8c7","false","false","House","https://kisumu-drawings.s3-us-west-1.amazonaws.com/13-015.png","3","Car","13-015.png"
"","1349","image-button-response","24","null","234035","685c6ca90f751d3aae6b1794","685c77a86386851d6da4bfce","5d23cee7771223001647e8c7","false","false","Car","https://kisumu-drawings.s3-us-west-1.amazonaws.com/73-012.png","3","Car","73-012.png"
"","3130","image-button-response","25","null","237677","685c6ca90f751d3aae6b1794","685c77a86386851d6da4bfce","5d23cee7771223001647e8c7","false","false","Watch","https://kisumu-drawings.s3-us-west-1.amazonaws.com/49-015.png","2","Bird","49-015.png"
"","2310","image-button-response","26","null","240500","685c6ca90f751d3aae6b1794","685c77a86386851d6da4bfce","5d23cee7771223001647e8c7","false","false","Cup","https://kisumu-drawings.s3-us-west-1.amazonaws.com/10-005.png","7","Hat","10-005.png"
"","3089","image-button-response","27","null","244099","685c6ca90f751d3aae6b1794","685c77a86386851d6da4bfce","5d23cee7771223001647e8c7","false","false","Bicycle","https://kisumu-drawings.s3-us-west-1.amazonaws.com/85-006.png","1","Bicycle","85-006.png"
"","2395","image-button-response","28","null","246999","685c6ca90f751d3aae6b1794","685c77a86386851d6da4bfce","5d23cee7771223001647e8c7","false","false","House","https://kisumu-drawings.s3-us-west-1.amazonaws.com/119-016.png","8","House","119-016.png"
"","1507","image-button-response","29","null","249021","685c6ca90f751d3aae6b1794","685c77a86386851d6da4bfce","5d23cee7771223001647e8c7","false","false","Hat","https://kisumu-drawings.s3-us-west-1.amazonaws.com/72-011.png","8","House","72-011.png"
"","2816","image-button-response","30","null","252339","685c6ca90f751d3aae6b1794","685c77a86386851d6da4bfce","5d23cee7771223001647e8c7","false","false","Hat","https://kisumu-drawings.s3-us-west-1.amazonaws.com/33-015.png","6","Cup","33-015.png"
"","3472","image-button-response","31","null","256312","685c6ca90f751d3aae6b1794","685c77a86386851d6da4bfce","5d23cee7771223001647e8c7","false","false","Chair","https://kisumu-drawings.s3-us-west-1.amazonaws.com/86-008.png","5","Chair","86-008.png"
"","1683","image-button-response","32","null","258497","685c6ca90f751d3aae6b1794","685c77a86386851d6da4bfce","5d23cee7771223001647e8c7","true","false","airplane","stimuli/catch_trials/0_airplane_catch.jpg","0","Airplane",""
"","2229","image-button-response","33","null","261235","685c6ca90f751d3aae6b1794","685c77a86386851d6da4bfce","5d23cee7771223001647e8c7","false","false","House","https://kisumu-drawings.s3-us-west-1.amazonaws.com/86-011.png","8","House","86-011.png"
"","1966","image-button-response","34","null","263714","685c6ca90f751d3aae6b1794","685c77a86386851d6da4bfce","5d23cee7771223001647e8c7","false","false","Car","https://kisumu-drawings.s3-us-west-1.amazonaws.com/81-005.png","3","Car","81-005.png"
"","3001","image-button-response","35","null","267229","685c6ca90f751d3aae6b1794","685c77a86386851d6da4bfce","5d23cee7771223001647e8c7","false","false","Rabbit","https://kisumu-drawings.s3-us-west-1.amazonaws.com/8-013.png","2","Bird","8-013.png"
"","2052","image-button-response","36","null","269786","685c6ca90f751d3aae6b1794","685c77a86386851d6da4bfce","5d23cee7771223001647e8c7","false","false","Tree","https://kisumu-drawings.s3-us-west-1.amazonaws.com/80-014.png","10","Tree","80-014.png"
"","2474","image-button-response","37","null","272766","685c6ca90f751d3aae6b1794","685c77a86386851d6da4bfce","5d23cee7771223001647e8c7","false","false","Chair","https://kisumu-drawings.s3-us-west-1.amazonaws.com/55-013.png","5","Chair","55-013.png"
"","2199","image-button-response","38","null","275467","685c6ca90f751d3aae6b1794","685c77a86386851d6da4bfce","5d23cee7771223001647e8c7","false","false","Airplane","https://kisumu-drawings.s3-us-west-1.amazonaws.com/64-016.png","0","Airplane","64-016.png"
"","12449","image-button-response","39","null","288421","685c6ca90f751d3aae6b1794","685c77a86386851d6da4bfce","5d23cee7771223001647e8c7","false","false","Hat","https://kisumu-drawings.s3-us-west-1.amazonaws.com/94-015.png","6","Cup","94-015.png"
"","2259","image-button-response","40","null","291182","685c6ca90f751d3aae6b1794","685c77a86386851d6da4bfce","5d23cee7771223001647e8c7","false","false","Chair","https://kisumu-drawings.s3-us-west-1.amazonaws.com/26-009.png","5","Chair","26-009.png"
"","1829","image-button-response","41","null","293513","685c6ca90f751d3aae6b1794","685c77a86386851d6da4bfce","5d23cee7771223001647e8c7","false","false","Cat","https://kisumu-drawings.s3-us-west-1.amazonaws.com/98-009.png","4","Cat","98-009.png"
"","4252","image-button-response","42","null","298272","685c6ca90f751d3aae6b1794","685c77a86386851d6da4bfce","5d23cee7771223001647e8c7","false","false","Bird","https://kisumu-drawings.s3-us-west-1.amazonaws.com/73-008.png","9","Rabbit","73-008.png"
"","4019","image-button-response","43","null","302793","685c6ca90f751d3aae6b1794","685c77a86386851d6da4bfce","5d23cee7771223001647e8c7","false","false","Airplane","https://kisumu-drawings.s3-us-west-1.amazonaws.com/9-009.png","8","House","9-009.png"
"","7418","image-button-response","44","null","310716","685c6ca90f751d3aae6b1794","685c77a86386851d6da4bfce","5d23cee7771223001647e8c7","false","false","Cat","https://kisumu-drawings.s3-us-west-1.amazonaws.com/20-008.png","2","Bird","20-008.png"
"","2114","image-button-response","45","null","313343","685c6ca90f751d3aae6b1794","685c77a86386851d6da4bfce","5d23cee7771223001647e8c7","false","false","Hat","https://kisumu-drawings.s3-us-west-1.amazonaws.com/112-014.png","7","Hat","112-014.png"
"","1988","image-button-response","46","null","315837","685c6ca90f751d3aae6b1794","685c77a86386851d6da4bfce","5d23cee7771223001647e8c7","false","false","House","https://kisumu-drawings.s3-us-west-1.amazonaws.com/76-016.png","8","House","76-016.png"
"","2452","image-button-response","47","null","318805","685c6ca90f751d3aae6b1794","685c77a86386851d6da4bfce","5d23cee7771223001647e8c7","false","false","Cat","https://kisumu-drawings.s3-us-west-1.amazonaws.com/72-014.png","4","Cat","72-014.png"
"","1818","image-button-response","48","null","321126","685c6ca90f751d3aae6b1794","685c77a86386851d6da4bfce","5d23cee7771223001647e8c7","false","false","Watch","https://kisumu-drawings.s3-us-west-1.amazonaws.com/108-010.png","11","Watch","108-010.png"
"","2431","image-button-response","49","null","324058","685c6ca90f751d3aae6b1794","685c77a86386851d6da4bfce","5d23cee7771223001647e8c7","false","false","Chair","https://kisumu-drawings.s3-us-west-1.amazonaws.com/67-010.png","5","Chair","67-010.png"
"","2130","image-button-response","50","null","326689","685c6ca90f751d3aae6b1794","685c77a86386851d6da4bfce","5d23cee7771223001647e8c7","false","false","Tree","https://kisumu-drawings.s3-us-west-1.amazonaws.com/21-015.png","10","Tree","21-015.png"
"","1815","image-button-response","51","null","329006","685c6ca90f751d3aae6b1794","685c77a86386851d6da4bfce","5d23cee7771223001647e8c7","false","false","Rabbit","https://kisumu-drawings.s3-us-west-1.amazonaws.com/75-016.png","4","Cat","75-016.png"
"","4155","image-button-response","52","null","333663","685c6ca90f751d3aae6b1794","685c77a86386851d6da4bfce","5d23cee7771223001647e8c7","false","false","Bird","https://kisumu-drawings.s3-us-west-1.amazonaws.com/107-016.png","0","Airplane","107-016.png"
"","1221","image-button-response","53","null","335393","685c6ca90f751d3aae6b1794","685c77a86386851d6da4bfce","5d23cee7771223001647e8c7","false","false","Airplane","https://kisumu-drawings.s3-us-west-1.amazonaws.com/105-009.png","0","Airplane","105-009.png"
"","1703","image-button-response","54","null","337606","685c6ca90f751d3aae6b1794","685c77a86386851d6da4bfce","5d23cee7771223001647e8c7","false","false","Tree","https://kisumu-drawings.s3-us-west-1.amazonaws.com/81-009.png","10","Tree","81-009.png"
"","2324","image-button-response","55","null","340439","685c6ca90f751d3aae6b1794","685c77a86386851d6da4bfce","5d23cee7771223001647e8c7","false","false","Car","https://kisumu-drawings.s3-us-west-1.amazonaws.com/36-011.png","3","Car","36-011.png"
"","2211","image-button-response","56","null","343152","685c6ca90f751d3aae6b1794","685c77a86386851d6da4bfce","5d23cee7771223001647e8c7","false","false","Cat","https://kisumu-drawings.s3-us-west-1.amazonaws.com/26-010.png","4","Cat","26-010.png"
"","2033","image-button-response","57","null","345686","685c6ca90f751d3aae6b1794","685c77a86386851d6da4bfce","5d23cee7771223001647e8c7","false","false","Bicycle","https://kisumu-drawings.s3-us-west-1.amazonaws.com/112-010.png","1","Bicycle","112-010.png"
"","9188","image-button-response","58","null","355385","685c6ca90f751d3aae6b1794","685c77a86386851d6da4bfce","5d23cee7771223001647e8c7","false","false","Watch","https://kisumu-drawings.s3-us-west-1.amazonaws.com/76-007.png","7","Hat","76-007.png"
"","1471","image-button-response","59","null","357358","685c6ca90f751d3aae6b1794","685c77a86386851d6da4bfce","5d23cee7771223001647e8c7","false","false","Airplane","https://kisumu-drawings.s3-us-west-1.amazonaws.com/86-009.png","0","Airplane","86-009.png"
"","2364","image-button-response","60","null","360234","685c6ca90f751d3aae6b1794","685c77a86386851d6da4bfce","5d23cee7771223001647e8c7","false","false","Watch","https://kisumu-drawings.s3-us-west-1.amazonaws.com/90-005.png","11","Watch","90-005.png"
"","1727","image-button-response","61","null","362463","685c6ca90f751d3aae6b1794","685c77a86386851d6da4bfce","5d23cee7771223001647e8c7","false","false","Cup","https://kisumu-drawings.s3-us-west-1.amazonaws.com/115-007.png","6","Cup","115-007.png"
"","1222","image-button-response","62","null","364188","685c6ca90f751d3aae6b1794","685c77a86386851d6da4bfce","5d23cee7771223001647e8c7","false","false","Cup","https://kisumu-drawings.s3-us-west-1.amazonaws.com/97-008.png","6","Cup","97-008.png"
"","1094","image-button-response","63","null","365788","685c6ca90f751d3aae6b1794","685c77a86386851d6da4bfce","5d23cee7771223001647e8c7","false","false","Cup","https://kisumu-drawings.s3-us-west-1.amazonaws.com/58-011.png","6","Cup","58-011.png"
"","3222","image-button-response","64","null","369518","685c6ca90f751d3aae6b1794","685c77a86386851d6da4bfce","5d23cee7771223001647e8c7","false","false","Bicycle","https://kisumu-drawings.s3-us-west-1.amazonaws.com/36-015.png","3","Car","36-015.png"
"","7974","image-button-response","65","null","378005","685c6ca90f751d3aae6b1794","685c77a86386851d6da4bfce","5d23cee7771223001647e8c7","false","false","Rabbit","https://kisumu-drawings.s3-us-west-1.amazonaws.com/55-008.png","2","Bird","55-008.png"
"","2888","image-button-response","66","null","381399","685c6ca90f751d3aae6b1794","685c77a86386851d6da4bfce","5d23cee7771223001647e8c7","false","false","Chair","https://kisumu-drawings.s3-us-west-1.amazonaws.com/4-009.png","5","Chair","4-009.png"
"","3520","image-button-response","67","null","385420","685c6ca90f751d3aae6b1794","685c77a86386851d6da4bfce","5d23cee7771223001647e8c7","false","false","Bird","https://kisumu-drawings.s3-us-west-1.amazonaws.com/6-009.png","0","Airplane","6-009.png"
"","1785","image-button-response","68","null","387711","685c6ca90f751d3aae6b1794","685c77a86386851d6da4bfce","5d23cee7771223001647e8c7","false","false","Car","https://kisumu-drawings.s3-us-west-1.amazonaws.com/102-011.png","3","Car","102-011.png"
"","7815","image-button-response","69","null","396028","685c6ca90f751d3aae6b1794","685c77a86386851d6da4bfce","5d23cee7771223001647e8c7","false","false","Watch","https://kisumu-drawings.s3-us-west-1.amazonaws.com/24-012.png","10","Tree","24-012.png"
"","2018","image-button-response","70","null","398554","685c6ca90f751d3aae6b1794","685c77a86386851d6da4bfce","5d23cee7771223001647e8c7","false","false","Watch","https://kisumu-drawings.s3-us-west-1.amazonaws.com/19-009.png","10","Tree","19-009.png"
"","2607","image-button-response","71","null","401671","685c6ca90f751d3aae6b1794","685c77a86386851d6da4bfce","5d23cee7771223001647e8c7","false","false","Hat","https://kisumu-drawings.s3-us-west-1.amazonaws.com/10-015.png","6","Cup","10-015.png"
"","8260","image-button-response","72","null","410441","685c6ca90f751d3aae6b1794","685c77a86386851d6da4bfce","5d23cee7771223001647e8c7","false","false","Bicycle","https://kisumu-drawings.s3-us-west-1.amazonaws.com/51-007.png","4","Cat","51-007.png"
"","3097","image-button-response","73","null","414039","685c6ca90f751d3aae6b1794","685c77a86386851d6da4bfce","5d23cee7771223001647e8c7","false","false","Rabbit","https://kisumu-drawings.s3-us-west-1.amazonaws.com/96-006.png","4","Cat","96-006.png"
"","2392","image-button-response","74","null","416934","685c6ca90f751d3aae6b1794","685c77a86386851d6da4bfce","5d23cee7771223001647e8c7","false","false","Chair","https://kisumu-drawings.s3-us-west-1.amazonaws.com/107-014.png","5","Chair","107-014.png"
"","1888","image-button-response","75","null","419323","685c6ca90f751d3aae6b1794","685c77a86386851d6da4bfce","5d23cee7771223001647e8c7","false","false","Hat","https://kisumu-drawings.s3-us-west-1.amazonaws.com/47-015.png","6","Cup","47-015.png"
