"view_history","rt","trial_type","trial_index","plugin_version","time_elapsed","study_id","session_id","participant_id","catch_trial","prep_trial","sketcher_category","stimulus","response","response_category","sketch_id"
"[{""page_index"":0,""viewing_time"":5157},{""page_index"":1,""viewing_time"":2649},{""page_index"":2,""viewing_time"":3534},{""page_index"":3,""viewing_time"":5100}]","16440","instructions","0","null","16456","685c6ca90f751d3aae6b1794","685c75bfd62b1599b182905a","5dedec3919398a49e1133b0d","","","","","","",""
"","2393","image-button-response","1","null","19857","685c6ca90f751d3aae6b1794","685c75bfd62b1599b182905a","5dedec3919398a49e1133b0d","false","true","car","stimuli/prep_trials/1_car_prep.png","3","Car",""
"","1520","image-button-response","2","null","21889","685c6ca90f751d3aae6b1794","685c75bfd62b1599b182905a","5dedec3919398a49e1133b0d","false","true","cat","stimuli/prep_trials/0_cat_prep.jpg","4","Cat",""
"","4929","image-button-response","3","null","27322","685c6ca90f751d3aae6b1794","685c75bfd62b1599b182905a","5dedec3919398a49e1133b0d","false","false","Airplane","https://kisumu-drawings.s3-us-west-1.amazonaws.com/44-008.png","0","Airplane","44-008.png"
"","3630","image-button-response","4","null","31455","685c6ca90f751d3aae6b1794","685c75bfd62b1599b182905a","5dedec3919398a49e1133b0d","false","false","House","https://kisumu-drawings.s3-us-west-1.amazonaws.com/63-006.png","8","House","63-006.png"
"","5862","image-button-response","5","null","37822","685c6ca90f751d3aae6b1794","685c75bfd62b1599b182905a","5dedec3919398a49e1133b0d","false","false","Airplane","https://kisumu-drawings.s3-us-west-1.amazonaws.com/93-015.png","0","Airplane","93-015.png"
"","7564","image-button-response","6","null","45889","685c6ca90f751d3aae6b1794","685c75bfd62b1599b182905a","5dedec3919398a49e1133b0d","false","false","Car","https://kisumu-drawings.s3-us-west-1.amazonaws.com/58-010.png","3","Car","58-010.png"
"","11847","image-button-response","7","null","58239","685c6ca90f751d3aae6b1794","685c75bfd62b1599b182905a","5dedec3919398a49e1133b0d","false","false","Watch","https://kisumu-drawings.s3-us-west-1.amazonaws.com/13-005.png","0","Airplane","13-005.png"
"","3780","image-button-response","8","null","62522","685c6ca90f751d3aae6b1794","685c75bfd62b1599b182905a","5dedec3919398a49e1133b0d","false","false","Cup","https://kisumu-drawings.s3-us-west-1.amazonaws.com/117-006.png","6","Cup","117-006.png"
"","4379","image-button-response","9","null","67405","685c6ca90f751d3aae6b1794","685c75bfd62b1599b182905a","5dedec3919398a49e1133b0d","false","false","Bird","https://kisumu-drawings.s3-us-west-1.amazonaws.com/80-008.png","2","Bird","80-008.png"
"","2715","image-button-response","10","null","70622","685c6ca90f751d3aae6b1794","685c75bfd62b1599b182905a","5dedec3919398a49e1133b0d","false","false","House","https://kisumu-drawings.s3-us-west-1.amazonaws.com/55-016.png","8","House","55-016.png"
"","3197","image-button-response","11","null","74323","685c6ca90f751d3aae6b1794","685c75bfd62b1599b182905a","5dedec3919398a49e1133b0d","false","false","House","https://kisumu-drawings.s3-us-west-1.amazonaws.com/20-010.png","0","Airplane","20-010.png"
"","4864","image-button-response","12","null","79689","685c6ca90f751d3aae6b1794","685c75bfd62b1599b182905a","5dedec3919398a49e1133b0d","false","false","Bicycle","https://kisumu-drawings.s3-us-west-1.amazonaws.com/88-007.png","1","Bicycle","88-007.png"
"","3430","image-button-response","13","null","83623","685c6ca90f751d3aae6b1794","685c75bfd62b1599b182905a","5dedec3919398a49e1133b0d","false","false","Hat","https://kisumu-drawings.s3-us-west-1.amazonaws.com/115-009.png","0","Airplane","115-009.png"
"","4863","image-button-response","14","null","88989","685c6ca90f751d3aae6b1794","685c75bfd62b1599b182905a","5dedec3919398a49e1133b0d","false","false","Chair","https://kisumu-drawings.s3-us-west-1.amazonaws.com/116-013.png","5","Chair","116-013.png"
"","4614","image-button-response","15","null","94106","685c6ca90f751d3aae6b1794","685c75bfd62b1599b182905a","5dedec3919398a49e1133b0d","false","false","Cup","https://kisumu-drawings.s3-us-west-1.amazonaws.com/67-011.png","6","Cup","67-011.png"
"","3396","image-button-response","16","null","98006","685c6ca90f751d3aae6b1794","685c75bfd62b1599b182905a","5dedec3919398a49e1133b0d","false","false","Cat","https://kisumu-drawings.s3-us-west-1.amazonaws.com/25-010.png","2","Bird","25-010.png"
"","5314","image-button-response","17","null","103822","685c6ca90f751d3aae6b1794","685c75bfd62b1599b182905a","5dedec3919398a49e1133b0d","false","false","Car","https://kisumu-drawings.s3-us-west-1.amazonaws.com/115-015.png","3","Car","115-015.png"
"","3681","image-button-response","18","null","108006","685c6ca90f751d3aae6b1794","685c75bfd62b1599b182905a","5dedec3919398a49e1133b0d","false","false","Cup","https://kisumu-drawings.s3-us-west-1.amazonaws.com/99-009.png","6","Cup","99-009.png"
"","8013","image-button-response","19","null","116522","685c6ca90f751d3aae6b1794","685c75bfd62b1599b182905a","5dedec3919398a49e1133b0d","false","false","Airplane","https://kisumu-drawings.s3-us-west-1.amazonaws.com/114-011.png","0","Airplane","114-011.png"
"","4481","image-button-response","20","null","121507","685c6ca90f751d3aae6b1794","685c75bfd62b1599b182905a","5dedec3919398a49e1133b0d","false","false","Chair","https://kisumu-drawings.s3-us-west-1.amazonaws.com/92-009.png","5","Chair","92-009.png"
"","3063","image-button-response","21","null","125073","685c6ca90f751d3aae6b1794","685c75bfd62b1599b182905a","5dedec3919398a49e1133b0d","false","false","Cup","https://kisumu-drawings.s3-us-west-1.amazonaws.com/19-011.png","5","Chair","19-011.png"
"","3097","image-button-response","22","null","128673","685c6ca90f751d3aae6b1794","685c75bfd62b1599b182905a","5dedec3919398a49e1133b0d","false","false","Tree","https://kisumu-drawings.s3-us-west-1.amazonaws.com/100-013.png","10","Tree","100-013.png"
"","2563","image-button-response","23","null","131740","685c6ca90f751d3aae6b1794","685c75bfd62b1599b182905a","5dedec3919398a49e1133b0d","false","false","House","https://kisumu-drawings.s3-us-west-1.amazonaws.com/23-015.png","8","House","23-015.png"
"","9263","image-button-response","24","null","141506","685c6ca90f751d3aae6b1794","685c75bfd62b1599b182905a","5dedec3919398a49e1133b0d","false","false","Airplane","https://kisumu-drawings.s3-us-west-1.amazonaws.com/13-006.png","11","Watch","13-006.png"
"","6064","image-button-response","25","null","148073","685c6ca90f751d3aae6b1794","685c75bfd62b1599b182905a","5dedec3919398a49e1133b0d","false","false","Chair","https://kisumu-drawings.s3-us-west-1.amazonaws.com/13-012.png","2","Bird","13-012.png"
"","5730","image-button-response","26","null","154306","685c6ca90f751d3aae6b1794","685c75bfd62b1599b182905a","5dedec3919398a49e1133b0d","false","false","Hat","https://kisumu-drawings.s3-us-west-1.amazonaws.com/48-016.png","8","House","48-016.png"
"","6182","image-button-response","27","null","160990","685c6ca90f751d3aae6b1794","685c75bfd62b1599b182905a","5dedec3919398a49e1133b0d","false","false","Rabbit","https://kisumu-drawings.s3-us-west-1.amazonaws.com/76-005.png","4","Cat","76-005.png"
"","4280","image-button-response","28","null","165773","685c6ca90f751d3aae6b1794","685c75bfd62b1599b182905a","5dedec3919398a49e1133b0d","false","false","Bicycle","https://kisumu-drawings.s3-us-west-1.amazonaws.com/49-012.png","1","Bicycle","49-012.png"
"","4014","image-button-response","29","null","170290","685c6ca90f751d3aae6b1794","685c75bfd62b1599b182905a","5dedec3919398a49e1133b0d","false","false","Tree","https://kisumu-drawings.s3-us-west-1.amazonaws.com/73-014.png","10","Tree","73-014.png"
"","7496","image-button-response","30","null","178290","685c6ca90f751d3aae6b1794","685c75bfd62b1599b182905a","5dedec3919398a49e1133b0d","false","false","Hat","https://kisumu-drawings.s3-us-west-1.amazonaws.com/24-016.png","10","Tree","24-016.png"
"","4546","image-button-response","31","null","183340","685c6ca90f751d3aae6b1794","685c75bfd62b1599b182905a","5dedec3919398a49e1133b0d","false","false","Car","https://kisumu-drawings.s3-us-west-1.amazonaws.com/85-005.png","3","Car","85-005.png"
"","4180","image-button-response","32","null","188023","685c6ca90f751d3aae6b1794","685c75bfd62b1599b182905a","5dedec3919398a49e1133b0d","false","false","Tree","https://kisumu-drawings.s3-us-west-1.amazonaws.com/5-008.png","10","Tree","5-008.png"
"","4281","image-button-response","33","null","192806","685c6ca90f751d3aae6b1794","685c75bfd62b1599b182905a","5dedec3919398a49e1133b0d","false","false","Bird","https://kisumu-drawings.s3-us-west-1.amazonaws.com/115-006.png","2","Bird","115-006.png"
"","5331","image-button-response","34","null","198640","685c6ca90f751d3aae6b1794","685c75bfd62b1599b182905a","5dedec3919398a49e1133b0d","false","false","Cat","https://kisumu-drawings.s3-us-west-1.amazonaws.com/109-005.png","4","Cat","109-005.png"
"","4713","image-button-response","35","null","203856","685c6ca90f751d3aae6b1794","685c75bfd62b1599b182905a","5dedec3919398a49e1133b0d","false","false","Cup","https://kisumu-drawings.s3-us-west-1.amazonaws.com/40-010.png","6","Cup","40-010.png"
"","4698","image-button-response","36","null","209057","685c6ca90f751d3aae6b1794","685c75bfd62b1599b182905a","5dedec3919398a49e1133b0d","false","false","Chair","https://kisumu-drawings.s3-us-west-1.amazonaws.com/59-007.png","5","Chair","59-007.png"
"","3997","image-button-response","37","null","213557","685c6ca90f751d3aae6b1794","685c75bfd62b1599b182905a","5dedec3919398a49e1133b0d","false","false","Airplane","https://kisumu-drawings.s3-us-west-1.amazonaws.com/27-005.png","0","Airplane","27-005.png"
"","1579","image-button-response","38","null","215640","685c6ca90f751d3aae6b1794","685c75bfd62b1599b182905a","5dedec3919398a49e1133b0d","true","false","airplane","stimuli/catch_trials/0_airplane_catch.jpg","0","Airplane",""
"","5179","image-button-response","39","null","221323","685c6ca90f751d3aae6b1794","685c75bfd62b1599b182905a","5dedec3919398a49e1133b0d","false","false","Hat","https://kisumu-drawings.s3-us-west-1.amazonaws.com/83-010.png","8","House","83-010.png"
"","5098","image-button-response","40","null","226923","685c6ca90f751d3aae6b1794","685c75bfd62b1599b182905a","5dedec3919398a49e1133b0d","false","false","Tree","https://kisumu-drawings.s3-us-west-1.amazonaws.com/59-005.png","10","Tree","59-005.png"
"","4547","image-button-response","41","null","231974","685c6ca90f751d3aae6b1794","685c75bfd62b1599b182905a","5dedec3919398a49e1133b0d","false","false","Rabbit","https://kisumu-drawings.s3-us-west-1.amazonaws.com/108-009.png","4","Cat","108-009.png"
"","6347","image-button-response","42","null","238824","685c6ca90f751d3aae6b1794","685c75bfd62b1599b182905a","5dedec3919398a49e1133b0d","false","false","Hat","https://kisumu-drawings.s3-us-west-1.amazonaws.com/68-013.png","7","Hat","68-013.png"
"","9031","image-button-response","43","null","248357","685c6ca90f751d3aae6b1794","685c75bfd62b1599b182905a","5dedec3919398a49e1133b0d","false","false","Bird","https://kisumu-drawings.s3-us-west-1.amazonaws.com/51-008.png","10","Tree","51-008.png"
"","9630","image-button-response","44","null","258490","685c6ca90f751d3aae6b1794","685c75bfd62b1599b182905a","5dedec3919398a49e1133b0d","false","false","Bicycle","https://kisumu-drawings.s3-us-west-1.amazonaws.com/78-006.png","1","Bicycle","78-006.png"
"","3231","image-button-response","45","null","262224","685c6ca90f751d3aae6b1794","685c75bfd62b1599b182905a","5dedec3919398a49e1133b0d","false","false","Chair","https://kisumu-drawings.s3-us-west-1.amazonaws.com/23-005.png","5","Chair","23-005.png"
"","3398","image-button-response","46","null","266124","685c6ca90f751d3aae6b1794","685c75bfd62b1599b182905a","5dedec3919398a49e1133b0d","false","false","House","https://kisumu-drawings.s3-us-west-1.amazonaws.com/86-011.png","8","House","86-011.png"
"","3746","image-button-response","47","null","270374","685c6ca90f751d3aae6b1794","685c75bfd62b1599b182905a","5dedec3919398a49e1133b0d","false","false","Car","https://kisumu-drawings.s3-us-west-1.amazonaws.com/8-006.png","10","Tree","8-006.png"
"","7130","image-button-response","48","null","278007","685c6ca90f751d3aae6b1794","685c75bfd62b1599b182905a","5dedec3919398a49e1133b0d","false","false","Watch","https://kisumu-drawings.s3-us-west-1.amazonaws.com/54-012.png","11","Watch","54-012.png"
"","5779","image-button-response","49","null","284290","685c6ca90f751d3aae6b1794","685c75bfd62b1599b182905a","5dedec3919398a49e1133b0d","false","false","Cat","https://kisumu-drawings.s3-us-west-1.amazonaws.com/60-013.png","4","Cat","60-013.png"
"","9981","image-button-response","50","null","294773","685c6ca90f751d3aae6b1794","685c75bfd62b1599b182905a","5dedec3919398a49e1133b0d","false","false","Rabbit","https://kisumu-drawings.s3-us-west-1.amazonaws.com/91-005.png","9","Rabbit","91-005.png"
"","4814","image-button-response","51","null","300091","685c6ca90f751d3aae6b1794","685c75bfd62b1599b182905a","5dedec3919398a49e1133b0d","false","false","Airplane","https://kisumu-drawings.s3-us-west-1.amazonaws.com/62-009.png","0","Airplane","62-009.png"
"","3298","image-button-response","52","null","303891","685c6ca90f751d3aae6b1794","685c75bfd62b1599b182905a","5dedec3919398a49e1133b0d","false","false","Tree","https://kisumu-drawings.s3-us-west-1.amazonaws.com/22-014.png","10","Tree","22-014.png"
"","5213","image-button-response","53","null","309608","685c6ca90f751d3aae6b1794","685c75bfd62b1599b182905a","5dedec3919398a49e1133b0d","false","false","Rabbit","https://kisumu-drawings.s3-us-west-1.amazonaws.com/35-016.png","4","Cat","35-016.png"
"","4680","image-button-response","54","null","314791","685c6ca90f751d3aae6b1794","685c75bfd62b1599b182905a","5dedec3919398a49e1133b0d","false","false","Cat","https://kisumu-drawings.s3-us-west-1.amazonaws.com/65-015.png","4","Cat","65-015.png"
"","6679","image-button-response","55","null","321974","685c6ca90f751d3aae6b1794","685c75bfd62b1599b182905a","5dedec3919398a49e1133b0d","false","false","Hat","https://kisumu-drawings.s3-us-west-1.amazonaws.com/17-015.png","3","Car","17-015.png"
"","3731","image-button-response","56","null","326207","685c6ca90f751d3aae6b1794","685c75bfd62b1599b182905a","5dedec3919398a49e1133b0d","false","false","Bicycle","https://kisumu-drawings.s3-us-west-1.amazonaws.com/22-007.png","1","Bicycle","22-007.png"
"","5864","image-button-response","57","null","332574","685c6ca90f751d3aae6b1794","685c75bfd62b1599b182905a","5dedec3919398a49e1133b0d","false","false","Rabbit","https://kisumu-drawings.s3-us-west-1.amazonaws.com/8-013.png","5","Chair","8-013.png"
"","3830","image-button-response","58","null","336908","685c6ca90f751d3aae6b1794","685c75bfd62b1599b182905a","5dedec3919398a49e1133b0d","false","false","Tree","https://kisumu-drawings.s3-us-west-1.amazonaws.com/108-012.png","10","Tree","108-012.png"
"","6263","image-button-response","59","null","343674","685c6ca90f751d3aae6b1794","685c75bfd62b1599b182905a","5dedec3919398a49e1133b0d","false","false","Bicycle","https://kisumu-drawings.s3-us-west-1.amazonaws.com/8-016.png","10","Tree","8-016.png"
"","5397","image-button-response","60","null","349575","685c6ca90f751d3aae6b1794","685c75bfd62b1599b182905a","5dedec3919398a49e1133b0d","false","false","Bird","https://kisumu-drawings.s3-us-west-1.amazonaws.com/83-007.png","2","Bird","83-007.png"
"","7296","image-button-response","61","null","357375","685c6ca90f751d3aae6b1794","685c75bfd62b1599b182905a","5dedec3919398a49e1133b0d","false","false","Rabbit","https://kisumu-drawings.s3-us-west-1.amazonaws.com/48-014.png","1","Bicycle","48-014.png"
"","18598","image-button-response","62","null","376475","685c6ca90f751d3aae6b1794","685c75bfd62b1599b182905a","5dedec3919398a49e1133b0d","false","false","Bicycle","https://kisumu-drawings.s3-us-west-1.amazonaws.com/120-010.png","10","Tree","120-010.png"
"","6263","image-button-response","63","null","383241","685c6ca90f751d3aae6b1794","685c75bfd62b1599b182905a","5dedec3919398a49e1133b0d","false","false","Chair","https://kisumu-drawings.s3-us-west-1.amazonaws.com/80-013.png","5","Chair","80-013.png"
"","4130","image-button-response","64","null","387875","685c6ca90f751d3aae6b1794","685c75bfd62b1599b182905a","5dedec3919398a49e1133b0d","false","false","Watch","https://kisumu-drawings.s3-us-west-1.amazonaws.com/30-016.png","9","Rabbit","30-016.png"
"","5313","image-button-response","65","null","393692","685c6ca90f751d3aae6b1794","685c75bfd62b1599b182905a","5dedec3919398a49e1133b0d","false","false","Bird","https://kisumu-drawings.s3-us-west-1.amazonaws.com/31-007.png","2","Bird","31-007.png"
"","5130","image-button-response","66","null","399326","685c6ca90f751d3aae6b1794","685c75bfd62b1599b182905a","5dedec3919398a49e1133b0d","false","false","Watch","https://kisumu-drawings.s3-us-west-1.amazonaws.com/97-010.png","8","House","97-010.png"
"","4280","image-button-response","67","null","404108","685c6ca90f751d3aae6b1794","685c75bfd62b1599b182905a","5dedec3919398a49e1133b0d","false","false","Cat","https://kisumu-drawings.s3-us-west-1.amazonaws.com/98-009.png","4","Cat","98-009.png"
"","6947","image-button-response","68","null","411558","685c6ca90f751d3aae6b1794","685c75bfd62b1599b182905a","5dedec3919398a49e1133b0d","false","false","Cat","https://kisumu-drawings.s3-us-west-1.amazonaws.com/8-007.png","10","Tree","8-007.png"
"","9347","image-button-response","69","null","421408","685c6ca90f751d3aae6b1794","685c75bfd62b1599b182905a","5dedec3919398a49e1133b0d","false","false","Car","https://kisumu-drawings.s3-us-west-1.amazonaws.com/37-007.png","3","Car","37-007.png"
"","4114","image-button-response","70","null","426025","685c6ca90f751d3aae6b1794","685c75bfd62b1599b182905a","5dedec3919398a49e1133b0d","false","false","Bird","https://kisumu-drawings.s3-us-west-1.amazonaws.com/20-005.png","10","Tree","20-005.png"
"","6463","image-button-response","71","null","432991","685c6ca90f751d3aae6b1794","685c75bfd62b1599b182905a","5dedec3919398a49e1133b0d","false","false","Watch","https://kisumu-drawings.s3-us-west-1.amazonaws.com/119-015.png","11","Watch","119-015.png"
"","6364","image-button-response","72","null","439859","685c6ca90f751d3aae6b1794","685c75bfd62b1599b182905a","5dedec3919398a49e1133b0d","false","false","House","https://kisumu-drawings.s3-us-west-1.amazonaws.com/113-007.png","8","House","113-007.png"
"","6963","image-button-response","73","null","447325","685c6ca90f751d3aae6b1794","685c75bfd62b1599b182905a","5dedec3919398a49e1133b0d","false","false","Watch","https://kisumu-drawings.s3-us-west-1.amazonaws.com/68-016.png","11","Watch","68-016.png"
"","8697","image-button-response","74","null","456525","685c6ca90f751d3aae6b1794","685c75bfd62b1599b182905a","5dedec3919398a49e1133b0d","false","false","Car","https://kisumu-drawings.s3-us-west-1.amazonaws.com/79-008.png","3","Car","79-008.png"
"","4865","image-button-response","75","null","461892","685c6ca90f751d3aae6b1794","685c75bfd62b1599b182905a","5dedec3919398a49e1133b0d","false","false","Cup","https://kisumu-drawings.s3-us-west-1.amazonaws.com/41-007.png","6","Cup","41-007.png"
