"view_history","rt","trial_type","trial_index","plugin_version","time_elapsed","study_id","session_id","participant_id","catch_trial","prep_trial","sketcher_category","stimulus","response","response_category","sketch_id"
"[{""page_index"":0,""viewing_time"":7297},{""page_index"":1,""viewing_time"":5088},{""page_index"":2,""viewing_time"":6513},{""page_index"":3,""viewing_time"":3752}]","22649","instructions","0","null","22699","685c6ca90f751d3aae6b1794","685c6e1040fe409a291e1d35","5e121701dc79bd8a1a22ca99","","","","","","",""
"","2353","image-button-response","1","null","26059","685c6ca90f751d3aae6b1794","685c6e1040fe409a291e1d35","5e121701dc79bd8a1a22ca99","false","true","car","stimuli/prep_trials/1_car_prep.png","3","Car",""
"","2279","image-button-response","2","null","28842","685c6ca90f751d3aae6b1794","685c6e1040fe409a291e1d35","5e121701dc79bd8a1a22ca99","false","true","cat","stimuli/prep_trials/0_cat_prep.jpg","4","Cat",""
"","9707","image-button-response","3","null","39066","685c6ca90f751d3aae6b1794","685c6e1040fe409a291e1d35","5e121701dc79bd8a1a22ca99","false","false","Rabbit","https://kisumu-drawings.s3-us-west-1.amazonaws.com/104-012.png","9","Rabbit","104-012.png"
"","5864","image-button-response","4","null","45442","685c6ca90f751d3aae6b1794","685c6e1040fe409a291e1d35","5e121701dc79bd8a1a22ca99","false","false","Bicycle","https://kisumu-drawings.s3-us-west-1.amazonaws.com/90-015.png","1","Bicycle","90-015.png"
"","30201","image-button-response","5","null","76162","685c6ca90f751d3aae6b1794","685c6e1040fe409a291e1d35","5e121701dc79bd8a1a22ca99","false","false","Airplane","https://kisumu-drawings.s3-us-west-1.amazonaws.com/3-005.png","10","Tree","3-005.png"
"","5074","image-button-response","6","null","81746","685c6ca90f751d3aae6b1794","685c6e1040fe409a291e1d35","5e121701dc79bd8a1a22ca99","false","false","House","https://kisumu-drawings.s3-us-west-1.amazonaws.com/23-015.png","8","House","23-015.png"
"","8559","image-button-response","7","null","90810","685c6ca90f751d3aae6b1794","685c6e1040fe409a291e1d35","5e121701dc79bd8a1a22ca99","false","false","Cat","https://kisumu-drawings.s3-us-west-1.amazonaws.com/65-015.png","4","Cat","65-015.png"
"","7160","image-button-response","8","null","98474","685c6ca90f751d3aae6b1794","685c6e1040fe409a291e1d35","5e121701dc79bd8a1a22ca99","false","false","Cat","https://kisumu-drawings.s3-us-west-1.amazonaws.com/90-013.png","4","Cat","90-013.png"
"","9763","image-button-response","9","null","108754","685c6ca90f751d3aae6b1794","685c6e1040fe409a291e1d35","5e121701dc79bd8a1a22ca99","false","false","Cat","https://kisumu-drawings.s3-us-west-1.amazonaws.com/3-009.png","4","Cat","3-009.png"
"","3812","image-button-response","10","null","113082","685c6ca90f751d3aae6b1794","685c6e1040fe409a291e1d35","5e121701dc79bd8a1a22ca99","false","false","House","https://kisumu-drawings.s3-us-west-1.amazonaws.com/89-015.png","8","House","89-015.png"
"","16487","image-button-response","11","null","130082","685c6ca90f751d3aae6b1794","685c6e1040fe409a291e1d35","5e121701dc79bd8a1a22ca99","false","false","Watch","https://kisumu-drawings.s3-us-west-1.amazonaws.com/24-012.png","10","Tree","24-012.png"
"","3474","image-button-response","12","null","134066","685c6ca90f751d3aae6b1794","685c6e1040fe409a291e1d35","5e121701dc79bd8a1a22ca99","false","false","Tree","https://kisumu-drawings.s3-us-west-1.amazonaws.com/104-007.png","10","Tree","104-007.png"
"","7911","image-button-response","13","null","142482","685c6ca90f751d3aae6b1794","685c6e1040fe409a291e1d35","5e121701dc79bd8a1a22ca99","false","false","Rabbit","https://kisumu-drawings.s3-us-west-1.amazonaws.com/58-007.png","2","Bird","58-007.png"
"","3926","image-button-response","14","null","146922","685c6ca90f751d3aae6b1794","685c6e1040fe409a291e1d35","5e121701dc79bd8a1a22ca99","false","false","Watch","https://kisumu-drawings.s3-us-west-1.amazonaws.com/64-009.png","11","Watch","64-009.png"
"","1848","image-button-response","15","null","149282","685c6ca90f751d3aae6b1794","685c6e1040fe409a291e1d35","5e121701dc79bd8a1a22ca99","true","false","airplane","stimuli/catch_trials/0_airplane_catch.jpg","0","Airplane",""
"","5740","image-button-response","16","null","155530","685c6ca90f751d3aae6b1794","685c6e1040fe409a291e1d35","5e121701dc79bd8a1a22ca99","false","false","Car","https://kisumu-drawings.s3-us-west-1.amazonaws.com/104-014.png","3","Car","104-014.png"
"","18385","image-button-response","17","null","174418","685c6ca90f751d3aae6b1794","685c6e1040fe409a291e1d35","5e121701dc79bd8a1a22ca99","false","false","House","https://kisumu-drawings.s3-us-west-1.amazonaws.com/3-013.png","0","Airplane","3-013.png"
"","3258","image-button-response","18","null","178194","685c6ca90f751d3aae6b1794","685c6e1040fe409a291e1d35","5e121701dc79bd8a1a22ca99","false","false","House","https://kisumu-drawings.s3-us-west-1.amazonaws.com/103-010.png","8","House","103-010.png"
"","5433","image-button-response","19","null","184130","685c6ca90f751d3aae6b1794","685c6e1040fe409a291e1d35","5e121701dc79bd8a1a22ca99","false","false","Tree","https://kisumu-drawings.s3-us-west-1.amazonaws.com/90-006.png","10","Tree","90-006.png"
"","3755","image-button-response","20","null","188394","685c6ca90f751d3aae6b1794","685c6e1040fe409a291e1d35","5e121701dc79bd8a1a22ca99","false","false","Cup","https://kisumu-drawings.s3-us-west-1.amazonaws.com/24-014.png","6","Cup","24-014.png"
"","5080","image-button-response","21","null","193978","685c6ca90f751d3aae6b1794","685c6e1040fe409a291e1d35","5e121701dc79bd8a1a22ca99","false","false","Chair","https://kisumu-drawings.s3-us-west-1.amazonaws.com/65-012.png","5","Chair","65-012.png"
"","4977","image-button-response","22","null","199458","685c6ca90f751d3aae6b1794","685c6e1040fe409a291e1d35","5e121701dc79bd8a1a22ca99","false","false","Watch","https://kisumu-drawings.s3-us-west-1.amazonaws.com/104-005.png","11","Watch","104-005.png"
"","4985","image-button-response","23","null","204954","685c6ca90f751d3aae6b1794","685c6e1040fe409a291e1d35","5e121701dc79bd8a1a22ca99","false","false","Watch","https://kisumu-drawings.s3-us-west-1.amazonaws.com/58-016.png","11","Watch","58-016.png"
"","2561","image-button-response","24","null","208018","685c6ca90f751d3aae6b1794","685c6e1040fe409a291e1d35","5e121701dc79bd8a1a22ca99","false","false","Airplane","https://kisumu-drawings.s3-us-west-1.amazonaws.com/104-006.png","0","Airplane","104-006.png"
"","2928","image-button-response","25","null","211458","685c6ca90f751d3aae6b1794","685c6e1040fe409a291e1d35","5e121701dc79bd8a1a22ca99","false","false","Chair","https://kisumu-drawings.s3-us-west-1.amazonaws.com/90-011.png","5","Chair","90-011.png"
"","4430","image-button-response","26","null","216394","685c6ca90f751d3aae6b1794","685c6e1040fe409a291e1d35","5e121701dc79bd8a1a22ca99","false","false","Bird","https://kisumu-drawings.s3-us-west-1.amazonaws.com/3-007.png","8","House","3-007.png"
"","4648","image-button-response","27","null","221586","685c6ca90f751d3aae6b1794","685c6e1040fe409a291e1d35","5e121701dc79bd8a1a22ca99","false","false","Tree","https://kisumu-drawings.s3-us-west-1.amazonaws.com/65-011.png","10","Tree","65-011.png"
"","4345","image-button-response","28","null","226441","685c6ca90f751d3aae6b1794","685c6e1040fe409a291e1d35","5e121701dc79bd8a1a22ca99","false","false","Airplane","https://kisumu-drawings.s3-us-west-1.amazonaws.com/90-014.png","0","Airplane","90-014.png"
"","12580","image-button-response","29","null","239538","685c6ca90f751d3aae6b1794","685c6e1040fe409a291e1d35","5e121701dc79bd8a1a22ca99","false","false","Watch","https://kisumu-drawings.s3-us-west-1.amazonaws.com/3-016.png","8","House","3-016.png"
"","4144","image-button-response","30","null","244193","685c6ca90f751d3aae6b1794","685c6e1040fe409a291e1d35","5e121701dc79bd8a1a22ca99","false","false","Hat","https://kisumu-drawings.s3-us-west-1.amazonaws.com/65-014.png","8","House","65-014.png"
"","5278","image-button-response","31","null","249977","685c6ca90f751d3aae6b1794","685c6e1040fe409a291e1d35","5e121701dc79bd8a1a22ca99","false","false","Cup","https://kisumu-drawings.s3-us-west-1.amazonaws.com/65-008.png","6","Cup","65-008.png"
"","6351","image-button-response","32","null","256833","685c6ca90f751d3aae6b1794","685c6e1040fe409a291e1d35","5e121701dc79bd8a1a22ca99","false","false","Cat","https://kisumu-drawings.s3-us-west-1.amazonaws.com/57-008.png","4","Cat","57-008.png"
"","5439","image-button-response","33","null","262777","685c6ca90f751d3aae6b1794","685c6e1040fe409a291e1d35","5e121701dc79bd8a1a22ca99","false","false","Cup","https://kisumu-drawings.s3-us-west-1.amazonaws.com/3-011.png","6","Cup","3-011.png"
"","3628","image-button-response","34","null","266913","685c6ca90f751d3aae6b1794","685c6e1040fe409a291e1d35","5e121701dc79bd8a1a22ca99","false","false","Car","https://kisumu-drawings.s3-us-west-1.amazonaws.com/90-012.png","3","Car","90-012.png"
"","5649","image-button-response","35","null","273065","685c6ca90f751d3aae6b1794","685c6e1040fe409a291e1d35","5e121701dc79bd8a1a22ca99","false","false","Car","https://kisumu-drawings.s3-us-west-1.amazonaws.com/24-005.png","3","Car","24-005.png"
"","4424","image-button-response","36","null","278001","685c6ca90f751d3aae6b1794","685c6e1040fe409a291e1d35","5e121701dc79bd8a1a22ca99","false","false","Rabbit","https://kisumu-drawings.s3-us-west-1.amazonaws.com/3-014.png","4","Cat","3-014.png"
"","2688","image-button-response","37","null","281194","685c6ca90f751d3aae6b1794","685c6e1040fe409a291e1d35","5e121701dc79bd8a1a22ca99","false","false","Chair","https://kisumu-drawings.s3-us-west-1.amazonaws.com/104-009.png","5","Chair","104-009.png"
"","7408","image-button-response","38","null","289105","685c6ca90f751d3aae6b1794","685c6e1040fe409a291e1d35","5e121701dc79bd8a1a22ca99","false","false","Hat","https://kisumu-drawings.s3-us-west-1.amazonaws.com/104-010.png","4","Cat","104-010.png"
"","2850","image-button-response","39","null","292465","685c6ca90f751d3aae6b1794","685c6e1040fe409a291e1d35","5e121701dc79bd8a1a22ca99","false","false","Cup","https://kisumu-drawings.s3-us-west-1.amazonaws.com/90-008.png","6","Cup","90-008.png"
"","5153","image-button-response","40","null","298122","685c6ca90f751d3aae6b1794","685c6e1040fe409a291e1d35","5e121701dc79bd8a1a22ca99","false","false","Rabbit","https://kisumu-drawings.s3-us-west-1.amazonaws.com/23-008.png","2","Bird","23-008.png"
"","4314","image-button-response","41","null","302946","685c6ca90f751d3aae6b1794","685c6e1040fe409a291e1d35","5e121701dc79bd8a1a22ca99","false","false","Chair","https://kisumu-drawings.s3-us-west-1.amazonaws.com/24-006.png","8","House","24-006.png"
"","4349","image-button-response","42","null","307801","685c6ca90f751d3aae6b1794","685c6e1040fe409a291e1d35","5e121701dc79bd8a1a22ca99","false","false","Hat","https://kisumu-drawings.s3-us-west-1.amazonaws.com/90-009.png","6","Cup","90-009.png"
"","4975","image-button-response","43","null","313281","685c6ca90f751d3aae6b1794","685c6e1040fe409a291e1d35","5e121701dc79bd8a1a22ca99","false","false","Bird","https://kisumu-drawings.s3-us-west-1.amazonaws.com/58-015.png","2","Bird","58-015.png"
"","3139","image-button-response","44","null","316937","685c6ca90f751d3aae6b1794","685c6e1040fe409a291e1d35","5e121701dc79bd8a1a22ca99","false","false","House","https://kisumu-drawings.s3-us-west-1.amazonaws.com/64-008.png","8","House","64-008.png"
"","3709","image-button-response","45","null","321153","685c6ca90f751d3aae6b1794","685c6e1040fe409a291e1d35","5e121701dc79bd8a1a22ca99","false","false","Bicycle","https://kisumu-drawings.s3-us-west-1.amazonaws.com/65-007.png","3","Car","65-007.png"
"","6170","image-button-response","46","null","327833","685c6ca90f751d3aae6b1794","685c6e1040fe409a291e1d35","5e121701dc79bd8a1a22ca99","false","false","Car","https://kisumu-drawings.s3-us-west-1.amazonaws.com/3-008.png","3","Car","3-008.png"
"","4820","image-button-response","47","null","333161","685c6ca90f751d3aae6b1794","685c6e1040fe409a291e1d35","5e121701dc79bd8a1a22ca99","false","false","Bird","https://kisumu-drawings.s3-us-west-1.amazonaws.com/24-009.png","2","Bird","24-009.png"
"","3056","image-button-response","48","null","336721","685c6ca90f751d3aae6b1794","685c6e1040fe409a291e1d35","5e121701dc79bd8a1a22ca99","false","false","Airplane","https://kisumu-drawings.s3-us-west-1.amazonaws.com/58-013.png","0","Airplane","58-013.png"
"","4364","image-button-response","49","null","341593","685c6ca90f751d3aae6b1794","685c6e1040fe409a291e1d35","5e121701dc79bd8a1a22ca99","false","false","Bird","https://kisumu-drawings.s3-us-west-1.amazonaws.com/104-015.png","2","Bird","104-015.png"
"","10740","image-button-response","50","null","352841","685c6ca90f751d3aae6b1794","685c6e1040fe409a291e1d35","5e121701dc79bd8a1a22ca99","false","false","Airplane","https://kisumu-drawings.s3-us-west-1.amazonaws.com/65-006.png","8","House","65-006.png"
"","6635","image-button-response","51","null","359993","685c6ca90f751d3aae6b1794","685c6e1040fe409a291e1d35","5e121701dc79bd8a1a22ca99","false","false","Car","https://kisumu-drawings.s3-us-west-1.amazonaws.com/65-013.png","3","Car","65-013.png"
"","3474","image-button-response","52","null","363977","685c6ca90f751d3aae6b1794","685c6e1040fe409a291e1d35","5e121701dc79bd8a1a22ca99","false","false","Cat","https://kisumu-drawings.s3-us-west-1.amazonaws.com/24-007.png","4","Cat","24-007.png"
"","7111","image-button-response","53","null","371593","685c6ca90f751d3aae6b1794","685c6e1040fe409a291e1d35","5e121701dc79bd8a1a22ca99","false","false","Hat","https://kisumu-drawings.s3-us-west-1.amazonaws.com/58-012.png","0","Airplane","58-012.png"
"","2853","image-button-response","54","null","374953","685c6ca90f751d3aae6b1794","685c6e1040fe409a291e1d35","5e121701dc79bd8a1a22ca99","false","false","Bird","https://kisumu-drawings.s3-us-west-1.amazonaws.com/90-010.png","0","Airplane","90-010.png"
"","4225","image-button-response","55","null","379682","685c6ca90f751d3aae6b1794","685c6e1040fe409a291e1d35","5e121701dc79bd8a1a22ca99","false","false","House","https://kisumu-drawings.s3-us-west-1.amazonaws.com/57-015.png","8","House","57-015.png"
"","3671","image-button-response","56","null","383865","685c6ca90f751d3aae6b1794","685c6e1040fe409a291e1d35","5e121701dc79bd8a1a22ca99","false","false","Bird","https://kisumu-drawings.s3-us-west-1.amazonaws.com/65-005.png","8","House","65-005.png"
"","5756","image-button-response","57","null","390137","685c6ca90f751d3aae6b1794","685c6e1040fe409a291e1d35","5e121701dc79bd8a1a22ca99","false","false","Airplane","https://kisumu-drawings.s3-us-west-1.amazonaws.com/24-008.png","2","Bird","24-008.png"
"","7165","image-button-response","58","null","397817","685c6ca90f751d3aae6b1794","685c6e1040fe409a291e1d35","5e121701dc79bd8a1a22ca99","false","false","Bicycle","https://kisumu-drawings.s3-us-west-1.amazonaws.com/3-006.png","2","Bird","3-006.png"
"","4497","image-button-response","59","null","402825","685c6ca90f751d3aae6b1794","685c6e1040fe409a291e1d35","5e121701dc79bd8a1a22ca99","false","false","Bicycle","https://kisumu-drawings.s3-us-west-1.amazonaws.com/104-016.png","1","Bicycle","104-016.png"
"","4278","image-button-response","60","null","407609","685c6ca90f751d3aae6b1794","685c6e1040fe409a291e1d35","5e121701dc79bd8a1a22ca99","false","false","Hat","https://kisumu-drawings.s3-us-west-1.amazonaws.com/23-014.png","8","House","23-014.png"
"","4257","image-button-response","61","null","412377","685c6ca90f751d3aae6b1794","685c6e1040fe409a291e1d35","5e121701dc79bd8a1a22ca99","false","false","Watch","https://kisumu-drawings.s3-us-west-1.amazonaws.com/89-009.png","11","Watch","89-009.png"
"","7433","image-button-response","62","null","420313","685c6ca90f751d3aae6b1794","685c6e1040fe409a291e1d35","5e121701dc79bd8a1a22ca99","false","false","Bicycle","https://kisumu-drawings.s3-us-west-1.amazonaws.com/24-010.png","2","Bird","24-010.png"
"","3509","image-button-response","63","null","424337","685c6ca90f751d3aae6b1794","685c6e1040fe409a291e1d35","5e121701dc79bd8a1a22ca99","false","false","Car","https://kisumu-drawings.s3-us-west-1.amazonaws.com/58-010.png","3","Car","58-010.png"
"","2370","image-button-response","64","null","427225","685c6ca90f751d3aae6b1794","685c6e1040fe409a291e1d35","5e121701dc79bd8a1a22ca99","false","false","Tree","https://kisumu-drawings.s3-us-west-1.amazonaws.com/58-006.png","10","Tree","58-006.png"
"","3051","image-button-response","65","null","430785","685c6ca90f751d3aae6b1794","685c6e1040fe409a291e1d35","5e121701dc79bd8a1a22ca99","false","false","Chair","https://kisumu-drawings.s3-us-west-1.amazonaws.com/58-008.png","5","Chair","58-008.png"
"","3825","image-button-response","66","null","435121","685c6ca90f751d3aae6b1794","685c6e1040fe409a291e1d35","5e121701dc79bd8a1a22ca99","false","false","Cup","https://kisumu-drawings.s3-us-west-1.amazonaws.com/103-006.png","6","Cup","103-006.png"
"","2940","image-button-response","67","null","438577","685c6ca90f751d3aae6b1794","685c6e1040fe409a291e1d35","5e121701dc79bd8a1a22ca99","false","false","Cup","https://kisumu-drawings.s3-us-west-1.amazonaws.com/57-010.png","6","Cup","57-010.png"
"","5096","image-button-response","68","null","444177","685c6ca90f751d3aae6b1794","685c6e1040fe409a291e1d35","5e121701dc79bd8a1a22ca99","false","false","Tree","https://kisumu-drawings.s3-us-west-1.amazonaws.com/3-015.png","10","Tree","3-015.png"
"","3984","image-button-response","69","null","448673","685c6ca90f751d3aae6b1794","685c6e1040fe409a291e1d35","5e121701dc79bd8a1a22ca99","false","false","Chair","https://kisumu-drawings.s3-us-west-1.amazonaws.com/3-010.png","10","Tree","3-010.png"
"","7275","image-button-response","70","null","456465","685c6ca90f751d3aae6b1794","685c6e1040fe409a291e1d35","5e121701dc79bd8a1a22ca99","false","false","Hat","https://kisumu-drawings.s3-us-west-1.amazonaws.com/2-006.png","8","House","2-006.png"
"","5053","image-button-response","71","null","462025","685c6ca90f751d3aae6b1794","685c6e1040fe409a291e1d35","5e121701dc79bd8a1a22ca99","false","false","Cat","https://kisumu-drawings.s3-us-west-1.amazonaws.com/104-013.png","4","Cat","104-013.png"
"","5827","image-button-response","72","null","468369","685c6ca90f751d3aae6b1794","685c6e1040fe409a291e1d35","5e121701dc79bd8a1a22ca99","false","false","Rabbit","https://kisumu-drawings.s3-us-west-1.amazonaws.com/90-007.png","2","Bird","90-007.png"
"","7620","image-button-response","73","null","476505","685c6ca90f751d3aae6b1794","685c6e1040fe409a291e1d35","5e121701dc79bd8a1a22ca99","false","false","Bicycle","https://kisumu-drawings.s3-us-west-1.amazonaws.com/58-014.png","1","Bicycle","58-014.png"
"","3578","image-button-response","74","null","480593","685c6ca90f751d3aae6b1794","685c6e1040fe409a291e1d35","5e121701dc79bd8a1a22ca99","false","false","Rabbit","https://kisumu-drawings.s3-us-west-1.amazonaws.com/65-016.png","2","Bird","65-016.png"
"","2091","image-button-response","75","null","483193","685c6ca90f751d3aae6b1794","685c6e1040fe409a291e1d35","5e121701dc79bd8a1a22ca99","false","false","Tree","https://kisumu-drawings.s3-us-west-1.amazonaws.com/24-013.png","10","Tree","24-013.png"
