"view_history","rt","trial_type","trial_index","plugin_version","time_elapsed","study_id","session_id","participant_id","catch_trial","prep_trial","sketcher_category","stimulus","response","response_category","sketch_id"
"[{""page_index"":0,""viewing_time"":12306},{""page_index"":1,""viewing_time"":5543},{""page_index"":2,""viewing_time"":5943},{""page_index"":3,""viewing_time"":9359}]","33151","instructions","0","null","33159","685c6ca90f751d3aae6b1794","685c6e0cdc36e92df6e5e790","5ea89d0c5a0a9c12978f8263","","","","","","",""
"","4105","image-button-response","1","null","38270","685c6ca90f751d3aae6b1794","685c6e0cdc36e92df6e5e790","5ea89d0c5a0a9c12978f8263","false","true","car","stimuli/prep_trials/1_car_prep.png","3","Car",""
"","1703","image-button-response","2","null","40477","685c6ca90f751d3aae6b1794","685c6e0cdc36e92df6e5e790","5ea89d0c5a0a9c12978f8263","false","true","cat","stimuli/prep_trials/0_cat_prep.jpg","4","Cat",""
"","3708","image-button-response","3","null","44700","685c6ca90f751d3aae6b1794","685c6e0cdc36e92df6e5e790","5ea89d0c5a0a9c12978f8263","false","false","Bicycle","https://kisumu-drawings.s3-us-west-1.amazonaws.com/92-005.png","3","Car","92-005.png"
"","3052","image-button-response","4","null","48267","685c6ca90f751d3aae6b1794","685c6e0cdc36e92df6e5e790","5ea89d0c5a0a9c12978f8263","false","false","Tree","https://kisumu-drawings.s3-us-west-1.amazonaws.com/25-016.png","10","Tree","25-016.png"
"","1696","image-button-response","5","null","50474","685c6ca90f751d3aae6b1794","685c6e0cdc36e92df6e5e790","5ea89d0c5a0a9c12978f8263","false","false","Tree","https://kisumu-drawings.s3-us-west-1.amazonaws.com/106-012.png","10","Tree","106-012.png"
"","3072","image-button-response","6","null","54058","685c6ca90f751d3aae6b1794","685c6e0cdc36e92df6e5e790","5ea89d0c5a0a9c12978f8263","false","false","Airplane","https://kisumu-drawings.s3-us-west-1.amazonaws.com/59-011.png","0","Airplane","59-011.png"
"","2436","image-button-response","7","null","57001","685c6ca90f751d3aae6b1794","685c6e0cdc36e92df6e5e790","5ea89d0c5a0a9c12978f8263","false","false","Hat","https://kisumu-drawings.s3-us-west-1.amazonaws.com/5-007.png","8","House","5-007.png"
"","2249","image-button-response","8","null","59752","685c6ca90f751d3aae6b1794","685c6e0cdc36e92df6e5e790","5ea89d0c5a0a9c12978f8263","false","false","Car","https://kisumu-drawings.s3-us-west-1.amazonaws.com/67-005.png","3","Car","67-005.png"
"","5067","image-button-response","9","null","65335","685c6ca90f751d3aae6b1794","685c6e0cdc36e92df6e5e790","5ea89d0c5a0a9c12978f8263","false","false","Cat","https://kisumu-drawings.s3-us-west-1.amazonaws.com/59-008.png","4","Cat","59-008.png"
"","6503","image-button-response","10","null","72342","685c6ca90f751d3aae6b1794","685c6e0cdc36e92df6e5e790","5ea89d0c5a0a9c12978f8263","false","false","Watch","https://kisumu-drawings.s3-us-west-1.amazonaws.com/5-009.png","9","Rabbit","5-009.png"
"","4475","image-button-response","11","null","77325","685c6ca90f751d3aae6b1794","685c6e0cdc36e92df6e5e790","5ea89d0c5a0a9c12978f8263","false","false","Watch","https://kisumu-drawings.s3-us-west-1.amazonaws.com/67-006.png","11","Watch","67-006.png"
"","3865","image-button-response","12","null","81691","685c6ca90f751d3aae6b1794","685c6e0cdc36e92df6e5e790","5ea89d0c5a0a9c12978f8263","false","false","Bicycle","https://kisumu-drawings.s3-us-west-1.amazonaws.com/25-005.png","3","Car","25-005.png"
"","11943","image-button-response","13","null","94137","685c6ca90f751d3aae6b1794","685c6e0cdc36e92df6e5e790","5ea89d0c5a0a9c12978f8263","false","false","Bird","https://kisumu-drawings.s3-us-west-1.amazonaws.com/34-012.png","5","Chair","34-012.png"
"","5008","image-button-response","14","null","99648","685c6ca90f751d3aae6b1794","685c6e0cdc36e92df6e5e790","5ea89d0c5a0a9c12978f8263","false","false","Tree","https://kisumu-drawings.s3-us-west-1.amazonaws.com/5-008.png","11","Watch","5-008.png"
"","6927","image-button-response","15","null","107078","685c6ca90f751d3aae6b1794","685c6e0cdc36e92df6e5e790","5ea89d0c5a0a9c12978f8263","false","false","Cat","https://kisumu-drawings.s3-us-west-1.amazonaws.com/25-010.png","0","Airplane","25-010.png"
"","7464","image-button-response","16","null","115044","685c6ca90f751d3aae6b1794","685c6e0cdc36e92df6e5e790","5ea89d0c5a0a9c12978f8263","false","false","Rabbit","https://kisumu-drawings.s3-us-west-1.amazonaws.com/25-013.png","9","Rabbit","25-013.png"
"","11713","image-button-response","17","null","127266","685c6ca90f751d3aae6b1794","685c6e0cdc36e92df6e5e790","5ea89d0c5a0a9c12978f8263","false","false","Car","https://kisumu-drawings.s3-us-west-1.amazonaws.com/92-007.png","0","Airplane","92-007.png"
"","3552","image-button-response","18","null","131321","685c6ca90f751d3aae6b1794","685c6e0cdc36e92df6e5e790","5ea89d0c5a0a9c12978f8263","false","false","Tree","https://kisumu-drawings.s3-us-west-1.amazonaws.com/67-008.png","10","Tree","67-008.png"
"","2253","image-button-response","19","null","134088","685c6ca90f751d3aae6b1794","685c6e0cdc36e92df6e5e790","5ea89d0c5a0a9c12978f8263","false","false","Car","https://kisumu-drawings.s3-us-west-1.amazonaws.com/25-007.png","3","Car","25-007.png"
"","3265","image-button-response","20","null","137863","685c6ca90f751d3aae6b1794","685c6e0cdc36e92df6e5e790","5ea89d0c5a0a9c12978f8263","false","false","Hat","https://kisumu-drawings.s3-us-west-1.amazonaws.com/60-005.png","7","Hat","60-005.png"
"","3768","image-button-response","21","null","142134","685c6ca90f751d3aae6b1794","685c6e0cdc36e92df6e5e790","5ea89d0c5a0a9c12978f8263","false","false","Cup","https://kisumu-drawings.s3-us-west-1.amazonaws.com/60-007.png","6","Cup","60-007.png"
"","2272","image-button-response","22","null","144910","685c6ca90f751d3aae6b1794","685c6e0cdc36e92df6e5e790","5ea89d0c5a0a9c12978f8263","false","false","Car","https://kisumu-drawings.s3-us-west-1.amazonaws.com/60-012.png","3","Car","60-012.png"
"","1817","image-button-response","23","null","147229","685c6ca90f751d3aae6b1794","685c6e0cdc36e92df6e5e790","5ea89d0c5a0a9c12978f8263","true","false","airplane","stimuli/catch_trials/0_airplane_catch.jpg","0","Airplane",""
"","2370","image-button-response","24","null","150101","685c6ca90f751d3aae6b1794","685c6e0cdc36e92df6e5e790","5ea89d0c5a0a9c12978f8263","false","false","Bird","https://kisumu-drawings.s3-us-west-1.amazonaws.com/60-014.png","2","Bird","60-014.png"
"","2585","image-button-response","25","null","153190","685c6ca90f751d3aae6b1794","685c6e0cdc36e92df6e5e790","5ea89d0c5a0a9c12978f8263","false","false","Chair","https://kisumu-drawings.s3-us-west-1.amazonaws.com/106-007.png","5","Chair","106-007.png"
"","7648","image-button-response","26","null","161339","685c6ca90f751d3aae6b1794","685c6e0cdc36e92df6e5e790","5ea89d0c5a0a9c12978f8263","false","false","Rabbit","https://kisumu-drawings.s3-us-west-1.amazonaws.com/5-005.png","11","Watch","5-005.png"
"","2657","image-button-response","27","null","164499","685c6ca90f751d3aae6b1794","685c6e0cdc36e92df6e5e790","5ea89d0c5a0a9c12978f8263","false","false","Bird","https://kisumu-drawings.s3-us-west-1.amazonaws.com/67-016.png","2","Bird","67-016.png"
"","3333","image-button-response","28","null","168338","685c6ca90f751d3aae6b1794","685c6e0cdc36e92df6e5e790","5ea89d0c5a0a9c12978f8263","false","false","Tree","https://kisumu-drawings.s3-us-west-1.amazonaws.com/60-009.png","10","Tree","60-009.png"
"","2667","image-button-response","29","null","171507","685c6ca90f751d3aae6b1794","685c6e0cdc36e92df6e5e790","5ea89d0c5a0a9c12978f8263","false","false","Cup","https://kisumu-drawings.s3-us-west-1.amazonaws.com/92-010.png","6","Cup","92-010.png"
"","2113","image-button-response","30","null","174129","685c6ca90f751d3aae6b1794","685c6e0cdc36e92df6e5e790","5ea89d0c5a0a9c12978f8263","false","false","Rabbit","https://kisumu-drawings.s3-us-west-1.amazonaws.com/60-008.png","2","Bird","60-008.png"
"","4148","image-button-response","31","null","178785","685c6ca90f751d3aae6b1794","685c6e0cdc36e92df6e5e790","5ea89d0c5a0a9c12978f8263","false","false","House","https://kisumu-drawings.s3-us-west-1.amazonaws.com/67-009.png","8","House","67-009.png"
"","13160","image-button-response","32","null","192446","685c6ca90f751d3aae6b1794","685c6e0cdc36e92df6e5e790","5ea89d0c5a0a9c12978f8263","false","false","Chair","https://kisumu-drawings.s3-us-west-1.amazonaws.com/5-014.png","10","Tree","5-014.png"
"","3585","image-button-response","33","null","196533","685c6ca90f751d3aae6b1794","685c6e0cdc36e92df6e5e790","5ea89d0c5a0a9c12978f8263","false","false","House","https://kisumu-drawings.s3-us-west-1.amazonaws.com/60-006.png","8","House","60-006.png"
"","13714","image-button-response","34","null","210748","685c6ca90f751d3aae6b1794","685c6e0cdc36e92df6e5e790","5ea89d0c5a0a9c12978f8263","false","false","Bicycle","https://kisumu-drawings.s3-us-west-1.amazonaws.com/5-015.png","7","Hat","5-015.png"
"","2846","image-button-response","35","null","214108","685c6ca90f751d3aae6b1794","685c6e0cdc36e92df6e5e790","5ea89d0c5a0a9c12978f8263","false","false","Airplane","https://kisumu-drawings.s3-us-west-1.amazonaws.com/67-014.png","0","Airplane","67-014.png"
"","2206","image-button-response","36","null","216828","685c6ca90f751d3aae6b1794","685c6e0cdc36e92df6e5e790","5ea89d0c5a0a9c12978f8263","false","false","Watch","https://kisumu-drawings.s3-us-west-1.amazonaws.com/92-008.png","11","Watch","92-008.png"
"","2385","image-button-response","37","null","219717","685c6ca90f751d3aae6b1794","685c6e0cdc36e92df6e5e790","5ea89d0c5a0a9c12978f8263","false","false","Watch","https://kisumu-drawings.s3-us-west-1.amazonaws.com/106-006.png","11","Watch","106-006.png"
"","2179","image-button-response","38","null","222403","685c6ca90f751d3aae6b1794","685c6e0cdc36e92df6e5e790","5ea89d0c5a0a9c12978f8263","false","false","House","https://kisumu-drawings.s3-us-west-1.amazonaws.com/25-014.png","8","House","25-014.png"
"","2514","image-button-response","39","null","225419","685c6ca90f751d3aae6b1794","685c6e0cdc36e92df6e5e790","5ea89d0c5a0a9c12978f8263","false","false","Bicycle","https://kisumu-drawings.s3-us-west-1.amazonaws.com/106-009.png","1","Bicycle","106-009.png"
"","3147","image-button-response","40","null","229074","685c6ca90f751d3aae6b1794","685c6e0cdc36e92df6e5e790","5ea89d0c5a0a9c12978f8263","false","false","Hat","https://kisumu-drawings.s3-us-west-1.amazonaws.com/25-011.png","8","House","25-011.png"
"","2338","image-button-response","41","null","231914","685c6ca90f751d3aae6b1794","685c6e0cdc36e92df6e5e790","5ea89d0c5a0a9c12978f8263","false","false","Cat","https://kisumu-drawings.s3-us-west-1.amazonaws.com/106-005.png","4","Cat","106-005.png"
"","4577","image-button-response","42","null","236993","685c6ca90f751d3aae6b1794","685c6e0cdc36e92df6e5e790","5ea89d0c5a0a9c12978f8263","false","false","Cat","https://kisumu-drawings.s3-us-west-1.amazonaws.com/5-011.png","2","Bird","5-011.png"
"","4528","image-button-response","43","null","242024","685c6ca90f751d3aae6b1794","685c6e0cdc36e92df6e5e790","5ea89d0c5a0a9c12978f8263","false","false","Chair","https://kisumu-drawings.s3-us-west-1.amazonaws.com/92-009.png","8","House","92-009.png"
"","10416","image-button-response","44","null","252943","685c6ca90f751d3aae6b1794","685c6e0cdc36e92df6e5e790","5ea89d0c5a0a9c12978f8263","false","false","Hat","https://kisumu-drawings.s3-us-west-1.amazonaws.com/106-011.png","4","Cat","106-011.png"
"","11751","image-button-response","45","null","265196","685c6ca90f751d3aae6b1794","685c6e0cdc36e92df6e5e790","5ea89d0c5a0a9c12978f8263","false","false","Cat","https://kisumu-drawings.s3-us-west-1.amazonaws.com/67-013.png","4","Cat","67-013.png"
"","8770","image-button-response","46","null","274468","685c6ca90f751d3aae6b1794","685c6e0cdc36e92df6e5e790","5ea89d0c5a0a9c12978f8263","false","false","Bird","https://kisumu-drawings.s3-us-west-1.amazonaws.com/106-015.png","2","Bird","106-015.png"
"","9533","image-button-response","47","null","284507","685c6ca90f751d3aae6b1794","685c6e0cdc36e92df6e5e790","5ea89d0c5a0a9c12978f8263","false","false","Airplane","https://kisumu-drawings.s3-us-west-1.amazonaws.com/5-010.png","7","Hat","5-010.png"
"","4462","image-button-response","48","null","289474","685c6ca90f751d3aae6b1794","685c6e0cdc36e92df6e5e790","5ea89d0c5a0a9c12978f8263","false","false","House","https://kisumu-drawings.s3-us-west-1.amazonaws.com/5-013.png","4","Cat","5-013.png"
"","4385","image-button-response","49","null","294362","685c6ca90f751d3aae6b1794","685c6e0cdc36e92df6e5e790","5ea89d0c5a0a9c12978f8263","false","false","Bird","https://kisumu-drawings.s3-us-west-1.amazonaws.com/5-016.png","10","Tree","5-016.png"
"","2324","image-button-response","50","null","297201","685c6ca90f751d3aae6b1794","685c6e0cdc36e92df6e5e790","5ea89d0c5a0a9c12978f8263","false","false","House","https://kisumu-drawings.s3-us-west-1.amazonaws.com/92-013.png","8","House","92-013.png"
"","2474","image-button-response","51","null","300177","685c6ca90f751d3aae6b1794","685c6e0cdc36e92df6e5e790","5ea89d0c5a0a9c12978f8263","false","false","Hat","https://kisumu-drawings.s3-us-west-1.amazonaws.com/67-012.png","3","Car","67-012.png"
"","2217","image-button-response","52","null","302896","685c6ca90f751d3aae6b1794","685c6e0cdc36e92df6e5e790","5ea89d0c5a0a9c12978f8263","false","false","Hat","https://kisumu-drawings.s3-us-west-1.amazonaws.com/92-011.png","3","Car","92-011.png"
"","2056","image-button-response","53","null","305456","685c6ca90f751d3aae6b1794","685c6e0cdc36e92df6e5e790","5ea89d0c5a0a9c12978f8263","false","false","Cat","https://kisumu-drawings.s3-us-west-1.amazonaws.com/92-014.png","4","Cat","92-014.png"
"","2866","image-button-response","54","null","308824","685c6ca90f751d3aae6b1794","685c6e0cdc36e92df6e5e790","5ea89d0c5a0a9c12978f8263","false","false","Rabbit","https://kisumu-drawings.s3-us-west-1.amazonaws.com/92-016.png","4","Cat","92-016.png"
"","4802","image-button-response","55","null","314136","685c6ca90f751d3aae6b1794","685c6e0cdc36e92df6e5e790","5ea89d0c5a0a9c12978f8263","false","false","Watch","https://kisumu-drawings.s3-us-west-1.amazonaws.com/25-015.png","11","Watch","25-015.png"
"","3138","image-button-response","56","null","317775","685c6ca90f751d3aae6b1794","685c6e0cdc36e92df6e5e790","5ea89d0c5a0a9c12978f8263","false","false","Airplane","https://kisumu-drawings.s3-us-west-1.amazonaws.com/92-006.png","0","Airplane","92-006.png"
"","2033","image-button-response","57","null","320311","685c6ca90f751d3aae6b1794","685c6e0cdc36e92df6e5e790","5ea89d0c5a0a9c12978f8263","false","false","Car","https://kisumu-drawings.s3-us-west-1.amazonaws.com/106-016.png","3","Car","106-016.png"
"","4746","image-button-response","58","null","325558","685c6ca90f751d3aae6b1794","685c6e0cdc36e92df6e5e790","5ea89d0c5a0a9c12978f8263","false","false","Chair","https://kisumu-drawings.s3-us-west-1.amazonaws.com/67-010.png","5","Chair","67-010.png"
"","10738","image-button-response","59","null","336797","685c6ca90f751d3aae6b1794","685c6e0cdc36e92df6e5e790","5ea89d0c5a0a9c12978f8263","false","false","Chair","https://kisumu-drawings.s3-us-west-1.amazonaws.com/60-011.png","8","House","60-011.png"
"","7217","image-button-response","60","null","344516","685c6ca90f751d3aae6b1794","685c6e0cdc36e92df6e5e790","5ea89d0c5a0a9c12978f8263","false","false","Chair","https://kisumu-drawings.s3-us-west-1.amazonaws.com/25-009.png","5","Chair","25-009.png"
"","3097","image-button-response","61","null","348115","685c6ca90f751d3aae6b1794","685c6e0cdc36e92df6e5e790","5ea89d0c5a0a9c12978f8263","false","false","Bird","https://kisumu-drawings.s3-us-west-1.amazonaws.com/92-012.png","2","Bird","92-012.png"
"","3187","image-button-response","62","null","351811","685c6ca90f751d3aae6b1794","685c6e0cdc36e92df6e5e790","5ea89d0c5a0a9c12978f8263","false","false","Airplane","https://kisumu-drawings.s3-us-west-1.amazonaws.com/25-006.png","0","Airplane","25-006.png"
"","2986","image-button-response","63","null","355298","685c6ca90f751d3aae6b1794","685c6e0cdc36e92df6e5e790","5ea89d0c5a0a9c12978f8263","false","false","Bicycle","https://kisumu-drawings.s3-us-west-1.amazonaws.com/67-015.png","2","Bird","67-015.png"
"","2874","image-button-response","64","null","358674","685c6ca90f751d3aae6b1794","685c6e0cdc36e92df6e5e790","5ea89d0c5a0a9c12978f8263","false","false","Airplane","https://kisumu-drawings.s3-us-west-1.amazonaws.com/106-008.png","0","Airplane","106-008.png"
"","2938","image-button-response","65","null","362122","685c6ca90f751d3aae6b1794","685c6e0cdc36e92df6e5e790","5ea89d0c5a0a9c12978f8263","false","false","Cup","https://kisumu-drawings.s3-us-west-1.amazonaws.com/67-011.png","6","Cup","67-011.png"
"","2414","image-button-response","66","null","365049","685c6ca90f751d3aae6b1794","685c6e0cdc36e92df6e5e790","5ea89d0c5a0a9c12978f8263","false","false","House","https://kisumu-drawings.s3-us-west-1.amazonaws.com/106-013.png","8","House","106-013.png"
"","2116","image-button-response","67","null","367681","685c6ca90f751d3aae6b1794","685c6e0cdc36e92df6e5e790","5ea89d0c5a0a9c12978f8263","false","false","Tree","https://kisumu-drawings.s3-us-west-1.amazonaws.com/92-015.png","10","Tree","92-015.png"
"","2831","image-button-response","68","null","371025","685c6ca90f751d3aae6b1794","685c6e0cdc36e92df6e5e790","5ea89d0c5a0a9c12978f8263","false","false","Rabbit","https://kisumu-drawings.s3-us-west-1.amazonaws.com/67-007.png","9","Rabbit","67-007.png"
"","5254","image-button-response","69","null","376792","685c6ca90f751d3aae6b1794","685c6e0cdc36e92df6e5e790","5ea89d0c5a0a9c12978f8263","false","false","Bicycle","https://kisumu-drawings.s3-us-west-1.amazonaws.com/60-015.png","1","Bicycle","60-015.png"
"","3593","image-button-response","70","null","380887","685c6ca90f751d3aae6b1794","685c6e0cdc36e92df6e5e790","5ea89d0c5a0a9c12978f8263","false","false","Car","https://kisumu-drawings.s3-us-west-1.amazonaws.com/5-006.png","3","Car","5-006.png"
"","12282","image-button-response","71","null","393671","685c6ca90f751d3aae6b1794","685c6e0cdc36e92df6e5e790","5ea89d0c5a0a9c12978f8263","false","false","Rabbit","https://kisumu-drawings.s3-us-west-1.amazonaws.com/106-014.png","4","Cat","106-014.png"
"","2720","image-button-response","72","null","396893","685c6ca90f751d3aae6b1794","685c6e0cdc36e92df6e5e790","5ea89d0c5a0a9c12978f8263","false","false","Cup","https://kisumu-drawings.s3-us-west-1.amazonaws.com/106-010.png","6","Cup","106-010.png"
"","4122","image-button-response","73","null","401517","685c6ca90f751d3aae6b1794","685c6e0cdc36e92df6e5e790","5ea89d0c5a0a9c12978f8263","false","false","Cup","https://kisumu-drawings.s3-us-west-1.amazonaws.com/5-012.png","6","Cup","5-012.png"
"","2115","image-button-response","74","null","404133","685c6ca90f751d3aae6b1794","685c6e0cdc36e92df6e5e790","5ea89d0c5a0a9c12978f8263","false","false","Watch","https://kisumu-drawings.s3-us-west-1.amazonaws.com/60-010.png","11","Watch","60-010.png"
"","2018","image-button-response","75","null","406653","685c6ca90f751d3aae6b1794","685c6e0cdc36e92df6e5e790","5ea89d0c5a0a9c12978f8263","false","false","Cup","https://kisumu-drawings.s3-us-west-1.amazonaws.com/25-012.png","6","Cup","25-012.png"
