"view_history","rt","trial_type","trial_index","plugin_version","time_elapsed","study_id","session_id","participant_id","catch_trial","prep_trial","sketcher_category","stimulus","response","response_category","sketch_id"
"[{""page_index"":0,""viewing_time"":14288},{""page_index"":1,""viewing_time"":5941},{""page_index"":2,""viewing_time"":6612},{""page_index"":3,""viewing_time"":7983}]","34824","instructions","0","null","34834","685c6ca90f751d3aae6b1794","685c71dae01431897fd85532","5ed9c3054268815691ed0e2c","","","","","","",""
"","5267","image-button-response","1","null","41105","685c6ca90f751d3aae6b1794","685c71dae01431897fd85532","5ed9c3054268815691ed0e2c","false","true","car","stimuli/prep_trials/1_car_prep.png","3","Car",""
"","2833","image-button-response","2","null","44444","685c6ca90f751d3aae6b1794","685c71dae01431897fd85532","5ed9c3054268815691ed0e2c","false","true","cat","stimuli/prep_trials/0_cat_prep.jpg","4","Cat",""
"","6191","image-button-response","3","null","51137","685c6ca90f751d3aae6b1794","685c71dae01431897fd85532","5ed9c3054268815691ed0e2c","false","false","House","https://kisumu-drawings.s3-us-west-1.amazonaws.com/116-015.png","8","House","116-015.png"
"","13314","image-button-response","4","null","64964","685c6ca90f751d3aae6b1794","685c71dae01431897fd85532","5ed9c3054268815691ed0e2c","false","false","Cat","https://kisumu-drawings.s3-us-west-1.amazonaws.com/24-007.png","4","Cat","24-007.png"
"","5768","image-button-response","5","null","71234","685c6ca90f751d3aae6b1794","685c71dae01431897fd85532","5ed9c3054268815691ed0e2c","false","false","Bird","https://kisumu-drawings.s3-us-west-1.amazonaws.com/67-016.png","2","Bird","67-016.png"
"","4993","image-button-response","6","null","76735","685c6ca90f751d3aae6b1794","685c71dae01431897fd85532","5ed9c3054268815691ed0e2c","false","false","Hat","https://kisumu-drawings.s3-us-west-1.amazonaws.com/43-006.png","7","Hat","43-006.png"
"","26279","image-button-response","7","null","103527","685c6ca90f751d3aae6b1794","685c71dae01431897fd85532","5ed9c3054268815691ed0e2c","false","false","Rabbit","https://kisumu-drawings.s3-us-west-1.amazonaws.com/90-007.png","9","Rabbit","90-007.png"
"","4380","image-button-response","8","null","108414","685c6ca90f751d3aae6b1794","685c71dae01431897fd85532","5ed9c3054268815691ed0e2c","false","false","Tree","https://kisumu-drawings.s3-us-west-1.amazonaws.com/115-016.png","10","Tree","115-016.png"
"","3268","image-button-response","9","null","112184","685c6ca90f751d3aae6b1794","685c71dae01431897fd85532","5ed9c3054268815691ed0e2c","false","false","Cup","https://kisumu-drawings.s3-us-west-1.amazonaws.com/99-009.png","6","Cup","99-009.png"
"","21638","image-button-response","10","null","134325","685c6ca90f751d3aae6b1794","685c71dae01431897fd85532","5ed9c3054268815691ed0e2c","false","false","Hat","https://kisumu-drawings.s3-us-west-1.amazonaws.com/104-010.png","0","Airplane","104-010.png"
"","27060","image-button-response","11","null","161894","685c6ca90f751d3aae6b1794","685c71dae01431897fd85532","5ed9c3054268815691ed0e2c","false","false","Tree","https://kisumu-drawings.s3-us-west-1.amazonaws.com/6-014.png","0","Airplane","6-014.png"
"","22547","image-button-response","12","null","184948","685c6ca90f751d3aae6b1794","685c71dae01431897fd85532","5ed9c3054268815691ed0e2c","false","false","Airplane","https://kisumu-drawings.s3-us-west-1.amazonaws.com/76-008.png","3","Car","76-008.png"
"","48079","image-button-response","13","null","233537","685c6ca90f751d3aae6b1794","685c71dae01431897fd85532","5ed9c3054268815691ed0e2c","false","false","Watch","https://kisumu-drawings.s3-us-west-1.amazonaws.com/48-012.png","11","Watch","48-012.png"
"","8984","image-button-response","14","null","243027","685c6ca90f751d3aae6b1794","685c71dae01431897fd85532","5ed9c3054268815691ed0e2c","false","false","Chair","https://kisumu-drawings.s3-us-west-1.amazonaws.com/51-009.png","5","Chair","51-009.png"
"","14128","image-button-response","15","null","257656","685c6ca90f751d3aae6b1794","685c71dae01431897fd85532","5ed9c3054268815691ed0e2c","false","false","Cat","https://kisumu-drawings.s3-us-west-1.amazonaws.com/88-013.png","4","Cat","88-013.png"
"","6041","image-button-response","16","null","264199","685c6ca90f751d3aae6b1794","685c71dae01431897fd85532","5ed9c3054268815691ed0e2c","false","false","Car","https://kisumu-drawings.s3-us-west-1.amazonaws.com/112-013.png","3","Car","112-013.png"
"","29900","image-button-response","17","null","294611","685c6ca90f751d3aae6b1794","685c71dae01431897fd85532","5ed9c3054268815691ed0e2c","false","false","Chair","https://kisumu-drawings.s3-us-west-1.amazonaws.com/20-013.png","0","Airplane","20-013.png"
"","10827","image-button-response","18","null","305944","685c6ca90f751d3aae6b1794","685c71dae01431897fd85532","5ed9c3054268815691ed0e2c","false","false","Hat","https://kisumu-drawings.s3-us-west-1.amazonaws.com/20-006.png","7","Hat","20-006.png"
"","6539","image-button-response","19","null","312989","685c6ca90f751d3aae6b1794","685c71dae01431897fd85532","5ed9c3054268815691ed0e2c","false","false","Airplane","https://kisumu-drawings.s3-us-west-1.amazonaws.com/46-006.png","0","Airplane","46-006.png"
"","6750","image-button-response","20","null","320251","685c6ca90f751d3aae6b1794","685c71dae01431897fd85532","5ed9c3054268815691ed0e2c","false","false","Hat","https://kisumu-drawings.s3-us-west-1.amazonaws.com/29-015.png","2","Bird","29-015.png"
"","9178","image-button-response","21","null","329933","685c6ca90f751d3aae6b1794","685c71dae01431897fd85532","5ed9c3054268815691ed0e2c","false","false","Rabbit","https://kisumu-drawings.s3-us-west-1.amazonaws.com/78-015.png","9","Rabbit","78-015.png"
"","42203","image-button-response","22","null","372638","685c6ca90f751d3aae6b1794","685c71dae01431897fd85532","5ed9c3054268815691ed0e2c","false","false","Bird","https://kisumu-drawings.s3-us-west-1.amazonaws.com/81-007.png","2","Bird","81-007.png"
"","16763","image-button-response","23","null","389911","685c6ca90f751d3aae6b1794","685c71dae01431897fd85532","5ed9c3054268815691ed0e2c","false","false","House","https://kisumu-drawings.s3-us-west-1.amazonaws.com/40-011.png","8","House","40-011.png"
"","29580","image-button-response","24","null","419995","685c6ca90f751d3aae6b1794","685c71dae01431897fd85532","5ed9c3054268815691ed0e2c","false","false","Tree","https://kisumu-drawings.s3-us-west-1.amazonaws.com/36-006.png","5","Chair","36-006.png"
"","18941","image-button-response","25","null","439444","685c6ca90f751d3aae6b1794","685c71dae01431897fd85532","5ed9c3054268815691ed0e2c","false","false","Bird","https://kisumu-drawings.s3-us-west-1.amazonaws.com/6-009.png","0","Airplane","6-009.png"
"","21619","image-button-response","26","null","461578","685c6ca90f751d3aae6b1794","685c71dae01431897fd85532","5ed9c3054268815691ed0e2c","false","false","Hat","https://kisumu-drawings.s3-us-west-1.amazonaws.com/71-006.png","6","Cup","71-006.png"
"","19052","image-button-response","27","null","481135","685c6ca90f751d3aae6b1794","685c71dae01431897fd85532","5ed9c3054268815691ed0e2c","false","false","Cup","https://kisumu-drawings.s3-us-west-1.amazonaws.com/46-013.png","6","Cup","46-013.png"
"","7319","image-button-response","28","null","488959","685c6ca90f751d3aae6b1794","685c71dae01431897fd85532","5ed9c3054268815691ed0e2c","false","false","Watch","https://kisumu-drawings.s3-us-west-1.amazonaws.com/101-015.png","11","Watch","101-015.png"
"","35645","image-button-response","29","null","525106","685c6ca90f751d3aae6b1794","685c71dae01431897fd85532","5ed9c3054268815691ed0e2c","false","false","Watch","https://kisumu-drawings.s3-us-west-1.amazonaws.com/39-014.png","0","Airplane","39-014.png"
"","45782","image-button-response","30","null","571392","685c6ca90f751d3aae6b1794","685c71dae01431897fd85532","5ed9c3054268815691ed0e2c","false","false","Cat","https://kisumu-drawings.s3-us-west-1.amazonaws.com/48-011.png","4","Cat","48-011.png"
"","55496","image-button-response","31","null","627394","685c6ca90f751d3aae6b1794","685c71dae01431897fd85532","5ed9c3054268815691ed0e2c","false","false","Cat","https://kisumu-drawings.s3-us-west-1.amazonaws.com/106-005.png","4","Cat","106-005.png"
"","8913","image-button-response","32","null","636821","685c6ca90f751d3aae6b1794","685c71dae01431897fd85532","5ed9c3054268815691ed0e2c","false","false","Bicycle","https://kisumu-drawings.s3-us-west-1.amazonaws.com/41-009.png","1","Bicycle","41-009.png"
"","31293","image-button-response","33","null","668623","685c6ca90f751d3aae6b1794","685c71dae01431897fd85532","5ed9c3054268815691ed0e2c","false","false","Watch","https://kisumu-drawings.s3-us-west-1.amazonaws.com/83-005.png","11","Watch","83-005.png"
"","95500","image-button-response","34","null","764625","685c6ca90f751d3aae6b1794","685c71dae01431897fd85532","5ed9c3054268815691ed0e2c","false","false","Car","https://kisumu-drawings.s3-us-west-1.amazonaws.com/1-011.png","10","Tree","1-011.png"
"","8515","image-button-response","35","null","773656","685c6ca90f751d3aae6b1794","685c71dae01431897fd85532","5ed9c3054268815691ed0e2c","false","false","House","https://kisumu-drawings.s3-us-west-1.amazonaws.com/88-010.png","8","House","88-010.png"
"","7872","image-button-response","36","null","782043","685c6ca90f751d3aae6b1794","685c71dae01431897fd85532","5ed9c3054268815691ed0e2c","false","false","House","https://kisumu-drawings.s3-us-west-1.amazonaws.com/50-007.png","8","House","50-007.png"
"","15348","image-button-response","37","null","797907","685c6ca90f751d3aae6b1794","685c71dae01431897fd85532","5ed9c3054268815691ed0e2c","false","false","Tree","https://kisumu-drawings.s3-us-west-1.amazonaws.com/86-012.png","10","Tree","86-012.png"
"","12158","image-button-response","38","null","810567","685c6ca90f751d3aae6b1794","685c71dae01431897fd85532","5ed9c3054268815691ed0e2c","false","false","Bicycle","https://kisumu-drawings.s3-us-west-1.amazonaws.com/82-006.png","3","Car","82-006.png"
"","12779","image-button-response","39","null","823852","685c6ca90f751d3aae6b1794","685c71dae01431897fd85532","5ed9c3054268815691ed0e2c","false","false","Car","https://kisumu-drawings.s3-us-west-1.amazonaws.com/86-007.png","3","Car","86-007.png"
"","21162","image-button-response","40","null","845530","685c6ca90f751d3aae6b1794","685c71dae01431897fd85532","5ed9c3054268815691ed0e2c","false","false","House","https://kisumu-drawings.s3-us-west-1.amazonaws.com/3-013.png","6","Cup","3-013.png"
"","8058","image-button-response","41","null","854099","685c6ca90f751d3aae6b1794","685c71dae01431897fd85532","5ed9c3054268815691ed0e2c","false","false","Car","https://kisumu-drawings.s3-us-west-1.amazonaws.com/47-006.png","3","Car","47-006.png"
"","34845","image-button-response","42","null","889445","685c6ca90f751d3aae6b1794","685c71dae01431897fd85532","5ed9c3054268815691ed0e2c","false","false","Rabbit","https://kisumu-drawings.s3-us-west-1.amazonaws.com/34-008.png","9","Rabbit","34-008.png"
"","38150","image-button-response","43","null","928096","685c6ca90f751d3aae6b1794","685c71dae01431897fd85532","5ed9c3054268815691ed0e2c","false","false","Car","https://kisumu-drawings.s3-us-west-1.amazonaws.com/68-010.png","0","Airplane","68-010.png"
"","21066","image-button-response","44","null","949668","685c6ca90f751d3aae6b1794","685c71dae01431897fd85532","5ed9c3054268815691ed0e2c","false","false","Airplane","https://kisumu-drawings.s3-us-west-1.amazonaws.com/19-013.png","0","Airplane","19-013.png"
"","20090","image-button-response","45","null","970266","685c6ca90f751d3aae6b1794","685c71dae01431897fd85532","5ed9c3054268815691ed0e2c","false","false","Airplane","https://kisumu-drawings.s3-us-west-1.amazonaws.com/100-014.png","0","Airplane","100-014.png"
"","5373","image-button-response","46","null","976146","685c6ca90f751d3aae6b1794","685c71dae01431897fd85532","5ed9c3054268815691ed0e2c","false","false","Bird","https://kisumu-drawings.s3-us-west-1.amazonaws.com/104-015.png","2","Bird","104-015.png"
"","10830","image-button-response","47","null","987483","685c6ca90f751d3aae6b1794","685c71dae01431897fd85532","5ed9c3054268815691ed0e2c","false","false","Rabbit","https://kisumu-drawings.s3-us-west-1.amazonaws.com/47-010.png","4","Cat","47-010.png"
"","8392","image-button-response","48","null","996382","685c6ca90f751d3aae6b1794","685c71dae01431897fd85532","5ed9c3054268815691ed0e2c","false","false","Airplane","https://kisumu-drawings.s3-us-west-1.amazonaws.com/23-012.png","6","Cup","23-012.png"
"","11940","image-button-response","49","null","1008831","685c6ca90f751d3aae6b1794","685c71dae01431897fd85532","5ed9c3054268815691ed0e2c","false","false","Bird","https://kisumu-drawings.s3-us-west-1.amazonaws.com/60-014.png","4","Cat","60-014.png"
"","7976","image-button-response","50","null","1017310","685c6ca90f751d3aae6b1794","685c71dae01431897fd85532","5ed9c3054268815691ed0e2c","false","false","Tree","https://kisumu-drawings.s3-us-west-1.amazonaws.com/45-012.png","10","Tree","45-012.png"
"","34625","image-button-response","51","null","1052438","685c6ca90f751d3aae6b1794","685c71dae01431897fd85532","5ed9c3054268815691ed0e2c","false","false","Airplane","https://kisumu-drawings.s3-us-west-1.amazonaws.com/107-012.png","3","Car","107-012.png"
"","3023","image-button-response","52","null","1055969","685c6ca90f751d3aae6b1794","685c71dae01431897fd85532","5ed9c3054268815691ed0e2c","true","false","airplane","stimuli/catch_trials/0_airplane_catch.jpg","0","Airplane",""
"","19718","image-button-response","53","null","1076204","685c6ca90f751d3aae6b1794","685c71dae01431897fd85532","5ed9c3054268815691ed0e2c","false","false","Bicycle","https://kisumu-drawings.s3-us-west-1.amazonaws.com/14-011.png","11","Watch","14-011.png"
"","5340","image-button-response","54","null","1082058","685c6ca90f751d3aae6b1794","685c71dae01431897fd85532","5ed9c3054268815691ed0e2c","false","false","House","https://kisumu-drawings.s3-us-west-1.amazonaws.com/62-014.png","8","House","62-014.png"
"","3271","image-button-response","55","null","1085833","685c6ca90f751d3aae6b1794","685c71dae01431897fd85532","5ed9c3054268815691ed0e2c","false","false","Bicycle","https://kisumu-drawings.s3-us-west-1.amazonaws.com/119-009.png","1","Bicycle","119-009.png"
"","5375","image-button-response","56","null","1091722","685c6ca90f751d3aae6b1794","685c71dae01431897fd85532","5ed9c3054268815691ed0e2c","false","false","Car","https://kisumu-drawings.s3-us-west-1.amazonaws.com/36-011.png","3","Car","36-011.png"
"","72972","image-button-response","57","null","1165200","685c6ca90f751d3aae6b1794","685c71dae01431897fd85532","5ed9c3054268815691ed0e2c","false","false","Bird","https://kisumu-drawings.s3-us-west-1.amazonaws.com/40-007.png","5","Chair","40-007.png"
"","18398","image-button-response","58","null","1184101","685c6ca90f751d3aae6b1794","685c71dae01431897fd85532","5ed9c3054268815691ed0e2c","false","false","Rabbit","https://kisumu-drawings.s3-us-west-1.amazonaws.com/112-006.png","4","Cat","112-006.png"
"","6285","image-button-response","59","null","1190888","685c6ca90f751d3aae6b1794","685c71dae01431897fd85532","5ed9c3054268815691ed0e2c","false","false","Cup","https://kisumu-drawings.s3-us-west-1.amazonaws.com/75-012.png","6","Cup","75-012.png"
"","20484","image-button-response","60","null","1211888","685c6ca90f751d3aae6b1794","685c71dae01431897fd85532","5ed9c3054268815691ed0e2c","false","false","Chair","https://kisumu-drawings.s3-us-west-1.amazonaws.com/75-008.png","7","Hat","75-008.png"
"","23318","image-button-response","61","null","1235708","685c6ca90f751d3aae6b1794","685c71dae01431897fd85532","5ed9c3054268815691ed0e2c","false","false","Hat","https://kisumu-drawings.s3-us-west-1.amazonaws.com/83-010.png","7","Hat","83-010.png"
"","7201","image-button-response","62","null","1243413","685c6ca90f751d3aae6b1794","685c71dae01431897fd85532","5ed9c3054268815691ed0e2c","false","false","Watch","https://kisumu-drawings.s3-us-west-1.amazonaws.com/65-010.png","11","Watch","65-010.png"
"","21682","image-button-response","63","null","1265597","685c6ca90f751d3aae6b1794","685c71dae01431897fd85532","5ed9c3054268815691ed0e2c","false","false","Cat","https://kisumu-drawings.s3-us-west-1.amazonaws.com/16-007.png","5","Chair","16-007.png"
"","39286","image-button-response","64","null","1305386","685c6ca90f751d3aae6b1794","685c71dae01431897fd85532","5ed9c3054268815691ed0e2c","false","false","Bicycle","https://kisumu-drawings.s3-us-west-1.amazonaws.com/24-010.png","5","Chair","24-010.png"
"","21520","image-button-response","65","null","1327407","685c6ca90f751d3aae6b1794","685c71dae01431897fd85532","5ed9c3054268815691ed0e2c","false","false","Rabbit","https://kisumu-drawings.s3-us-west-1.amazonaws.com/13-007.png","0","Airplane","13-007.png"
"","21751","image-button-response","66","null","1349671","685c6ca90f751d3aae6b1794","685c71dae01431897fd85532","5ed9c3054268815691ed0e2c","false","false","Cup","https://kisumu-drawings.s3-us-west-1.amazonaws.com/13-014.png","6","Cup","13-014.png"
"","11075","image-button-response","67","null","1361252","685c6ca90f751d3aae6b1794","685c71dae01431897fd85532","5ed9c3054268815691ed0e2c","false","false","Bicycle","https://kisumu-drawings.s3-us-west-1.amazonaws.com/67-015.png","1","Bicycle","67-015.png"
"","5918","image-button-response","68","null","1367671","685c6ca90f751d3aae6b1794","685c71dae01431897fd85532","5ed9c3054268815691ed0e2c","false","false","Cup","https://kisumu-drawings.s3-us-west-1.amazonaws.com/23-013.png","6","Cup","23-013.png"
"","11431","image-button-response","69","null","1379611","685c6ca90f751d3aae6b1794","685c71dae01431897fd85532","5ed9c3054268815691ed0e2c","false","false","Chair","https://kisumu-drawings.s3-us-west-1.amazonaws.com/21-006.png","5","Chair","21-006.png"
"","5276","image-button-response","70","null","1385397","685c6ca90f751d3aae6b1794","685c71dae01431897fd85532","5ed9c3054268815691ed0e2c","false","false","Cup","https://kisumu-drawings.s3-us-west-1.amazonaws.com/109-007.png","6","Cup","109-007.png"
"","7121","image-button-response","71","null","1393024","685c6ca90f751d3aae6b1794","685c71dae01431897fd85532","5ed9c3054268815691ed0e2c","false","false","Chair","https://kisumu-drawings.s3-us-west-1.amazonaws.com/84-011.png","5","Chair","84-011.png"
"","8878","image-button-response","72","null","1402408","685c6ca90f751d3aae6b1794","685c71dae01431897fd85532","5ed9c3054268815691ed0e2c","false","false","Chair","https://kisumu-drawings.s3-us-west-1.amazonaws.com/108-007.png","5","Chair","108-007.png"
"","5383","image-button-response","73","null","1408293","685c6ca90f751d3aae6b1794","685c71dae01431897fd85532","5ed9c3054268815691ed0e2c","false","false","Tree","https://kisumu-drawings.s3-us-west-1.amazonaws.com/78-016.png","10","Tree","78-016.png"
"","8201","image-button-response","74","null","1417003","685c6ca90f751d3aae6b1794","685c71dae01431897fd85532","5ed9c3054268815691ed0e2c","false","false","Watch","https://kisumu-drawings.s3-us-west-1.amazonaws.com/20-014.png","3","Car","20-014.png"
"","4546","image-button-response","75","null","1422064","685c6ca90f751d3aae6b1794","685c71dae01431897fd85532","5ed9c3054268815691ed0e2c","false","false","Cat","https://kisumu-drawings.s3-us-west-1.amazonaws.com/70-012.png","4","Cat","70-012.png"
