"view_history","rt","trial_type","trial_index","plugin_version","time_elapsed","study_id","session_id","participant_id","catch_trial","prep_trial","sketcher_category","stimulus","response","response_category","sketch_id"
"[{""page_index"":0,""viewing_time"":9785},{""page_index"":1,""viewing_time"":3779},{""page_index"":2,""viewing_time"":2778},{""page_index"":3,""viewing_time"":4618}]","20960","instructions","0","null","20972","685c6ca90f751d3aae6b1794","685c6e0f4627fbcdab1372fb","5edcfe625cd39c9efd5cc2ae","","","","","","",""
"","2622","image-button-response","1","null","24607","685c6ca90f751d3aae6b1794","685c6e0f4627fbcdab1372fb","5edcfe625cd39c9efd5cc2ae","false","true","car","stimuli/prep_trials/1_car_prep.png","3","Car",""
"","1843","image-button-response","2","null","26960","685c6ca90f751d3aae6b1794","685c6e0f4627fbcdab1372fb","5edcfe625cd39c9efd5cc2ae","false","true","cat","stimuli/prep_trials/0_cat_prep.jpg","4","Cat",""
"","22912","image-button-response","3","null","50381","685c6ca90f751d3aae6b1794","685c6e0f4627fbcdab1372fb","5edcfe625cd39c9efd5cc2ae","false","false","Cat","https://kisumu-drawings.s3-us-west-1.amazonaws.com/79-009.png","4","Cat","79-009.png"
"","11334","image-button-response","4","null","62233","685c6ca90f751d3aae6b1794","685c6e0f4627fbcdab1372fb","5edcfe625cd39c9efd5cc2ae","false","false","Bird","https://kisumu-drawings.s3-us-west-1.amazonaws.com/87-016.png","0","Airplane","87-016.png"
"","3467","image-button-response","5","null","66208","685c6ca90f751d3aae6b1794","685c6e0f4627fbcdab1372fb","5edcfe625cd39c9efd5cc2ae","false","false","Cup","https://kisumu-drawings.s3-us-west-1.amazonaws.com/118-015.png","6","Cup","118-015.png"
"","7120","image-button-response","6","null","73839","685c6ca90f751d3aae6b1794","685c6e0f4627fbcdab1372fb","5edcfe625cd39c9efd5cc2ae","false","false","Chair","https://kisumu-drawings.s3-us-west-1.amazonaws.com/120-016.png","5","Chair","120-016.png"
"","3106","image-button-response","7","null","77453","685c6ca90f751d3aae6b1794","685c6e0f4627fbcdab1372fb","5edcfe625cd39c9efd5cc2ae","false","false","House","https://kisumu-drawings.s3-us-west-1.amazonaws.com/38-008.png","8","House","38-008.png"
"","2797","image-button-response","8","null","80762","685c6ca90f751d3aae6b1794","685c6e0f4627fbcdab1372fb","5edcfe625cd39c9efd5cc2ae","false","false","Tree","https://kisumu-drawings.s3-us-west-1.amazonaws.com/37-016.png","10","Tree","37-016.png"
"","2639","image-button-response","9","null","83910","685c6ca90f751d3aae6b1794","685c6e0f4627fbcdab1372fb","5edcfe625cd39c9efd5cc2ae","false","false","Hat","https://kisumu-drawings.s3-us-west-1.amazonaws.com/78-013.png","7","Hat","78-013.png"
"","7580","image-button-response","10","null","91996","685c6ca90f751d3aae6b1794","685c6e0f4627fbcdab1372fb","5edcfe625cd39c9efd5cc2ae","false","false","Cat","https://kisumu-drawings.s3-us-west-1.amazonaws.com/19-016.png","5","Chair","19-016.png"
"","2715","image-button-response","11","null","95229","685c6ca90f751d3aae6b1794","685c6e0f4627fbcdab1372fb","5edcfe625cd39c9efd5cc2ae","false","false","House","https://kisumu-drawings.s3-us-west-1.amazonaws.com/46-015.png","8","House","46-015.png"
"","2866","image-button-response","12","null","98598","685c6ca90f751d3aae6b1794","685c6e0f4627fbcdab1372fb","5edcfe625cd39c9efd5cc2ae","false","false","Cup","https://kisumu-drawings.s3-us-west-1.amazonaws.com/39-011.png","4","Cat","39-011.png"
"","3408","image-button-response","13","null","102511","685c6ca90f751d3aae6b1794","685c6e0f4627fbcdab1372fb","5edcfe625cd39c9efd5cc2ae","false","false","Rabbit","https://kisumu-drawings.s3-us-west-1.amazonaws.com/17-009.png","9","Rabbit","17-009.png"
"","4713","image-button-response","14","null","107732","685c6ca90f751d3aae6b1794","685c6e0f4627fbcdab1372fb","5edcfe625cd39c9efd5cc2ae","false","false","Rabbit","https://kisumu-drawings.s3-us-west-1.amazonaws.com/45-011.png","2","Bird","45-011.png"
"","8422","image-button-response","15","null","116656","685c6ca90f751d3aae6b1794","685c6e0f4627fbcdab1372fb","5edcfe625cd39c9efd5cc2ae","false","false","Tree","https://kisumu-drawings.s3-us-west-1.amazonaws.com/44-005.png","10","Tree","44-005.png"
"","2962","image-button-response","16","null","120123","685c6ca90f751d3aae6b1794","685c6e0f4627fbcdab1372fb","5edcfe625cd39c9efd5cc2ae","false","false","Bicycle","https://kisumu-drawings.s3-us-west-1.amazonaws.com/80-010.png","1","Bicycle","80-010.png"
"","7220","image-button-response","17","null","127852","685c6ca90f751d3aae6b1794","685c6e0f4627fbcdab1372fb","5edcfe625cd39c9efd5cc2ae","false","false","Airplane","https://kisumu-drawings.s3-us-west-1.amazonaws.com/48-009.png","7","Hat","48-009.png"
"","2986","image-button-response","18","null","131352","685c6ca90f751d3aae6b1794","685c6e0f4627fbcdab1372fb","5edcfe625cd39c9efd5cc2ae","false","false","Cat","https://kisumu-drawings.s3-us-west-1.amazonaws.com/86-015.png","4","Cat","86-015.png"
"","3033","image-button-response","19","null","134896","685c6ca90f751d3aae6b1794","685c6e0f4627fbcdab1372fb","5edcfe625cd39c9efd5cc2ae","false","false","Watch","https://kisumu-drawings.s3-us-west-1.amazonaws.com/81-010.png","11","Watch","81-010.png"
"","3630","image-button-response","20","null","139030","685c6ca90f751d3aae6b1794","685c6e0f4627fbcdab1372fb","5edcfe625cd39c9efd5cc2ae","false","false","Bicycle","https://kisumu-drawings.s3-us-west-1.amazonaws.com/48-010.png","3","Car","48-010.png"
"","4028","image-button-response","21","null","143564","685c6ca90f751d3aae6b1794","685c6e0f4627fbcdab1372fb","5edcfe625cd39c9efd5cc2ae","false","false","Hat","https://kisumu-drawings.s3-us-west-1.amazonaws.com/84-008.png","7","Hat","84-008.png"
"","6170","image-button-response","22","null","150243","685c6ca90f751d3aae6b1794","685c6e0f4627fbcdab1372fb","5edcfe625cd39c9efd5cc2ae","false","false","Bird","https://kisumu-drawings.s3-us-west-1.amazonaws.com/80-008.png","2","Bird","80-008.png"
"","18240","image-button-response","23","null","168987","685c6ca90f751d3aae6b1794","685c6e0f4627fbcdab1372fb","5edcfe625cd39c9efd5cc2ae","false","false","Car","https://kisumu-drawings.s3-us-west-1.amazonaws.com/40-005.png","8","House","40-005.png"
"","2592","image-button-response","24","null","172090","685c6ca90f751d3aae6b1794","685c6e0f4627fbcdab1372fb","5edcfe625cd39c9efd5cc2ae","false","false","Car","https://kisumu-drawings.s3-us-west-1.amazonaws.com/48-005.png","3","Car","48-005.png"
"","2281","image-button-response","25","null","174882","685c6ca90f751d3aae6b1794","685c6e0f4627fbcdab1372fb","5edcfe625cd39c9efd5cc2ae","false","false","Car","https://kisumu-drawings.s3-us-west-1.amazonaws.com/88-016.png","3","Car","88-016.png"
"","5801","image-button-response","26","null","181187","685c6ca90f751d3aae6b1794","685c6e0f4627fbcdab1372fb","5edcfe625cd39c9efd5cc2ae","false","false","Chair","https://kisumu-drawings.s3-us-west-1.amazonaws.com/47-013.png","8","House","47-013.png"
"","16797","image-button-response","27","null","198491","685c6ca90f751d3aae6b1794","685c6e0f4627fbcdab1372fb","5edcfe625cd39c9efd5cc2ae","false","false","Cat","https://kisumu-drawings.s3-us-west-1.amazonaws.com/40-009.png","5","Chair","40-009.png"
"","2725","image-button-response","28","null","201719","685c6ca90f751d3aae6b1794","685c6e0f4627fbcdab1372fb","5edcfe625cd39c9efd5cc2ae","false","false","Tree","https://kisumu-drawings.s3-us-west-1.amazonaws.com/116-006.png","10","Tree","116-006.png"
"","3283","image-button-response","29","null","205509","685c6ca90f751d3aae6b1794","685c6e0f4627fbcdab1372fb","5edcfe625cd39c9efd5cc2ae","false","false","Rabbit","https://kisumu-drawings.s3-us-west-1.amazonaws.com/78-015.png","9","Rabbit","78-015.png"
"","7014","image-button-response","30","null","213040","685c6ca90f751d3aae6b1794","685c6e0f4627fbcdab1372fb","5edcfe625cd39c9efd5cc2ae","false","false","Hat","https://kisumu-drawings.s3-us-west-1.amazonaws.com/38-011.png","5","Chair","38-011.png"
"","3744","image-button-response","31","null","217291","685c6ca90f751d3aae6b1794","685c6e0f4627fbcdab1372fb","5edcfe625cd39c9efd5cc2ae","false","false","Bird","https://kisumu-drawings.s3-us-west-1.amazonaws.com/40-007.png","9","Rabbit","40-007.png"
"","5832","image-button-response","32","null","223626","685c6ca90f751d3aae6b1794","685c6e0f4627fbcdab1372fb","5edcfe625cd39c9efd5cc2ae","false","false","Tree","https://kisumu-drawings.s3-us-west-1.amazonaws.com/16-015.png","10","Tree","16-015.png"
"","3289","image-button-response","33","null","227426","685c6ca90f751d3aae6b1794","685c6e0f4627fbcdab1372fb","5edcfe625cd39c9efd5cc2ae","false","false","Airplane","https://kisumu-drawings.s3-us-west-1.amazonaws.com/80-009.png","0","Airplane","80-009.png"
"","7458","image-button-response","34","null","235400","685c6ca90f751d3aae6b1794","685c6e0f4627fbcdab1372fb","5edcfe625cd39c9efd5cc2ae","false","false","Airplane","https://kisumu-drawings.s3-us-west-1.amazonaws.com/119-012.png","0","Airplane","119-012.png"
"","10515","image-button-response","35","null","246421","685c6ca90f751d3aae6b1794","685c6e0f4627fbcdab1372fb","5edcfe625cd39c9efd5cc2ae","false","false","Watch","https://kisumu-drawings.s3-us-west-1.amazonaws.com/75-006.png","7","Hat","75-006.png"
"","2736","image-button-response","36","null","249661","685c6ca90f751d3aae6b1794","685c6e0f4627fbcdab1372fb","5edcfe625cd39c9efd5cc2ae","false","false","Airplane","https://kisumu-drawings.s3-us-west-1.amazonaws.com/87-005.png","0","Airplane","87-005.png"
"","2767","image-button-response","37","null","252941","685c6ca90f751d3aae6b1794","685c6e0f4627fbcdab1372fb","5edcfe625cd39c9efd5cc2ae","false","false","Tree","https://kisumu-drawings.s3-us-west-1.amazonaws.com/76-006.png","10","Tree","76-006.png"
"","3052","image-button-response","38","null","256506","685c6ca90f751d3aae6b1794","685c6e0f4627fbcdab1372fb","5edcfe625cd39c9efd5cc2ae","false","false","House","https://kisumu-drawings.s3-us-west-1.amazonaws.com/77-016.png","8","House","77-016.png"
"","4127","image-button-response","39","null","261153","685c6ca90f751d3aae6b1794","685c6e0f4627fbcdab1372fb","5edcfe625cd39c9efd5cc2ae","false","false","Cup","https://kisumu-drawings.s3-us-west-1.amazonaws.com/18-015.png","11","Watch","18-015.png"
"","3184","image-button-response","40","null","264853","685c6ca90f751d3aae6b1794","685c6e0f4627fbcdab1372fb","5edcfe625cd39c9efd5cc2ae","false","false","Chair","https://kisumu-drawings.s3-us-west-1.amazonaws.com/39-010.png","3","Car","39-010.png"
"","2589","image-button-response","41","null","267962","685c6ca90f751d3aae6b1794","685c6e0f4627fbcdab1372fb","5edcfe625cd39c9efd5cc2ae","false","false","Tree","https://kisumu-drawings.s3-us-west-1.amazonaws.com/82-010.png","10","Tree","82-010.png"
"","2883","image-button-response","42","null","271357","685c6ca90f751d3aae6b1794","685c6e0f4627fbcdab1372fb","5edcfe625cd39c9efd5cc2ae","false","false","Cup","https://kisumu-drawings.s3-us-west-1.amazonaws.com/84-007.png","6","Cup","84-007.png"
"","3296","image-button-response","43","null","275158","685c6ca90f751d3aae6b1794","685c6e0f4627fbcdab1372fb","5edcfe625cd39c9efd5cc2ae","false","false","Rabbit","https://kisumu-drawings.s3-us-west-1.amazonaws.com/117-005.png","9","Rabbit","117-005.png"
"","3746","image-button-response","44","null","279415","685c6ca90f751d3aae6b1794","685c6e0f4627fbcdab1372fb","5edcfe625cd39c9efd5cc2ae","false","false","Hat","https://kisumu-drawings.s3-us-west-1.amazonaws.com/46-014.png","2","Bird","46-014.png"
"","3978","image-button-response","45","null","283897","685c6ca90f751d3aae6b1794","685c6e0f4627fbcdab1372fb","5edcfe625cd39c9efd5cc2ae","false","false","Watch","https://kisumu-drawings.s3-us-west-1.amazonaws.com/15-008.png","10","Tree","15-008.png"
"","3077","image-button-response","46","null","287478","685c6ca90f751d3aae6b1794","685c6e0f4627fbcdab1372fb","5edcfe625cd39c9efd5cc2ae","false","false","Watch","https://kisumu-drawings.s3-us-west-1.amazonaws.com/36-007.png","11","Watch","36-007.png"
"","4608","image-button-response","47","null","292598","685c6ca90f751d3aae6b1794","685c6e0f4627fbcdab1372fb","5edcfe625cd39c9efd5cc2ae","false","false","Airplane","https://kisumu-drawings.s3-us-west-1.amazonaws.com/39-008.png","3","Car","39-008.png"
"","5409","image-button-response","48","null","298513","685c6ca90f751d3aae6b1794","685c6e0f4627fbcdab1372fb","5edcfe625cd39c9efd5cc2ae","false","false","Car","https://kisumu-drawings.s3-us-west-1.amazonaws.com/19-015.png","7","Hat","19-015.png"
"","3093","image-button-response","49","null","302113","685c6ca90f751d3aae6b1794","685c6e0f4627fbcdab1372fb","5edcfe625cd39c9efd5cc2ae","false","false","Bird","https://kisumu-drawings.s3-us-west-1.amazonaws.com/47-005.png","2","Bird","47-005.png"
"","5545","image-button-response","50","null","308163","685c6ca90f751d3aae6b1794","685c6e0f4627fbcdab1372fb","5edcfe625cd39c9efd5cc2ae","false","false","House","https://kisumu-drawings.s3-us-west-1.amazonaws.com/84-014.png","8","House","84-014.png"
"","2875","image-button-response","51","null","311547","685c6ca90f751d3aae6b1794","685c6e0f4627fbcdab1372fb","5edcfe625cd39c9efd5cc2ae","false","false","Hat","https://kisumu-drawings.s3-us-west-1.amazonaws.com/118-016.png","7","Hat","118-016.png"
"","2525","image-button-response","52","null","314590","685c6ca90f751d3aae6b1794","685c6e0f4627fbcdab1372fb","5edcfe625cd39c9efd5cc2ae","false","false","Cat","https://kisumu-drawings.s3-us-west-1.amazonaws.com/120-015.png","2","Bird","120-015.png"
"","3279","image-button-response","53","null","318378","685c6ca90f751d3aae6b1794","685c6e0f4627fbcdab1372fb","5edcfe625cd39c9efd5cc2ae","false","false","Chair","https://kisumu-drawings.s3-us-west-1.amazonaws.com/19-010.png","2","Bird","19-010.png"
"","4848","image-button-response","54","null","323737","685c6ca90f751d3aae6b1794","685c6e0f4627fbcdab1372fb","5edcfe625cd39c9efd5cc2ae","false","false","Bicycle","https://kisumu-drawings.s3-us-west-1.amazonaws.com/19-014.png","5","Chair","19-014.png"
"","4112","image-button-response","55","null","328352","685c6ca90f751d3aae6b1794","685c6e0f4627fbcdab1372fb","5edcfe625cd39c9efd5cc2ae","false","false","Cup","https://kisumu-drawings.s3-us-west-1.amazonaws.com/47-014.png","6","Cup","47-014.png"
"","4211","image-button-response","56","null","333072","685c6ca90f751d3aae6b1794","685c6e0f4627fbcdab1372fb","5edcfe625cd39c9efd5cc2ae","false","false","House","https://kisumu-drawings.s3-us-west-1.amazonaws.com/118-011.png","8","House","118-011.png"
"","5892","image-button-response","57","null","339469","685c6ca90f751d3aae6b1794","685c6e0f4627fbcdab1372fb","5edcfe625cd39c9efd5cc2ae","false","false","Chair","https://kisumu-drawings.s3-us-west-1.amazonaws.com/86-008.png","5","Chair","86-008.png"
"","2798","image-button-response","58","null","342775","685c6ca90f751d3aae6b1794","685c6e0f4627fbcdab1372fb","5edcfe625cd39c9efd5cc2ae","false","false","Car","https://kisumu-drawings.s3-us-west-1.amazonaws.com/80-011.png","3","Car","80-011.png"
"","3724","image-button-response","59","null","347009","685c6ca90f751d3aae6b1794","685c6e0f4627fbcdab1372fb","5edcfe625cd39c9efd5cc2ae","false","false","Rabbit","https://kisumu-drawings.s3-us-west-1.amazonaws.com/83-016.png","4","Cat","83-016.png"
"","2956","image-button-response","60","null","350477","685c6ca90f751d3aae6b1794","685c6e0f4627fbcdab1372fb","5edcfe625cd39c9efd5cc2ae","false","false","Bird","https://kisumu-drawings.s3-us-west-1.amazonaws.com/19-012.png","10","Tree","19-012.png"
"","7414","image-button-response","61","null","358400","685c6ca90f751d3aae6b1794","685c6e0f4627fbcdab1372fb","5edcfe625cd39c9efd5cc2ae","false","false","Rabbit","https://kisumu-drawings.s3-us-west-1.amazonaws.com/37-015.png","2","Bird","37-015.png"
"","4972","image-button-response","62","null","363875","685c6ca90f751d3aae6b1794","685c6e0f4627fbcdab1372fb","5edcfe625cd39c9efd5cc2ae","false","false","Bicycle","https://kisumu-drawings.s3-us-west-1.amazonaws.com/40-006.png","3","Car","40-006.png"
"","2217","image-button-response","63","null","366598","685c6ca90f751d3aae6b1794","685c6e0f4627fbcdab1372fb","5edcfe625cd39c9efd5cc2ae","false","false","Watch","https://kisumu-drawings.s3-us-west-1.amazonaws.com/115-011.png","11","Watch","115-011.png"
"","2756","image-button-response","64","null","369870","685c6ca90f751d3aae6b1794","685c6e0f4627fbcdab1372fb","5edcfe625cd39c9efd5cc2ae","false","false","Cup","https://kisumu-drawings.s3-us-west-1.amazonaws.com/78-011.png","6","Cup","78-011.png"
"","4480","image-button-response","65","null","374855","685c6ca90f751d3aae6b1794","685c6e0f4627fbcdab1372fb","5edcfe625cd39c9efd5cc2ae","false","false","Bicycle","https://kisumu-drawings.s3-us-west-1.amazonaws.com/120-010.png","1","Bicycle","120-010.png"
"","3178","image-button-response","66","null","378548","685c6ca90f751d3aae6b1794","685c6e0f4627fbcdab1372fb","5edcfe625cd39c9efd5cc2ae","false","false","Hat","https://kisumu-drawings.s3-us-west-1.amazonaws.com/17-015.png","7","Hat","17-015.png"
"","5680","image-button-response","67","null","384736","685c6ca90f751d3aae6b1794","685c6e0f4627fbcdab1372fb","5edcfe625cd39c9efd5cc2ae","false","false","Bird","https://kisumu-drawings.s3-us-west-1.amazonaws.com/119-005.png","2","Bird","119-005.png"
"","2389","image-button-response","68","null","387630","685c6ca90f751d3aae6b1794","685c6e0f4627fbcdab1372fb","5edcfe625cd39c9efd5cc2ae","false","false","Bicycle","https://kisumu-drawings.s3-us-west-1.amazonaws.com/87-015.png","3","Car","87-015.png"
"","2737","image-button-response","69","null","390873","685c6ca90f751d3aae6b1794","685c6e0f4627fbcdab1372fb","5edcfe625cd39c9efd5cc2ae","false","false","Airplane","https://kisumu-drawings.s3-us-west-1.amazonaws.com/19-013.png","2","Bird","19-013.png"
"","2856","image-button-response","70","null","394248","685c6ca90f751d3aae6b1794","685c6e0f4627fbcdab1372fb","5edcfe625cd39c9efd5cc2ae","false","false","Car","https://kisumu-drawings.s3-us-west-1.amazonaws.com/119-010.png","3","Car","119-010.png"
"","4372","image-button-response","71","null","399123","685c6ca90f751d3aae6b1794","685c6e0f4627fbcdab1372fb","5edcfe625cd39c9efd5cc2ae","false","false","Cat","https://kisumu-drawings.s3-us-west-1.amazonaws.com/48-011.png","2","Bird","48-011.png"
"","4270","image-button-response","72","null","403896","685c6ca90f751d3aae6b1794","685c6e0f4627fbcdab1372fb","5edcfe625cd39c9efd5cc2ae","false","false","Watch","https://kisumu-drawings.s3-us-west-1.amazonaws.com/43-008.png","11","Watch","43-008.png"
"","1901","image-button-response","73","null","406303","685c6ca90f751d3aae6b1794","685c6e0f4627fbcdab1372fb","5edcfe625cd39c9efd5cc2ae","true","false","airplane","stimuli/catch_trials/0_airplane_catch.jpg","0","Airplane",""
"","4957","image-button-response","74","null","411764","685c6ca90f751d3aae6b1794","685c6e0f4627fbcdab1372fb","5edcfe625cd39c9efd5cc2ae","false","false","Chair","https://kisumu-drawings.s3-us-west-1.amazonaws.com/79-010.png","5","Chair","79-010.png"
"","2302","image-button-response","75","null","414571","685c6ca90f751d3aae6b1794","685c6e0f4627fbcdab1372fb","5edcfe625cd39c9efd5cc2ae","false","false","House","https://kisumu-drawings.s3-us-west-1.amazonaws.com/17-016.png","8","House","17-016.png"
