"view_history","rt","trial_type","trial_index","plugin_version","time_elapsed","study_id","session_id","participant_id","catch_trial","prep_trial","sketcher_category","stimulus","response","response_category","sketch_id"
"[{""page_index"":0,""viewing_time"":11834},{""page_index"":1,""viewing_time"":8019},{""page_index"":2,""viewing_time"":7042},{""page_index"":3,""viewing_time"":77176}]","104071","instructions","0","null","104083","685c6ca90f751d3aae6b1794","685c6df7b4da2effaa0d97ff","5f2eebd9d21e322a9ed68f09","","","","","","",""
"","3986","image-button-response","1","null","109089","685c6ca90f751d3aae6b1794","685c6df7b4da2effaa0d97ff","5f2eebd9d21e322a9ed68f09","false","true","car","stimuli/prep_trials/1_car_prep.png","3","Car",""
"","3397","image-button-response","2","null","112993","685c6ca90f751d3aae6b1794","685c6df7b4da2effaa0d97ff","5f2eebd9d21e322a9ed68f09","false","true","cat","stimuli/prep_trials/0_cat_prep.jpg","4","Cat",""
"","4583","image-button-response","3","null","118082","685c6ca90f751d3aae6b1794","685c6df7b4da2effaa0d97ff","5f2eebd9d21e322a9ed68f09","false","false","Rabbit","https://kisumu-drawings.s3-us-west-1.amazonaws.com/64-007.png","2","Bird","64-007.png"
"","5462","image-button-response","4","null","124049","685c6ca90f751d3aae6b1794","685c6df7b4da2effaa0d97ff","5f2eebd9d21e322a9ed68f09","false","false","Chair","https://kisumu-drawings.s3-us-west-1.amazonaws.com/89-007.png","5","Chair","89-007.png"
"","11592","image-button-response","5","null","136151","685c6ca90f751d3aae6b1794","685c6df7b4da2effaa0d97ff","5f2eebd9d21e322a9ed68f09","false","false","Rabbit","https://kisumu-drawings.s3-us-west-1.amazonaws.com/103-008.png","9","Rabbit","103-008.png"
"","2894","image-button-response","6","null","139560","685c6ca90f751d3aae6b1794","685c6df7b4da2effaa0d97ff","5f2eebd9d21e322a9ed68f09","false","false","Bicycle","https://kisumu-drawings.s3-us-west-1.amazonaws.com/103-014.png","1","Bicycle","103-014.png"
"","1831","image-button-response","7","null","141908","685c6ca90f751d3aae6b1794","685c6df7b4da2effaa0d97ff","5f2eebd9d21e322a9ed68f09","false","false","Airplane","https://kisumu-drawings.s3-us-west-1.amazonaws.com/103-005.png","0","Airplane","103-005.png"
"","3180","image-button-response","8","null","145591","685c6ca90f751d3aae6b1794","685c6df7b4da2effaa0d97ff","5f2eebd9d21e322a9ed68f09","false","false","Hat","https://kisumu-drawings.s3-us-west-1.amazonaws.com/2-006.png","7","Hat","2-006.png"
"","2512","image-button-response","9","null","148616","685c6ca90f751d3aae6b1794","685c6df7b4da2effaa0d97ff","5f2eebd9d21e322a9ed68f09","false","false","Rabbit","https://kisumu-drawings.s3-us-west-1.amazonaws.com/57-016.png","9","Rabbit","57-016.png"
"","13109","image-button-response","10","null","162242","685c6ca90f751d3aae6b1794","685c6df7b4da2effaa0d97ff","5f2eebd9d21e322a9ed68f09","false","false","Watch","https://kisumu-drawings.s3-us-west-1.amazonaws.com/2-011.png","11","Watch","2-011.png"
"","7242","image-button-response","11","null","169988","685c6ca90f751d3aae6b1794","685c6df7b4da2effaa0d97ff","5f2eebd9d21e322a9ed68f09","false","false","Bird","https://kisumu-drawings.s3-us-west-1.amazonaws.com/56-008.png","0","Airplane","56-008.png"
"","2792","image-button-response","12","null","173282","685c6ca90f751d3aae6b1794","685c6df7b4da2effaa0d97ff","5f2eebd9d21e322a9ed68f09","false","false","Hat","https://kisumu-drawings.s3-us-west-1.amazonaws.com/64-013.png","7","Hat","64-013.png"
"","1639","image-button-response","13","null","175425","685c6ca90f751d3aae6b1794","685c6df7b4da2effaa0d97ff","5f2eebd9d21e322a9ed68f09","true","false","airplane","stimuli/catch_trials/0_airplane_catch.jpg","0","Airplane",""
"","16817","image-button-response","14","null","192749","685c6ca90f751d3aae6b1794","685c6df7b4da2effaa0d97ff","5f2eebd9d21e322a9ed68f09","false","false","Car","https://kisumu-drawings.s3-us-west-1.amazonaws.com/57-013.png","3","Car","57-013.png"
"","16611","image-button-response","15","null","209875","685c6ca90f751d3aae6b1794","685c6df7b4da2effaa0d97ff","5f2eebd9d21e322a9ed68f09","false","false","Rabbit","https://kisumu-drawings.s3-us-west-1.amazonaws.com/23-008.png","5","Chair","23-008.png"
"","3401","image-button-response","16","null","213790","685c6ca90f751d3aae6b1794","685c6df7b4da2effaa0d97ff","5f2eebd9d21e322a9ed68f09","false","false","Chair","https://kisumu-drawings.s3-us-west-1.amazonaws.com/2-005.png","5","Chair","2-005.png"
"","2017","image-button-response","17","null","216323","685c6ca90f751d3aae6b1794","685c6df7b4da2effaa0d97ff","5f2eebd9d21e322a9ed68f09","false","false","Cup","https://kisumu-drawings.s3-us-west-1.amazonaws.com/103-006.png","6","Cup","103-006.png"
"","1632","image-button-response","18","null","218456","685c6ca90f751d3aae6b1794","685c6df7b4da2effaa0d97ff","5f2eebd9d21e322a9ed68f09","false","false","Hat","https://kisumu-drawings.s3-us-west-1.amazonaws.com/103-009.png","7","Hat","103-009.png"
"","1582","image-button-response","19","null","220540","685c6ca90f751d3aae6b1794","685c6df7b4da2effaa0d97ff","5f2eebd9d21e322a9ed68f09","false","false","Cup","https://kisumu-drawings.s3-us-west-1.amazonaws.com/64-011.png","6","Cup","64-011.png"
"","27688","image-button-response","20","null","248733","685c6ca90f751d3aae6b1794","685c6df7b4da2effaa0d97ff","5f2eebd9d21e322a9ed68f09","false","false","Cat","https://kisumu-drawings.s3-us-west-1.amazonaws.com/23-006.png","10","Tree","23-006.png"
"","2526","image-button-response","21","null","251765","685c6ca90f751d3aae6b1794","685c6df7b4da2effaa0d97ff","5f2eebd9d21e322a9ed68f09","false","false","Hat","https://kisumu-drawings.s3-us-west-1.amazonaws.com/23-014.png","7","Hat","23-014.png"
"","7328","image-button-response","22","null","259597","685c6ca90f751d3aae6b1794","685c6df7b4da2effaa0d97ff","5f2eebd9d21e322a9ed68f09","false","false","Bicycle","https://kisumu-drawings.s3-us-west-1.amazonaws.com/89-011.png","0","Airplane","89-011.png"
"","1955","image-button-response","23","null","262053","685c6ca90f751d3aae6b1794","685c6df7b4da2effaa0d97ff","5f2eebd9d21e322a9ed68f09","false","false","Cup","https://kisumu-drawings.s3-us-west-1.amazonaws.com/57-010.png","6","Cup","57-010.png"
"","2586","image-button-response","24","null","265141","685c6ca90f751d3aae6b1794","685c6df7b4da2effaa0d97ff","5f2eebd9d21e322a9ed68f09","false","false","Airplane","https://kisumu-drawings.s3-us-west-1.amazonaws.com/89-014.png","0","Airplane","89-014.png"
"","35710","image-button-response","25","null","301353","685c6ca90f751d3aae6b1794","685c6df7b4da2effaa0d97ff","5f2eebd9d21e322a9ed68f09","false","false","Watch","https://kisumu-drawings.s3-us-west-1.amazonaws.com/103-012.png","10","Tree","103-012.png"
"","11815","image-button-response","26","null","313675","685c6ca90f751d3aae6b1794","685c6df7b4da2effaa0d97ff","5f2eebd9d21e322a9ed68f09","false","false","Bird","https://kisumu-drawings.s3-us-west-1.amazonaws.com/2-014.png","2","Bird","2-014.png"
"","3028","image-button-response","27","null","317207","685c6ca90f751d3aae6b1794","685c6df7b4da2effaa0d97ff","5f2eebd9d21e322a9ed68f09","false","false","Bird","https://kisumu-drawings.s3-us-west-1.amazonaws.com/85-007.png","2","Bird","85-007.png"
"","4927","image-button-response","28","null","322645","685c6ca90f751d3aae6b1794","685c6df7b4da2effaa0d97ff","5f2eebd9d21e322a9ed68f09","false","false","Cat","https://kisumu-drawings.s3-us-west-1.amazonaws.com/2-015.png","4","Cat","2-015.png"
"","1930","image-button-response","29","null","325079","685c6ca90f751d3aae6b1794","685c6df7b4da2effaa0d97ff","5f2eebd9d21e322a9ed68f09","false","false","Tree","https://kisumu-drawings.s3-us-west-1.amazonaws.com/89-006.png","10","Tree","89-006.png"
"","2098","image-button-response","30","null","327687","685c6ca90f751d3aae6b1794","685c6df7b4da2effaa0d97ff","5f2eebd9d21e322a9ed68f09","false","false","Airplane","https://kisumu-drawings.s3-us-west-1.amazonaws.com/57-014.png","0","Airplane","57-014.png"
"","2672","image-button-response","31","null","330871","685c6ca90f751d3aae6b1794","685c6df7b4da2effaa0d97ff","5f2eebd9d21e322a9ed68f09","false","false","Chair","https://kisumu-drawings.s3-us-west-1.amazonaws.com/64-012.png","5","Chair","64-012.png"
"","2880","image-button-response","32","null","334258","685c6ca90f751d3aae6b1794","685c6df7b4da2effaa0d97ff","5f2eebd9d21e322a9ed68f09","false","false","Cat","https://kisumu-drawings.s3-us-west-1.amazonaws.com/103-011.png","9","Rabbit","103-011.png"
"","19658","image-button-response","33","null","354430","685c6ca90f751d3aae6b1794","685c6df7b4da2effaa0d97ff","5f2eebd9d21e322a9ed68f09","false","false","Tree","https://kisumu-drawings.s3-us-west-1.amazonaws.com/64-010.png","5","Chair","64-010.png"
"","2813","image-button-response","34","null","357759","685c6ca90f751d3aae6b1794","685c6df7b4da2effaa0d97ff","5f2eebd9d21e322a9ed68f09","false","false","Airplane","https://kisumu-drawings.s3-us-west-1.amazonaws.com/64-016.png","0","Airplane","64-016.png"
"","2327","image-button-response","35","null","360600","685c6ca90f751d3aae6b1794","685c6df7b4da2effaa0d97ff","5f2eebd9d21e322a9ed68f09","false","false","Bird","https://kisumu-drawings.s3-us-west-1.amazonaws.com/64-005.png","2","Bird","64-005.png"
"","2054","image-button-response","36","null","363169","685c6ca90f751d3aae6b1794","685c6df7b4da2effaa0d97ff","5f2eebd9d21e322a9ed68f09","false","false","Watch","https://kisumu-drawings.s3-us-west-1.amazonaws.com/64-009.png","11","Watch","64-009.png"
"","1345","image-button-response","37","null","365017","685c6ca90f751d3aae6b1794","685c6df7b4da2effaa0d97ff","5f2eebd9d21e322a9ed68f09","false","false","Chair","https://kisumu-drawings.s3-us-west-1.amazonaws.com/23-005.png","5","Chair","23-005.png"
"","1648","image-button-response","38","null","367179","685c6ca90f751d3aae6b1794","685c6df7b4da2effaa0d97ff","5f2eebd9d21e322a9ed68f09","false","false","Hat","https://kisumu-drawings.s3-us-west-1.amazonaws.com/57-007.png","7","Hat","57-007.png"
"","1545","image-button-response","39","null","369237","685c6ca90f751d3aae6b1794","685c6df7b4da2effaa0d97ff","5f2eebd9d21e322a9ed68f09","false","false","Tree","https://kisumu-drawings.s3-us-west-1.amazonaws.com/103-007.png","10","Tree","103-007.png"
"","1731","image-button-response","40","null","371471","685c6ca90f751d3aae6b1794","685c6df7b4da2effaa0d97ff","5f2eebd9d21e322a9ed68f09","false","false","Bird","https://kisumu-drawings.s3-us-west-1.amazonaws.com/103-015.png","2","Bird","103-015.png"
"","1537","image-button-response","41","null","373517","685c6ca90f751d3aae6b1794","685c6df7b4da2effaa0d97ff","5f2eebd9d21e322a9ed68f09","false","false","Hat","https://kisumu-drawings.s3-us-west-1.amazonaws.com/89-005.png","7","Hat","89-005.png"
"","1809","image-button-response","42","null","375829","685c6ca90f751d3aae6b1794","685c6df7b4da2effaa0d97ff","5f2eebd9d21e322a9ed68f09","false","false","Chair","https://kisumu-drawings.s3-us-west-1.amazonaws.com/103-013.png","5","Chair","103-013.png"
"","14642","image-button-response","43","null","390977","685c6ca90f751d3aae6b1794","685c6df7b4da2effaa0d97ff","5f2eebd9d21e322a9ed68f09","false","false","Cat","https://kisumu-drawings.s3-us-west-1.amazonaws.com/64-006.png","2","Bird","64-006.png"
"","6161","image-button-response","44","null","397645","685c6ca90f751d3aae6b1794","685c6df7b4da2effaa0d97ff","5f2eebd9d21e322a9ed68f09","false","false","Rabbit","https://kisumu-drawings.s3-us-west-1.amazonaws.com/89-016.png","4","Cat","89-016.png"
"","1825","image-button-response","45","null","399985","685c6ca90f751d3aae6b1794","685c6df7b4da2effaa0d97ff","5f2eebd9d21e322a9ed68f09","false","false","Car","https://kisumu-drawings.s3-us-west-1.amazonaws.com/103-016.png","3","Car","103-016.png"
"","2393","image-button-response","46","null","402885","685c6ca90f751d3aae6b1794","685c6df7b4da2effaa0d97ff","5f2eebd9d21e322a9ed68f09","false","false","House","https://kisumu-drawings.s3-us-west-1.amazonaws.com/23-015.png","8","House","23-015.png"
"","1799","image-button-response","47","null","405193","685c6ca90f751d3aae6b1794","685c6df7b4da2effaa0d97ff","5f2eebd9d21e322a9ed68f09","false","false","Watch","https://kisumu-drawings.s3-us-west-1.amazonaws.com/57-006.png","11","Watch","57-006.png"
"","26864","image-button-response","48","null","432563","685c6ca90f751d3aae6b1794","685c6df7b4da2effaa0d97ff","5f2eebd9d21e322a9ed68f09","false","false","Car","https://kisumu-drawings.s3-us-west-1.amazonaws.com/64-014.png","5","Chair","64-014.png"
"","3415","image-button-response","49","null","436493","685c6ca90f751d3aae6b1794","685c6df7b4da2effaa0d97ff","5f2eebd9d21e322a9ed68f09","false","false","Cat","https://kisumu-drawings.s3-us-west-1.amazonaws.com/89-010.png","4","Cat","89-010.png"
"","28477","image-button-response","50","null","465481","685c6ca90f751d3aae6b1794","685c6df7b4da2effaa0d97ff","5f2eebd9d21e322a9ed68f09","false","false","Car","https://kisumu-drawings.s3-us-west-1.amazonaws.com/23-011.png","0","Airplane","23-011.png"
"","20877","image-button-response","51","null","486873","685c6ca90f751d3aae6b1794","685c6df7b4da2effaa0d97ff","5f2eebd9d21e322a9ed68f09","false","false","Bicycle","https://kisumu-drawings.s3-us-west-1.amazonaws.com/23-016.png","4","Cat","23-016.png"
"","6170","image-button-response","52","null","493549","685c6ca90f751d3aae6b1794","685c6df7b4da2effaa0d97ff","5f2eebd9d21e322a9ed68f09","false","false","Car","https://kisumu-drawings.s3-us-west-1.amazonaws.com/2-016.png","1","Bicycle","2-016.png"
"","7261","image-button-response","53","null","501315","685c6ca90f751d3aae6b1794","685c6df7b4da2effaa0d97ff","5f2eebd9d21e322a9ed68f09","false","false","Watch","https://kisumu-drawings.s3-us-west-1.amazonaws.com/23-007.png","7","Hat","23-007.png"
"","3518","image-button-response","54","null","505347","685c6ca90f751d3aae6b1794","685c6df7b4da2effaa0d97ff","5f2eebd9d21e322a9ed68f09","false","false","Bicycle","https://kisumu-drawings.s3-us-west-1.amazonaws.com/2-012.png","1","Bicycle","2-012.png"
"","2675","image-button-response","55","null","508527","685c6ca90f751d3aae6b1794","685c6df7b4da2effaa0d97ff","5f2eebd9d21e322a9ed68f09","false","false","House","https://kisumu-drawings.s3-us-west-1.amazonaws.com/2-008.png","8","House","2-008.png"
"","1561","image-button-response","56","null","510602","685c6ca90f751d3aae6b1794","685c6df7b4da2effaa0d97ff","5f2eebd9d21e322a9ed68f09","false","false","House","https://kisumu-drawings.s3-us-west-1.amazonaws.com/57-015.png","8","House","57-015.png"
"","4086","image-button-response","57","null","515197","685c6ca90f751d3aae6b1794","685c6df7b4da2effaa0d97ff","5f2eebd9d21e322a9ed68f09","false","false","Bicycle","https://kisumu-drawings.s3-us-west-1.amazonaws.com/64-015.png","5","Chair","64-015.png"
"","3215","image-button-response","58","null","518924","685c6ca90f751d3aae6b1794","685c6df7b4da2effaa0d97ff","5f2eebd9d21e322a9ed68f09","false","false","Airplane","https://kisumu-drawings.s3-us-west-1.amazonaws.com/23-012.png","6","Cup","23-012.png"
"","2103","image-button-response","59","null","521536","685c6ca90f751d3aae6b1794","685c6df7b4da2effaa0d97ff","5f2eebd9d21e322a9ed68f09","false","false","Tree","https://kisumu-drawings.s3-us-west-1.amazonaws.com/2-009.png","10","Tree","2-009.png"
"","2168","image-button-response","60","null","524211","685c6ca90f751d3aae6b1794","685c6df7b4da2effaa0d97ff","5f2eebd9d21e322a9ed68f09","false","false","Cup","https://kisumu-drawings.s3-us-west-1.amazonaws.com/2-007.png","8","House","2-007.png"
"","2180","image-button-response","61","null","526905","685c6ca90f751d3aae6b1794","685c6df7b4da2effaa0d97ff","5f2eebd9d21e322a9ed68f09","false","false","Bird","https://kisumu-drawings.s3-us-west-1.amazonaws.com/22-011.png","10","Tree","22-011.png"
"","1176","image-button-response","62","null","528593","685c6ca90f751d3aae6b1794","685c6df7b4da2effaa0d97ff","5f2eebd9d21e322a9ed68f09","false","false","Tree","https://kisumu-drawings.s3-us-west-1.amazonaws.com/57-005.png","10","Tree","57-005.png"
"","1360","image-button-response","63","null","530463","685c6ca90f751d3aae6b1794","685c6df7b4da2effaa0d97ff","5f2eebd9d21e322a9ed68f09","false","false","House","https://kisumu-drawings.s3-us-west-1.amazonaws.com/89-015.png","8","House","89-015.png"
"","1412","image-button-response","64","null","532391","685c6ca90f751d3aae6b1794","685c6df7b4da2effaa0d97ff","5f2eebd9d21e322a9ed68f09","false","false","Chair","https://kisumu-drawings.s3-us-west-1.amazonaws.com/57-009.png","5","Chair","57-009.png"
"","1868","image-button-response","65","null","534775","685c6ca90f751d3aae6b1794","685c6df7b4da2effaa0d97ff","5f2eebd9d21e322a9ed68f09","false","false","Cup","https://kisumu-drawings.s3-us-west-1.amazonaws.com/23-013.png","6","Cup","23-013.png"
"","1842","image-button-response","66","null","537120","685c6ca90f751d3aae6b1794","685c6df7b4da2effaa0d97ff","5f2eebd9d21e322a9ed68f09","false","false","Bicycle","https://kisumu-drawings.s3-us-west-1.amazonaws.com/57-011.png","1","Bicycle","57-011.png"
"","1456","image-button-response","67","null","539086","685c6ca90f751d3aae6b1794","685c6df7b4da2effaa0d97ff","5f2eebd9d21e322a9ed68f09","false","false","Cup","https://kisumu-drawings.s3-us-west-1.amazonaws.com/89-008.png","6","Cup","89-008.png"
"","2379","image-button-response","68","null","541979","685c6ca90f751d3aae6b1794","685c6df7b4da2effaa0d97ff","5f2eebd9d21e322a9ed68f09","false","false","Tree","https://kisumu-drawings.s3-us-west-1.amazonaws.com/23-009.png","10","Tree","23-009.png"
"","1643","image-button-response","69","null","544129","685c6ca90f751d3aae6b1794","685c6df7b4da2effaa0d97ff","5f2eebd9d21e322a9ed68f09","false","false","Car","https://kisumu-drawings.s3-us-west-1.amazonaws.com/89-013.png","0","Airplane","89-013.png"
"","8398","image-button-response","70","null","553029","685c6ca90f751d3aae6b1794","685c6df7b4da2effaa0d97ff","5f2eebd9d21e322a9ed68f09","false","false","Cat","https://kisumu-drawings.s3-us-west-1.amazonaws.com/60-013.png","4","Cat","60-013.png"
"","2576","image-button-response","71","null","556119","685c6ca90f751d3aae6b1794","685c6df7b4da2effaa0d97ff","5f2eebd9d21e322a9ed68f09","false","false","Watch","https://kisumu-drawings.s3-us-west-1.amazonaws.com/89-009.png","11","Watch","89-009.png"
"","1943","image-button-response","72","null","558576","685c6ca90f751d3aae6b1794","685c6df7b4da2effaa0d97ff","5f2eebd9d21e322a9ed68f09","false","false","House","https://kisumu-drawings.s3-us-west-1.amazonaws.com/64-008.png","8","House","64-008.png"
"","14709","image-button-response","73","null","573791","685c6ca90f751d3aae6b1794","685c6df7b4da2effaa0d97ff","5f2eebd9d21e322a9ed68f09","false","false","Rabbit","https://kisumu-drawings.s3-us-west-1.amazonaws.com/2-010.png","4","Cat","2-010.png"
"","2609","image-button-response","74","null","576913","685c6ca90f751d3aae6b1794","685c6df7b4da2effaa0d97ff","5f2eebd9d21e322a9ed68f09","false","false","House","https://kisumu-drawings.s3-us-west-1.amazonaws.com/103-010.png","8","House","103-010.png"
"","12554","image-button-response","75","null","589974","685c6ca90f751d3aae6b1794","685c6df7b4da2effaa0d97ff","5f2eebd9d21e322a9ed68f09","false","false","Airplane","https://kisumu-drawings.s3-us-west-1.amazonaws.com/2-013.png","10","Tree","2-013.png"
