"view_history","rt","trial_type","trial_index","plugin_version","time_elapsed","study_id","session_id","participant_id","catch_trial","prep_trial","sketcher_category","stimulus","response","response_category","sketch_id"
"[{""page_index"":0,""viewing_time"":11348},{""page_index"":1,""viewing_time"":5543},{""page_index"":2,""viewing_time"":8408},{""page_index"":3,""viewing_time"":13202}]","38502","instructions","0","null","38521","685c6ca90f751d3aae6b1794","685c6e2348e3d224c945b560","5ffe3f18adbaca4ddb7e4006","","","","","","",""
"","3990","image-button-response","1","null","43517","685c6ca90f751d3aae6b1794","685c6e2348e3d224c945b560","5ffe3f18adbaca4ddb7e4006","false","true","car","stimuli/prep_trials/1_car_prep.png","3","Car",""
"","5467","image-button-response","2","null","49488","685c6ca90f751d3aae6b1794","685c6e2348e3d224c945b560","5ffe3f18adbaca4ddb7e4006","false","true","cat","stimuli/prep_trials/0_cat_prep.jpg","4","Cat",""
"","4888","image-button-response","3","null","54894","685c6ca90f751d3aae6b1794","685c6e2348e3d224c945b560","5ffe3f18adbaca4ddb7e4006","false","false","Bicycle","https://kisumu-drawings.s3-us-west-1.amazonaws.com/106-009.png","1","Bicycle","106-009.png"
"","28615","image-button-response","4","null","84012","685c6ca90f751d3aae6b1794","685c6e2348e3d224c945b560","5ffe3f18adbaca4ddb7e4006","false","false","Cat","https://kisumu-drawings.s3-us-west-1.amazonaws.com/106-005.png","9","Rabbit","106-005.png"
"","3839","image-button-response","5","null","88354","685c6ca90f751d3aae6b1794","685c6e2348e3d224c945b560","5ffe3f18adbaca4ddb7e4006","false","false","Airplane","https://kisumu-drawings.s3-us-west-1.amazonaws.com/25-006.png","0","Airplane","25-006.png"
"","6525","image-button-response","6","null","95390","685c6ca90f751d3aae6b1794","685c6e2348e3d224c945b560","5ffe3f18adbaca4ddb7e4006","false","false","Airplane","https://kisumu-drawings.s3-us-west-1.amazonaws.com/67-014.png","0","Airplane","67-014.png"
"","15260","image-button-response","7","null","111154","685c6ca90f751d3aae6b1794","685c6e2348e3d224c945b560","5ffe3f18adbaca4ddb7e4006","false","false","Car","https://kisumu-drawings.s3-us-west-1.amazonaws.com/25-007.png","0","Airplane","25-007.png"
"","28334","image-button-response","8","null","139990","685c6ca90f751d3aae6b1794","685c6e2348e3d224c945b560","5ffe3f18adbaca4ddb7e4006","false","false","Bicycle","https://kisumu-drawings.s3-us-west-1.amazonaws.com/5-015.png","2","Bird","5-015.png"
"","8915","image-button-response","9","null","149408","685c6ca90f751d3aae6b1794","685c6e2348e3d224c945b560","5ffe3f18adbaca4ddb7e4006","false","false","Watch","https://kisumu-drawings.s3-us-west-1.amazonaws.com/92-008.png","11","Watch","92-008.png"
"","5676","image-button-response","10","null","155587","685c6ca90f751d3aae6b1794","685c6e2348e3d224c945b560","5ffe3f18adbaca4ddb7e4006","false","false","Bird","https://kisumu-drawings.s3-us-west-1.amazonaws.com/60-014.png","2","Bird","60-014.png"
"","4332","image-button-response","11","null","160427","685c6ca90f751d3aae6b1794","685c6e2348e3d224c945b560","5ffe3f18adbaca4ddb7e4006","false","false","House","https://kisumu-drawings.s3-us-west-1.amazonaws.com/25-014.png","8","House","25-014.png"
"","29757","image-button-response","12","null","190687","685c6ca90f751d3aae6b1794","685c6e2348e3d224c945b560","5ffe3f18adbaca4ddb7e4006","false","false","Rabbit","https://kisumu-drawings.s3-us-west-1.amazonaws.com/92-016.png","4","Cat","92-016.png"
"","2615","image-button-response","13","null","193805","685c6ca90f751d3aae6b1794","685c6e2348e3d224c945b560","5ffe3f18adbaca4ddb7e4006","false","false","House","https://kisumu-drawings.s3-us-west-1.amazonaws.com/60-006.png","8","House","60-006.png"
"","3202","image-button-response","14","null","197511","685c6ca90f751d3aae6b1794","685c6e2348e3d224c945b560","5ffe3f18adbaca4ddb7e4006","false","false","Bird","https://kisumu-drawings.s3-us-west-1.amazonaws.com/67-016.png","2","Bird","67-016.png"
"","31546","image-button-response","15","null","229571","685c6ca90f751d3aae6b1794","685c6e2348e3d224c945b560","5ffe3f18adbaca4ddb7e4006","false","false","Cat","https://kisumu-drawings.s3-us-west-1.amazonaws.com/25-010.png","2","Bird","25-010.png"
"","4304","image-button-response","16","null","234383","685c6ca90f751d3aae6b1794","685c6e2348e3d224c945b560","5ffe3f18adbaca4ddb7e4006","false","false","Airplane","https://kisumu-drawings.s3-us-west-1.amazonaws.com/5-010.png","7","Hat","5-010.png"
"","2665","image-button-response","17","null","237555","685c6ca90f751d3aae6b1794","685c6e2348e3d224c945b560","5ffe3f18adbaca4ddb7e4006","false","false","Car","https://kisumu-drawings.s3-us-west-1.amazonaws.com/60-012.png","3","Car","60-012.png"
"","3859","image-button-response","18","null","241919","685c6ca90f751d3aae6b1794","685c6e2348e3d224c945b560","5ffe3f18adbaca4ddb7e4006","false","false","Tree","https://kisumu-drawings.s3-us-west-1.amazonaws.com/67-008.png","10","Tree","67-008.png"
"","2969","image-button-response","19","null","245395","685c6ca90f751d3aae6b1794","685c6e2348e3d224c945b560","5ffe3f18adbaca4ddb7e4006","false","false","House","https://kisumu-drawings.s3-us-west-1.amazonaws.com/106-013.png","8","House","106-013.png"
"","18756","image-button-response","20","null","264654","685c6ca90f751d3aae6b1794","685c6e2348e3d224c945b560","5ffe3f18adbaca4ddb7e4006","false","false","Chair","https://kisumu-drawings.s3-us-west-1.amazonaws.com/60-011.png","5","Chair","60-011.png"
"","3714","image-button-response","21","null","268872","685c6ca90f751d3aae6b1794","685c6e2348e3d224c945b560","5ffe3f18adbaca4ddb7e4006","false","false","House","https://kisumu-drawings.s3-us-west-1.amazonaws.com/5-013.png","4","Cat","5-013.png"
"","2545","image-button-response","22","null","271930","685c6ca90f751d3aae6b1794","685c6e2348e3d224c945b560","5ffe3f18adbaca4ddb7e4006","false","false","Hat","https://kisumu-drawings.s3-us-west-1.amazonaws.com/92-011.png","7","Hat","92-011.png"
"","3243","image-button-response","23","null","275678","685c6ca90f751d3aae6b1794","685c6e2348e3d224c945b560","5ffe3f18adbaca4ddb7e4006","false","false","Car","https://kisumu-drawings.s3-us-west-1.amazonaws.com/67-005.png","3","Car","67-005.png"
"","6197","image-button-response","24","null","282388","685c6ca90f751d3aae6b1794","685c6e2348e3d224c945b560","5ffe3f18adbaca4ddb7e4006","false","false","Car","https://kisumu-drawings.s3-us-west-1.amazonaws.com/106-016.png","3","Car","106-016.png"
"","10656","image-button-response","25","null","293548","685c6ca90f751d3aae6b1794","685c6e2348e3d224c945b560","5ffe3f18adbaca4ddb7e4006","false","false","Bird","https://kisumu-drawings.s3-us-west-1.amazonaws.com/5-016.png","11","Watch","5-016.png"
"","2699","image-button-response","26","null","296750","685c6ca90f751d3aae6b1794","685c6e2348e3d224c945b560","5ffe3f18adbaca4ddb7e4006","false","false","Airplane","https://kisumu-drawings.s3-us-west-1.amazonaws.com/93-015.png","0","Airplane","93-015.png"
"","1330","image-button-response","27","null","298584","685c6ca90f751d3aae6b1794","685c6e2348e3d224c945b560","5ffe3f18adbaca4ddb7e4006","true","false","airplane","stimuli/catch_trials/0_airplane_catch.jpg","0","Airplane",""
"","1977","image-button-response","28","null","301064","685c6ca90f751d3aae6b1794","685c6e2348e3d224c945b560","5ffe3f18adbaca4ddb7e4006","false","false","Cup","https://kisumu-drawings.s3-us-west-1.amazonaws.com/67-011.png","6","Cup","67-011.png"
"","24329","image-button-response","29","null","325898","685c6ca90f751d3aae6b1794","685c6e2348e3d224c945b560","5ffe3f18adbaca4ddb7e4006","false","false","Rabbit","https://kisumu-drawings.s3-us-west-1.amazonaws.com/25-013.png","11","Watch","25-013.png"
"","2679","image-button-response","30","null","329082","685c6ca90f751d3aae6b1794","685c6e2348e3d224c945b560","5ffe3f18adbaca4ddb7e4006","false","false","Watch","https://kisumu-drawings.s3-us-west-1.amazonaws.com/106-006.png","11","Watch","106-006.png"
"","2022","image-button-response","31","null","331606","685c6ca90f751d3aae6b1794","685c6e2348e3d224c945b560","5ffe3f18adbaca4ddb7e4006","false","false","Chair","https://kisumu-drawings.s3-us-west-1.amazonaws.com/5-014.png","5","Chair","5-014.png"
"","2086","image-button-response","32","null","334194","685c6ca90f751d3aae6b1794","685c6e2348e3d224c945b560","5ffe3f18adbaca4ddb7e4006","false","false","Rabbit","https://kisumu-drawings.s3-us-west-1.amazonaws.com/5-005.png","4","Cat","5-005.png"
"","2309","image-button-response","33","null","337016","685c6ca90f751d3aae6b1794","685c6e2348e3d224c945b560","5ffe3f18adbaca4ddb7e4006","false","false","Hat","https://kisumu-drawings.s3-us-west-1.amazonaws.com/67-012.png","7","Hat","67-012.png"
"","9077","image-button-response","34","null","346598","685c6ca90f751d3aae6b1794","685c6e2348e3d224c945b560","5ffe3f18adbaca4ddb7e4006","false","false","Tree","https://kisumu-drawings.s3-us-west-1.amazonaws.com/92-015.png","5","Chair","92-015.png"
"","10098","image-button-response","35","null","357212","685c6ca90f751d3aae6b1794","685c6e2348e3d224c945b560","5ffe3f18adbaca4ddb7e4006","false","false","Watch","https://kisumu-drawings.s3-us-west-1.amazonaws.com/67-006.png","11","Watch","67-006.png"
"","9103","image-button-response","36","null","366831","685c6ca90f751d3aae6b1794","685c6e2348e3d224c945b560","5ffe3f18adbaca4ddb7e4006","false","false","Bicycle","https://kisumu-drawings.s3-us-west-1.amazonaws.com/92-005.png","0","Airplane","92-005.png"
"","13111","image-button-response","37","null","380450","685c6ca90f751d3aae6b1794","685c6e2348e3d224c945b560","5ffe3f18adbaca4ddb7e4006","false","false","Hat","https://kisumu-drawings.s3-us-west-1.amazonaws.com/5-007.png","8","House","5-007.png"
"","9703","image-button-response","38","null","390655","685c6ca90f751d3aae6b1794","685c6e2348e3d224c945b560","5ffe3f18adbaca4ddb7e4006","false","false","Car","https://kisumu-drawings.s3-us-west-1.amazonaws.com/93-009.png","3","Car","93-009.png"
"","6448","image-button-response","39","null","397615","685c6ca90f751d3aae6b1794","685c6e2348e3d224c945b560","5ffe3f18adbaca4ddb7e4006","false","false","Rabbit","https://kisumu-drawings.s3-us-west-1.amazonaws.com/60-008.png","2","Bird","60-008.png"
"","5065","image-button-response","40","null","403183","685c6ca90f751d3aae6b1794","685c6e2348e3d224c945b560","5ffe3f18adbaca4ddb7e4006","false","false","Watch","https://kisumu-drawings.s3-us-west-1.amazonaws.com/60-010.png","11","Watch","60-010.png"
"","12920","image-button-response","41","null","416607","685c6ca90f751d3aae6b1794","685c6e2348e3d224c945b560","5ffe3f18adbaca4ddb7e4006","false","false","Hat","https://kisumu-drawings.s3-us-west-1.amazonaws.com/106-011.png","11","Watch","106-011.png"
"","4831","image-button-response","42","null","421951","685c6ca90f751d3aae6b1794","685c6e2348e3d224c945b560","5ffe3f18adbaca4ddb7e4006","false","false","Cat","https://kisumu-drawings.s3-us-west-1.amazonaws.com/5-011.png","9","Rabbit","5-011.png"
"","4197","image-button-response","43","null","426651","685c6ca90f751d3aae6b1794","685c6e2348e3d224c945b560","5ffe3f18adbaca4ddb7e4006","false","false","Rabbit","https://kisumu-drawings.s3-us-west-1.amazonaws.com/106-014.png","4","Cat","106-014.png"
"","2477","image-button-response","44","null","429633","685c6ca90f751d3aae6b1794","685c6e2348e3d224c945b560","5ffe3f18adbaca4ddb7e4006","false","false","House","https://kisumu-drawings.s3-us-west-1.amazonaws.com/92-013.png","8","House","92-013.png"
"","15104","image-button-response","45","null","445241","685c6ca90f751d3aae6b1794","685c6e2348e3d224c945b560","5ffe3f18adbaca4ddb7e4006","false","false","Tree","https://kisumu-drawings.s3-us-west-1.amazonaws.com/25-016.png","10","Tree","25-016.png"
"","22394","image-button-response","46","null","468138","685c6ca90f751d3aae6b1794","685c6e2348e3d224c945b560","5ffe3f18adbaca4ddb7e4006","false","false","Bicycle","https://kisumu-drawings.s3-us-west-1.amazonaws.com/67-015.png","1","Bicycle","67-015.png"
"","37429","image-button-response","47","null","506070","685c6ca90f751d3aae6b1794","685c6e2348e3d224c945b560","5ffe3f18adbaca4ddb7e4006","false","false","Watch","https://kisumu-drawings.s3-us-west-1.amazonaws.com/5-009.png","1","Bicycle","5-009.png"
"","2586","image-button-response","48","null","509160","685c6ca90f751d3aae6b1794","685c6e2348e3d224c945b560","5ffe3f18adbaca4ddb7e4006","false","false","Cat","https://kisumu-drawings.s3-us-west-1.amazonaws.com/92-014.png","4","Cat","92-014.png"
"","8747","image-button-response","49","null","518416","685c6ca90f751d3aae6b1794","685c6e2348e3d224c945b560","5ffe3f18adbaca4ddb7e4006","false","false","Bird","https://kisumu-drawings.s3-us-west-1.amazonaws.com/106-015.png","11","Watch","106-015.png"
"","15797","image-button-response","50","null","534716","685c6ca90f751d3aae6b1794","685c6e2348e3d224c945b560","5ffe3f18adbaca4ddb7e4006","false","false","Chair","https://kisumu-drawings.s3-us-west-1.amazonaws.com/68-012.png","5","Chair","68-012.png"
"","11179","image-button-response","51","null","546398","685c6ca90f751d3aae6b1794","685c6e2348e3d224c945b560","5ffe3f18adbaca4ddb7e4006","false","false","Cup","https://kisumu-drawings.s3-us-west-1.amazonaws.com/5-012.png","6","Cup","5-012.png"
"","23892","image-button-response","52","null","570808","685c6ca90f751d3aae6b1794","685c6e2348e3d224c945b560","5ffe3f18adbaca4ddb7e4006","false","false","Car","https://kisumu-drawings.s3-us-west-1.amazonaws.com/5-006.png","3","Car","5-006.png"
"","14170","image-button-response","53","null","585480","685c6ca90f751d3aae6b1794","685c6e2348e3d224c945b560","5ffe3f18adbaca4ddb7e4006","false","false","Cup","https://kisumu-drawings.s3-us-west-1.amazonaws.com/60-007.png","6","Cup","60-007.png"
"","3177","image-button-response","54","null","589159","685c6ca90f751d3aae6b1794","685c6e2348e3d224c945b560","5ffe3f18adbaca4ddb7e4006","false","false","Cat","https://kisumu-drawings.s3-us-west-1.amazonaws.com/67-013.png","4","Cat","67-013.png"
"","29263","image-button-response","55","null","618925","685c6ca90f751d3aae6b1794","685c6e2348e3d224c945b560","5ffe3f18adbaca4ddb7e4006","false","false","Watch","https://kisumu-drawings.s3-us-west-1.amazonaws.com/25-015.png","7","Hat","25-015.png"
"","16561","image-button-response","56","null","635989","685c6ca90f751d3aae6b1794","685c6e2348e3d224c945b560","5ffe3f18adbaca4ddb7e4006","false","false","Hat","https://kisumu-drawings.s3-us-west-1.amazonaws.com/25-011.png","5","Chair","25-011.png"
"","10024","image-button-response","57","null","646525","685c6ca90f751d3aae6b1794","685c6e2348e3d224c945b560","5ffe3f18adbaca4ddb7e4006","false","false","Bicycle","https://kisumu-drawings.s3-us-west-1.amazonaws.com/60-015.png","1","Bicycle","60-015.png"
"","5625","image-button-response","58","null","652653","685c6ca90f751d3aae6b1794","685c6e2348e3d224c945b560","5ffe3f18adbaca4ddb7e4006","false","false","Cup","https://kisumu-drawings.s3-us-west-1.amazonaws.com/25-012.png","6","Cup","25-012.png"
"","9437","image-button-response","59","null","662593","685c6ca90f751d3aae6b1794","685c6e2348e3d224c945b560","5ffe3f18adbaca4ddb7e4006","false","false","Cat","https://kisumu-drawings.s3-us-west-1.amazonaws.com/59-008.png","4","Cat","59-008.png"
"","9984","image-button-response","60","null","673093","685c6ca90f751d3aae6b1794","685c6e2348e3d224c945b560","5ffe3f18adbaca4ddb7e4006","false","false","Rabbit","https://kisumu-drawings.s3-us-west-1.amazonaws.com/67-007.png","9","Rabbit","67-007.png"
"","4751","image-button-response","61","null","678347","685c6ca90f751d3aae6b1794","685c6e2348e3d224c945b560","5ffe3f18adbaca4ddb7e4006","false","false","Cup","https://kisumu-drawings.s3-us-west-1.amazonaws.com/106-010.png","6","Cup","106-010.png"
"","43596","image-button-response","62","null","722457","685c6ca90f751d3aae6b1794","685c6e2348e3d224c945b560","5ffe3f18adbaca4ddb7e4006","false","false","Airplane","https://kisumu-drawings.s3-us-west-1.amazonaws.com/60-016.png","0","Airplane","60-016.png"
"","13588","image-button-response","63","null","736558","685c6ca90f751d3aae6b1794","685c6e2348e3d224c945b560","5ffe3f18adbaca4ddb7e4006","false","false","Cup","https://kisumu-drawings.s3-us-west-1.amazonaws.com/92-010.png","6","Cup","92-010.png"
"","14614","image-button-response","64","null","751674","685c6ca90f751d3aae6b1794","685c6e2348e3d224c945b560","5ffe3f18adbaca4ddb7e4006","false","false","Airplane","https://kisumu-drawings.s3-us-west-1.amazonaws.com/106-008.png","0","Airplane","106-008.png"
"","37540","image-button-response","65","null","789718","685c6ca90f751d3aae6b1794","685c6e2348e3d224c945b560","5ffe3f18adbaca4ddb7e4006","false","false","Bird","https://kisumu-drawings.s3-us-west-1.amazonaws.com/25-008.png","2","Bird","25-008.png"
"","10412","image-button-response","66","null","800634","685c6ca90f751d3aae6b1794","685c6e2348e3d224c945b560","5ffe3f18adbaca4ddb7e4006","false","false","Chair","https://kisumu-drawings.s3-us-west-1.amazonaws.com/106-007.png","5","Chair","106-007.png"
"","6701","image-button-response","67","null","807848","685c6ca90f751d3aae6b1794","685c6e2348e3d224c945b560","5ffe3f18adbaca4ddb7e4006","false","false","Tree","https://kisumu-drawings.s3-us-west-1.amazonaws.com/5-008.png","10","Tree","5-008.png"
"","23919","image-button-response","68","null","832269","685c6ca90f751d3aae6b1794","685c6e2348e3d224c945b560","5ffe3f18adbaca4ddb7e4006","false","false","Chair","https://kisumu-drawings.s3-us-west-1.amazonaws.com/92-009.png","5","Chair","92-009.png"
"","16550","image-button-response","69","null","849321","685c6ca90f751d3aae6b1794","685c6e2348e3d224c945b560","5ffe3f18adbaca4ddb7e4006","false","false","Bicycle","https://kisumu-drawings.s3-us-west-1.amazonaws.com/25-005.png","3","Car","25-005.png"
"","13051","image-button-response","70","null","862887","685c6ca90f751d3aae6b1794","685c6e2348e3d224c945b560","5ffe3f18adbaca4ddb7e4006","false","false","Tree","https://kisumu-drawings.s3-us-west-1.amazonaws.com/60-009.png","10","Tree","60-009.png"
"","7809","image-button-response","71","null","871211","685c6ca90f751d3aae6b1794","685c6e2348e3d224c945b560","5ffe3f18adbaca4ddb7e4006","false","false","Tree","https://kisumu-drawings.s3-us-west-1.amazonaws.com/106-012.png","10","Tree","106-012.png"
"","5793","image-button-response","72","null","877507","685c6ca90f751d3aae6b1794","685c6e2348e3d224c945b560","5ffe3f18adbaca4ddb7e4006","false","false","Bird","https://kisumu-drawings.s3-us-west-1.amazonaws.com/92-012.png","2","Bird","92-012.png"
"","4606","image-button-response","73","null","882615","685c6ca90f751d3aae6b1794","685c6e2348e3d224c945b560","5ffe3f18adbaca4ddb7e4006","false","false","Hat","https://kisumu-drawings.s3-us-west-1.amazonaws.com/60-005.png","7","Hat","60-005.png"
"","5957","image-button-response","74","null","889083","685c6ca90f751d3aae6b1794","685c6e2348e3d224c945b560","5ffe3f18adbaca4ddb7e4006","false","false","House","https://kisumu-drawings.s3-us-west-1.amazonaws.com/67-009.png","8","House","67-009.png"
"","3117","image-button-response","75","null","892703","685c6ca90f751d3aae6b1794","685c6e2348e3d224c945b560","5ffe3f18adbaca4ddb7e4006","false","false","Chair","https://kisumu-drawings.s3-us-west-1.amazonaws.com/26-009.png","5","Chair","26-009.png"
