"view_history","rt","trial_type","trial_index","plugin_version","time_elapsed","study_id","session_id","participant_id","catch_trial","prep_trial","sketcher_category","stimulus","response","response_category","sketch_id"
"[{""page_index"":0,""viewing_time"":15177},{""page_index"":1,""viewing_time"":4378},{""page_index"":2,""viewing_time"":4580},{""page_index"":3,""viewing_time"":2388}]","26523","instructions","0","null","26527","685c6ca90f751d3aae6b1794","685c6e62dc1164dcfc02740f","608bfa04767191aa4d57bfd8","","","","","","",""
"","1834","image-button-response","1","null","29378","685c6ca90f751d3aae6b1794","685c6e62dc1164dcfc02740f","608bfa04767191aa4d57bfd8","false","true","car","stimuli/prep_trials/1_car_prep.png","3","Car",""
"","1428","image-button-response","2","null","31312","685c6ca90f751d3aae6b1794","685c6e62dc1164dcfc02740f","608bfa04767191aa4d57bfd8","false","true","cat","stimuli/prep_trials/0_cat_prep.jpg","4","Cat",""
"","3915","image-button-response","3","null","35737","685c6ca90f751d3aae6b1794","685c6e62dc1164dcfc02740f","608bfa04767191aa4d57bfd8","false","false","Chair","https://kisumu-drawings.s3-us-west-1.amazonaws.com/10-016.png","5","Chair","10-016.png"
"","1710","image-button-response","4","null","37956","685c6ca90f751d3aae6b1794","685c6e62dc1164dcfc02740f","608bfa04767191aa4d57bfd8","false","false","House","https://kisumu-drawings.s3-us-west-1.amazonaws.com/54-015.png","8","House","54-015.png"
"","14769","image-button-response","5","null","53238","685c6ca90f751d3aae6b1794","685c6e62dc1164dcfc02740f","608bfa04767191aa4d57bfd8","false","false","Hat","https://kisumu-drawings.s3-us-west-1.amazonaws.com/71-006.png","9","Rabbit","71-006.png"
"","13098","image-button-response","6","null","66841","685c6ca90f751d3aae6b1794","685c6e62dc1164dcfc02740f","608bfa04767191aa4d57bfd8","false","false","House","https://kisumu-drawings.s3-us-west-1.amazonaws.com/10-009.png","8","House","10-009.png"
"","22030","image-button-response","7","null","89390","685c6ca90f751d3aae6b1794","685c6e62dc1164dcfc02740f","608bfa04767191aa4d57bfd8","false","false","Watch","https://kisumu-drawings.s3-us-west-1.amazonaws.com/10-012.png","4","Cat","10-012.png"
"","5719","image-button-response","8","null","95625","685c6ca90f751d3aae6b1794","685c6e62dc1164dcfc02740f","608bfa04767191aa4d57bfd8","false","false","Chair","https://kisumu-drawings.s3-us-west-1.amazonaws.com/30-010.png","10","Tree","30-010.png"
"","1653","image-button-response","9","null","97786","685c6ca90f751d3aae6b1794","685c6e62dc1164dcfc02740f","608bfa04767191aa4d57bfd8","true","false","airplane","stimuli/catch_trials/0_airplane_catch.jpg","0","Airplane",""
"","9806","image-button-response","10","null","108108","685c6ca90f751d3aae6b1794","685c6e62dc1164dcfc02740f","608bfa04767191aa4d57bfd8","false","false","Hat","https://kisumu-drawings.s3-us-west-1.amazonaws.com/97-005.png","6","Cup","97-005.png"
"","1972","image-button-response","11","null","110597","685c6ca90f751d3aae6b1794","685c6e62dc1164dcfc02740f","608bfa04767191aa4d57bfd8","false","false","Airplane","https://kisumu-drawings.s3-us-west-1.amazonaws.com/41-005.png","0","Airplane","41-005.png"
"","1680","image-button-response","12","null","112785","685c6ca90f751d3aae6b1794","685c6e62dc1164dcfc02740f","608bfa04767191aa4d57bfd8","false","false","House","https://kisumu-drawings.s3-us-west-1.amazonaws.com/30-013.png","8","House","30-013.png"
"","12425","image-button-response","13","null","125759","685c6ca90f751d3aae6b1794","685c6e62dc1164dcfc02740f","608bfa04767191aa4d57bfd8","false","false","Hat","https://kisumu-drawings.s3-us-west-1.amazonaws.com/9-006.png","5","Chair","9-006.png"
"","6834","image-button-response","14","null","133109","685c6ca90f751d3aae6b1794","685c6e62dc1164dcfc02740f","608bfa04767191aa4d57bfd8","false","false","Rabbit","https://kisumu-drawings.s3-us-west-1.amazonaws.com/71-005.png","9","Rabbit","71-005.png"
"","2372","image-button-response","15","null","135991","685c6ca90f751d3aae6b1794","685c6e62dc1164dcfc02740f","608bfa04767191aa4d57bfd8","false","false","Chair","https://kisumu-drawings.s3-us-west-1.amazonaws.com/111-005.png","5","Chair","111-005.png"
"","8508","image-button-response","16","null","145011","685c6ca90f751d3aae6b1794","685c6e62dc1164dcfc02740f","608bfa04767191aa4d57bfd8","false","false","Tree","https://kisumu-drawings.s3-us-west-1.amazonaws.com/10-011.png","10","Tree","10-011.png"
"","2303","image-button-response","17","null","147830","685c6ca90f751d3aae6b1794","685c6e62dc1164dcfc02740f","608bfa04767191aa4d57bfd8","false","false","Watch","https://kisumu-drawings.s3-us-west-1.amazonaws.com/111-015.png","11","Watch","111-015.png"
"","1453","image-button-response","18","null","149830","685c6ca90f751d3aae6b1794","685c6e62dc1164dcfc02740f","608bfa04767191aa4d57bfd8","false","false","Car","https://kisumu-drawings.s3-us-west-1.amazonaws.com/31-008.png","5","Chair","31-008.png"
"","1418","image-button-response","19","null","151762","685c6ca90f751d3aae6b1794","685c6e62dc1164dcfc02740f","608bfa04767191aa4d57bfd8","false","false","Tree","https://kisumu-drawings.s3-us-west-1.amazonaws.com/71-014.png","10","Tree","71-014.png"
"","11473","image-button-response","20","null","163751","685c6ca90f751d3aae6b1794","685c6e62dc1164dcfc02740f","608bfa04767191aa4d57bfd8","false","false","Cat","https://kisumu-drawings.s3-us-west-1.amazonaws.com/11-008.png","3","Car","11-008.png"
"","3252","image-button-response","21","null","167533","685c6ca90f751d3aae6b1794","685c6e62dc1164dcfc02740f","608bfa04767191aa4d57bfd8","false","false","House","https://kisumu-drawings.s3-us-west-1.amazonaws.com/71-008.png","8","House","71-008.png"
"","2245","image-button-response","22","null","170347","685c6ca90f751d3aae6b1794","685c6e62dc1164dcfc02740f","608bfa04767191aa4d57bfd8","false","false","Watch","https://kisumu-drawings.s3-us-west-1.amazonaws.com/54-012.png","11","Watch","54-012.png"
"","1934","image-button-response","23","null","172788","685c6ca90f751d3aae6b1794","685c6e62dc1164dcfc02740f","608bfa04767191aa4d57bfd8","false","false","Airplane","https://kisumu-drawings.s3-us-west-1.amazonaws.com/100-014.png","0","Airplane","100-014.png"
"","11018","image-button-response","24","null","184322","685c6ca90f751d3aae6b1794","685c6e62dc1164dcfc02740f","608bfa04767191aa4d57bfd8","false","false","Bicycle","https://kisumu-drawings.s3-us-west-1.amazonaws.com/32-009.png","9","Rabbit","32-009.png"
"","2745","image-button-response","25","null","187599","685c6ca90f751d3aae6b1794","685c6e62dc1164dcfc02740f","608bfa04767191aa4d57bfd8","false","false","Hat","https://kisumu-drawings.s3-us-west-1.amazonaws.com/54-014.png","0","Airplane","54-014.png"
"","6328","image-button-response","26","null","194435","685c6ca90f751d3aae6b1794","685c6e62dc1164dcfc02740f","608bfa04767191aa4d57bfd8","false","false","Cup","https://kisumu-drawings.s3-us-west-1.amazonaws.com/97-008.png","10","Tree","97-008.png"
"","3422","image-button-response","27","null","198373","685c6ca90f751d3aae6b1794","685c6e62dc1164dcfc02740f","608bfa04767191aa4d57bfd8","false","false","Bird","https://kisumu-drawings.s3-us-west-1.amazonaws.com/98-013.png","0","Airplane","98-013.png"
"","11177","image-button-response","28","null","210058","685c6ca90f751d3aae6b1794","685c6e62dc1164dcfc02740f","608bfa04767191aa4d57bfd8","false","false","Bird","https://kisumu-drawings.s3-us-west-1.amazonaws.com/12-009.png","2","Bird","12-009.png"
"","2130","image-button-response","29","null","212699","685c6ca90f751d3aae6b1794","685c6e62dc1164dcfc02740f","608bfa04767191aa4d57bfd8","false","false","Rabbit","https://kisumu-drawings.s3-us-west-1.amazonaws.com/111-011.png","4","Cat","111-011.png"
"","1708","image-button-response","30","null","214959","685c6ca90f751d3aae6b1794","685c6e62dc1164dcfc02740f","608bfa04767191aa4d57bfd8","false","false","Watch","https://kisumu-drawings.s3-us-west-1.amazonaws.com/71-015.png","11","Watch","71-015.png"
"","2848","image-button-response","31","null","218325","685c6ca90f751d3aae6b1794","685c6e62dc1164dcfc02740f","608bfa04767191aa4d57bfd8","false","false","House","https://kisumu-drawings.s3-us-west-1.amazonaws.com/111-014.png","8","House","111-014.png"
"","2920","image-button-response","32","null","221763","685c6ca90f751d3aae6b1794","685c6e62dc1164dcfc02740f","608bfa04767191aa4d57bfd8","false","false","Rabbit","https://kisumu-drawings.s3-us-west-1.amazonaws.com/10-010.png","1","Bicycle","10-010.png"
"","1398","image-button-response","33","null","223663","685c6ca90f751d3aae6b1794","685c6e62dc1164dcfc02740f","608bfa04767191aa4d57bfd8","false","false","Bicycle","https://kisumu-drawings.s3-us-west-1.amazonaws.com/12-007.png","1","Bicycle","12-007.png"
"","1632","image-button-response","34","null","225803","685c6ca90f751d3aae6b1794","685c6e62dc1164dcfc02740f","608bfa04767191aa4d57bfd8","false","false","Cup","https://kisumu-drawings.s3-us-west-1.amazonaws.com/30-011.png","6","Cup","30-011.png"
"","2193","image-button-response","35","null","228505","685c6ca90f751d3aae6b1794","685c6e62dc1164dcfc02740f","608bfa04767191aa4d57bfd8","false","false","Bird","https://kisumu-drawings.s3-us-west-1.amazonaws.com/113-016.png","2","Bird","113-016.png"
"","27665","image-button-response","36","null","256689","685c6ca90f751d3aae6b1794","685c6e62dc1164dcfc02740f","608bfa04767191aa4d57bfd8","false","false","Airplane","https://kisumu-drawings.s3-us-west-1.amazonaws.com/13-006.png","6","Cup","13-006.png"
"","5162","image-button-response","37","null","262355","685c6ca90f751d3aae6b1794","685c6e62dc1164dcfc02740f","608bfa04767191aa4d57bfd8","false","false","Watch","https://kisumu-drawings.s3-us-west-1.amazonaws.com/30-016.png","7","Hat","30-016.png"
"","14669","image-button-response","38","null","277541","685c6ca90f751d3aae6b1794","685c6e62dc1164dcfc02740f","608bfa04767191aa4d57bfd8","false","false","Cat","https://kisumu-drawings.s3-us-west-1.amazonaws.com/30-009.png","4","Cat","30-009.png"
"","2375","image-button-response","39","null","280463","685c6ca90f751d3aae6b1794","685c6e62dc1164dcfc02740f","608bfa04767191aa4d57bfd8","false","false","Cup","https://kisumu-drawings.s3-us-west-1.amazonaws.com/54-013.png","6","Cup","54-013.png"
"","2537","image-button-response","40","null","283504","685c6ca90f751d3aae6b1794","685c6e62dc1164dcfc02740f","608bfa04767191aa4d57bfd8","false","false","Cat","https://kisumu-drawings.s3-us-west-1.amazonaws.com/97-015.png","4","Cat","97-015.png"
"","1632","image-button-response","41","null","285651","685c6ca90f751d3aae6b1794","685c6e62dc1164dcfc02740f","608bfa04767191aa4d57bfd8","false","false","Bird","https://kisumu-drawings.s3-us-west-1.amazonaws.com/72-016.png","10","Tree","72-016.png"
"","1758","image-button-response","42","null","287914","685c6ca90f751d3aae6b1794","685c6e62dc1164dcfc02740f","608bfa04767191aa4d57bfd8","false","false","Chair","https://kisumu-drawings.s3-us-west-1.amazonaws.com/97-009.png","5","Chair","97-009.png"
"","1587","image-button-response","43","null","290008","685c6ca90f751d3aae6b1794","685c6e62dc1164dcfc02740f","608bfa04767191aa4d57bfd8","false","false","Tree","https://kisumu-drawings.s3-us-west-1.amazonaws.com/111-008.png","10","Tree","111-008.png"
"","2798","image-button-response","44","null","293325","685c6ca90f751d3aae6b1794","685c6e62dc1164dcfc02740f","608bfa04767191aa4d57bfd8","false","false","Car","https://kisumu-drawings.s3-us-west-1.amazonaws.com/111-012.png","3","Car","111-012.png"
"","1704","image-button-response","45","null","295531","685c6ca90f751d3aae6b1794","685c6e62dc1164dcfc02740f","608bfa04767191aa4d57bfd8","false","false","Chair","https://kisumu-drawings.s3-us-west-1.amazonaws.com/71-011.png","5","Chair","71-011.png"
"","5574","image-button-response","46","null","301617","685c6ca90f751d3aae6b1794","685c6e62dc1164dcfc02740f","608bfa04767191aa4d57bfd8","false","false","Airplane","https://kisumu-drawings.s3-us-west-1.amazonaws.com/33-005.png","10","Tree","33-005.png"
"","3627","image-button-response","47","null","305753","685c6ca90f751d3aae6b1794","685c6e62dc1164dcfc02740f","608bfa04767191aa4d57bfd8","false","false","Rabbit","https://kisumu-drawings.s3-us-west-1.amazonaws.com/97-012.png","2","Bird","97-012.png"
"","1842","image-button-response","48","null","308109","685c6ca90f751d3aae6b1794","685c6e62dc1164dcfc02740f","608bfa04767191aa4d57bfd8","false","false","House","https://kisumu-drawings.s3-us-west-1.amazonaws.com/97-011.png","8","House","97-011.png"
"","1926","image-button-response","49","null","310577","685c6ca90f751d3aae6b1794","685c6e62dc1164dcfc02740f","608bfa04767191aa4d57bfd8","false","false","Bicycle","https://kisumu-drawings.s3-us-west-1.amazonaws.com/113-011.png","1","Bicycle","113-011.png"
"","3019","image-button-response","50","null","314129","685c6ca90f751d3aae6b1794","685c6e62dc1164dcfc02740f","608bfa04767191aa4d57bfd8","false","false","Hat","https://kisumu-drawings.s3-us-west-1.amazonaws.com/30-012.png","7","Hat","30-012.png"
"","3169","image-button-response","51","null","317811","685c6ca90f751d3aae6b1794","685c6e62dc1164dcfc02740f","608bfa04767191aa4d57bfd8","false","false","Bird","https://kisumu-drawings.s3-us-west-1.amazonaws.com/55-007.png","2","Bird","55-007.png"
"","1577","image-button-response","52","null","319906","685c6ca90f751d3aae6b1794","685c6e62dc1164dcfc02740f","608bfa04767191aa4d57bfd8","false","false","Cup","https://kisumu-drawings.s3-us-west-1.amazonaws.com/111-006.png","6","Cup","111-006.png"
"","1343","image-button-response","53","null","321765","685c6ca90f751d3aae6b1794","685c6e62dc1164dcfc02740f","608bfa04767191aa4d57bfd8","false","false","Bicycle","https://kisumu-drawings.s3-us-west-1.amazonaws.com/99-013.png","1","Bicycle","99-013.png"
"","3198","image-button-response","54","null","325475","685c6ca90f751d3aae6b1794","685c6e62dc1164dcfc02740f","608bfa04767191aa4d57bfd8","false","false","Car","https://kisumu-drawings.s3-us-west-1.amazonaws.com/10-006.png","3","Car","10-006.png"
"","1734","image-button-response","55","null","327721","685c6ca90f751d3aae6b1794","685c6e62dc1164dcfc02740f","608bfa04767191aa4d57bfd8","false","false","Bicycle","https://kisumu-drawings.s3-us-west-1.amazonaws.com/73-007.png","1","Bicycle","73-007.png"
"","1537","image-button-response","56","null","329767","685c6ca90f751d3aae6b1794","685c6e62dc1164dcfc02740f","608bfa04767191aa4d57bfd8","false","false","Chair","https://kisumu-drawings.s3-us-west-1.amazonaws.com/54-007.png","5","Chair","54-007.png"
"","1257","image-button-response","57","null","331534","685c6ca90f751d3aae6b1794","685c6e62dc1164dcfc02740f","608bfa04767191aa4d57bfd8","false","false","Tree","https://kisumu-drawings.s3-us-west-1.amazonaws.com/54-011.png","10","Tree","54-011.png"
"","1390","image-button-response","58","null","333435","685c6ca90f751d3aae6b1794","685c6e62dc1164dcfc02740f","608bfa04767191aa4d57bfd8","false","false","Cat","https://kisumu-drawings.s3-us-west-1.amazonaws.com/72-014.png","3","Car","72-014.png"
"","1924","image-button-response","59","null","335871","685c6ca90f751d3aae6b1794","685c6e62dc1164dcfc02740f","608bfa04767191aa4d57bfd8","false","false","Hat","https://kisumu-drawings.s3-us-west-1.amazonaws.com/111-013.png","7","Hat","111-013.png"
"","2682","image-button-response","60","null","339107","685c6ca90f751d3aae6b1794","685c6e62dc1164dcfc02740f","608bfa04767191aa4d57bfd8","false","false","Airplane","https://kisumu-drawings.s3-us-west-1.amazonaws.com/74-015.png","8","House","74-015.png"
"","3483","image-button-response","61","null","343109","685c6ca90f751d3aae6b1794","685c6e62dc1164dcfc02740f","608bfa04767191aa4d57bfd8","false","false","Rabbit","https://kisumu-drawings.s3-us-west-1.amazonaws.com/30-014.png","4","Cat","30-014.png"
"","3997","image-button-response","62","null","347616","685c6ca90f751d3aae6b1794","685c6e62dc1164dcfc02740f","608bfa04767191aa4d57bfd8","false","false","Watch","https://kisumu-drawings.s3-us-west-1.amazonaws.com/97-010.png","8","House","97-010.png"
"","1922","image-button-response","63","null","350055","685c6ca90f751d3aae6b1794","685c6e62dc1164dcfc02740f","608bfa04767191aa4d57bfd8","false","false","Bicycle","https://kisumu-drawings.s3-us-west-1.amazonaws.com/41-009.png","1","Bicycle","41-009.png"
"","1873","image-button-response","64","null","352441","685c6ca90f751d3aae6b1794","685c6e62dc1164dcfc02740f","608bfa04767191aa4d57bfd8","false","false","Rabbit","https://kisumu-drawings.s3-us-west-1.amazonaws.com/54-016.png","4","Cat","54-016.png"
"","6099","image-button-response","65","null","359054","685c6ca90f751d3aae6b1794","685c6e62dc1164dcfc02740f","608bfa04767191aa4d57bfd8","false","false","Car","https://kisumu-drawings.s3-us-west-1.amazonaws.com/55-011.png","11","Watch","55-011.png"
"","2618","image-button-response","66","null","362207","685c6ca90f751d3aae6b1794","685c6e62dc1164dcfc02740f","608bfa04767191aa4d57bfd8","false","false","Cup","https://kisumu-drawings.s3-us-west-1.amazonaws.com/10-005.png","2","Bird","10-005.png"
"","3494","image-button-response","67","null","366204","685c6ca90f751d3aae6b1794","685c6e62dc1164dcfc02740f","608bfa04767191aa4d57bfd8","false","false","Bird","https://kisumu-drawings.s3-us-west-1.amazonaws.com/31-007.png","2","Bird","31-007.png"
"","1223","image-button-response","68","null","367945","685c6ca90f751d3aae6b1794","685c6e62dc1164dcfc02740f","608bfa04767191aa4d57bfd8","false","false","Tree","https://kisumu-drawings.s3-us-west-1.amazonaws.com/30-015.png","10","Tree","30-015.png"
"","3583","image-button-response","69","null","372041","685c6ca90f751d3aae6b1794","685c6e62dc1164dcfc02740f","608bfa04767191aa4d57bfd8","false","false","Car","https://kisumu-drawings.s3-us-west-1.amazonaws.com/98-014.png","7","Hat","98-014.png"
"","1832","image-button-response","70","null","374390","685c6ca90f751d3aae6b1794","685c6e62dc1164dcfc02740f","608bfa04767191aa4d57bfd8","false","false","Cat","https://kisumu-drawings.s3-us-west-1.amazonaws.com/111-016.png","4","Cat","111-016.png"
"","1803","image-button-response","71","null","376701","685c6ca90f751d3aae6b1794","685c6e62dc1164dcfc02740f","608bfa04767191aa4d57bfd8","false","false","Cat","https://kisumu-drawings.s3-us-west-1.amazonaws.com/54-006.png","4","Cat","54-006.png"
"","3189","image-button-response","72","null","380405","685c6ca90f751d3aae6b1794","685c6e62dc1164dcfc02740f","608bfa04767191aa4d57bfd8","false","false","Car","https://kisumu-drawings.s3-us-west-1.amazonaws.com/72-013.png","3","Car","72-013.png"
"","1444","image-button-response","73","null","382353","685c6ca90f751d3aae6b1794","685c6e62dc1164dcfc02740f","608bfa04767191aa4d57bfd8","false","false","Airplane","https://kisumu-drawings.s3-us-west-1.amazonaws.com/113-014.png","0","Airplane","113-014.png"
"","2913","image-button-response","74","null","385767","685c6ca90f751d3aae6b1794","685c6e62dc1164dcfc02740f","608bfa04767191aa4d57bfd8","false","false","Tree","https://kisumu-drawings.s3-us-west-1.amazonaws.com/97-016.png","10","Tree","97-016.png"
"","1611","image-button-response","75","null","387941","685c6ca90f751d3aae6b1794","685c6e62dc1164dcfc02740f","608bfa04767191aa4d57bfd8","false","false","Cup","https://kisumu-drawings.s3-us-west-1.amazonaws.com/71-007.png","6","Cup","71-007.png"
