"view_history","rt","trial_type","trial_index","plugin_version","time_elapsed","study_id","session_id","participant_id","catch_trial","prep_trial","sketcher_category","stimulus","response","response_category","sketch_id"
"[{""page_index"":0,""viewing_time"":4293},{""page_index"":1,""viewing_time"":5392},{""page_index"":2,""viewing_time"":6832},{""page_index"":3,""viewing_time"":18740}]","35258","instructions","0","null","35271","685c6ca90f751d3aae6b1794","685c6df7406803f815cc5a33","60dfd857e293a99dd577f4c8","","","","","","",""
"","2559","image-button-response","1","null","38840","685c6ca90f751d3aae6b1794","685c6df7406803f815cc5a33","60dfd857e293a99dd577f4c8","false","true","car","stimuli/prep_trials/1_car_prep.png","3","Car",""
"","2028","image-button-response","2","null","41371","685c6ca90f751d3aae6b1794","685c6df7406803f815cc5a33","60dfd857e293a99dd577f4c8","false","true","cat","stimuli/prep_trials/0_cat_prep.jpg","4","Cat",""
"","14772","image-button-response","3","null","56648","685c6ca90f751d3aae6b1794","685c6df7406803f815cc5a33","60dfd857e293a99dd577f4c8","false","false","Tree","https://kisumu-drawings.s3-us-west-1.amazonaws.com/62-016.png","10","Tree","62-016.png"
"","18000","image-button-response","4","null","75153","685c6ca90f751d3aae6b1794","685c6df7406803f815cc5a33","60dfd857e293a99dd577f4c8","false","false","Cup","https://kisumu-drawings.s3-us-west-1.amazonaws.com/56-011.png","2","Bird","56-011.png"
"","17236","image-button-response","5","null","92894","685c6ca90f751d3aae6b1794","685c6df7406803f815cc5a33","60dfd857e293a99dd577f4c8","false","false","Cat","https://kisumu-drawings.s3-us-west-1.amazonaws.com/22-005.png","4","Cat","22-005.png"
"","7107","image-button-response","6","null","100506","685c6ca90f751d3aae6b1794","685c6df7406803f815cc5a33","60dfd857e293a99dd577f4c8","false","false","Chair","https://kisumu-drawings.s3-us-west-1.amazonaws.com/22-006.png","5","Chair","22-006.png"
"","5004","image-button-response","7","null","106014","685c6ca90f751d3aae6b1794","685c6df7406803f815cc5a33","60dfd857e293a99dd577f4c8","false","false","Car","https://kisumu-drawings.s3-us-west-1.amazonaws.com/62-007.png","5","Chair","62-007.png"
"","10013","image-button-response","8","null","116530","685c6ca90f751d3aae6b1794","685c6df7406803f815cc5a33","60dfd857e293a99dd577f4c8","false","false","Chair","https://kisumu-drawings.s3-us-west-1.amazonaws.com/62-013.png","5","Chair","62-013.png"
"","20409","image-button-response","9","null","137445","685c6ca90f751d3aae6b1794","685c6df7406803f815cc5a33","60dfd857e293a99dd577f4c8","false","false","Cat","https://kisumu-drawings.s3-us-west-1.amazonaws.com/85-008.png","4","Cat","85-008.png"
"","12651","image-button-response","10","null","150601","685c6ca90f751d3aae6b1794","685c6df7406803f815cc5a33","60dfd857e293a99dd577f4c8","false","false","Cat","https://kisumu-drawings.s3-us-west-1.amazonaws.com/60-013.png","4","Cat","60-013.png"
"","19165","image-button-response","11","null","170272","685c6ca90f751d3aae6b1794","685c6df7406803f815cc5a33","60dfd857e293a99dd577f4c8","false","false","Watch","https://kisumu-drawings.s3-us-west-1.amazonaws.com/56-005.png","6","Cup","56-005.png"
"","23598","image-button-response","12","null","194374","685c6ca90f751d3aae6b1794","685c6df7406803f815cc5a33","60dfd857e293a99dd577f4c8","false","false","Cat","https://kisumu-drawings.s3-us-west-1.amazonaws.com/20-008.png","2","Bird","20-008.png"
"","9431","image-button-response","13","null","204309","685c6ca90f751d3aae6b1794","685c6df7406803f815cc5a33","60dfd857e293a99dd577f4c8","false","false","Car","https://kisumu-drawings.s3-us-west-1.amazonaws.com/56-012.png","5","Chair","56-012.png"
"","2393","image-button-response","14","null","207206","685c6ca90f751d3aae6b1794","685c6df7406803f815cc5a33","60dfd857e293a99dd577f4c8","false","false","Chair","https://kisumu-drawings.s3-us-west-1.amazonaws.com/102-010.png","5","Chair","102-010.png"
"","5723","image-button-response","15","null","213433","685c6ca90f751d3aae6b1794","685c6df7406803f815cc5a33","60dfd857e293a99dd577f4c8","false","false","Rabbit","https://kisumu-drawings.s3-us-west-1.amazonaws.com/102-005.png","9","Rabbit","102-005.png"
"","11036","image-button-response","16","null","224973","685c6ca90f751d3aae6b1794","685c6df7406803f815cc5a33","60dfd857e293a99dd577f4c8","false","false","Bicycle","https://kisumu-drawings.s3-us-west-1.amazonaws.com/20-015.png","0","Airplane","20-015.png"
"","8984","image-button-response","17","null","234462","685c6ca90f751d3aae6b1794","685c6df7406803f815cc5a33","60dfd857e293a99dd577f4c8","false","false","House","https://kisumu-drawings.s3-us-west-1.amazonaws.com/20-010.png","0","Airplane","20-010.png"
"","3007","image-button-response","18","null","237973","685c6ca90f751d3aae6b1794","685c6df7406803f815cc5a33","60dfd857e293a99dd577f4c8","false","false","Tree","https://kisumu-drawings.s3-us-west-1.amazonaws.com/56-006.png","10","Tree","56-006.png"
"","2471","image-button-response","19","null","240948","685c6ca90f751d3aae6b1794","685c6df7406803f815cc5a33","60dfd857e293a99dd577f4c8","false","false","Airplane","https://kisumu-drawings.s3-us-west-1.amazonaws.com/22-012.png","0","Airplane","22-012.png"
"","6186","image-button-response","20","null","247638","685c6ca90f751d3aae6b1794","685c6df7406803f815cc5a33","60dfd857e293a99dd577f4c8","false","false","Hat","https://kisumu-drawings.s3-us-west-1.amazonaws.com/62-015.png","7","Hat","62-015.png"
"","13996","image-button-response","21","null","262139","685c6ca90f751d3aae6b1794","685c6df7406803f815cc5a33","60dfd857e293a99dd577f4c8","false","false","Hat","https://kisumu-drawings.s3-us-west-1.amazonaws.com/20-006.png","11","Watch","20-006.png"
"","21324","image-button-response","22","null","283965","685c6ca90f751d3aae6b1794","685c6df7406803f815cc5a33","60dfd857e293a99dd577f4c8","false","false","Airplane","https://kisumu-drawings.s3-us-west-1.amazonaws.com/56-009.png","0","Airplane","56-009.png"
"","3037","image-button-response","23","null","287506","685c6ca90f751d3aae6b1794","685c6df7406803f815cc5a33","60dfd857e293a99dd577f4c8","false","false","Bicycle","https://kisumu-drawings.s3-us-west-1.amazonaws.com/22-007.png","1","Bicycle","22-007.png"
"","2692","image-button-response","24","null","290701","685c6ca90f751d3aae6b1794","685c6df7406803f815cc5a33","60dfd857e293a99dd577f4c8","false","false","Bicycle","https://kisumu-drawings.s3-us-west-1.amazonaws.com/56-007.png","0","Airplane","56-007.png"
"","1944","image-button-response","25","null","293149","685c6ca90f751d3aae6b1794","685c6df7406803f815cc5a33","60dfd857e293a99dd577f4c8","false","false","Watch","https://kisumu-drawings.s3-us-west-1.amazonaws.com/85-012.png","11","Watch","85-012.png"
"","10763","image-button-response","26","null","304416","685c6ca90f751d3aae6b1794","685c6df7406803f815cc5a33","60dfd857e293a99dd577f4c8","false","false","Car","https://kisumu-drawings.s3-us-west-1.amazonaws.com/20-007.png","11","Watch","20-007.png"
"","4093","image-button-response","27","null","309013","685c6ca90f751d3aae6b1794","685c6df7406803f815cc5a33","60dfd857e293a99dd577f4c8","false","false","Car","https://kisumu-drawings.s3-us-west-1.amazonaws.com/102-011.png","3","Car","102-011.png"
"","11047","image-button-response","28","null","320562","685c6ca90f751d3aae6b1794","685c6df7406803f815cc5a33","60dfd857e293a99dd577f4c8","false","false","Airplane","https://kisumu-drawings.s3-us-west-1.amazonaws.com/85-013.png","8","House","85-013.png"
"","2240","image-button-response","29","null","323307","685c6ca90f751d3aae6b1794","685c6df7406803f815cc5a33","60dfd857e293a99dd577f4c8","true","false","airplane","stimuli/catch_trials/0_airplane_catch.jpg","0","Airplane",""
"","3766","image-button-response","30","null","327576","685c6ca90f751d3aae6b1794","685c6df7406803f815cc5a33","60dfd857e293a99dd577f4c8","false","false","Car","https://kisumu-drawings.s3-us-west-1.amazonaws.com/22-009.png","3","Car","22-009.png"
"","2683","image-button-response","31","null","330763","685c6ca90f751d3aae6b1794","685c6df7406803f815cc5a33","60dfd857e293a99dd577f4c8","false","false","Airplane","https://kisumu-drawings.s3-us-west-1.amazonaws.com/20-016.png","0","Airplane","20-016.png"
"","3442","image-button-response","32","null","334710","685c6ca90f751d3aae6b1794","685c6df7406803f815cc5a33","60dfd857e293a99dd577f4c8","false","false","Tree","https://kisumu-drawings.s3-us-west-1.amazonaws.com/20-012.png","11","Watch","20-012.png"
"","11056","image-button-response","33","null","346270","685c6ca90f751d3aae6b1794","685c6df7406803f815cc5a33","60dfd857e293a99dd577f4c8","false","false","Chair","https://kisumu-drawings.s3-us-west-1.amazonaws.com/20-013.png","5","Chair","20-013.png"
"","3525","image-button-response","34","null","350299","685c6ca90f751d3aae6b1794","685c6df7406803f815cc5a33","60dfd857e293a99dd577f4c8","false","false","Cat","https://kisumu-drawings.s3-us-west-1.amazonaws.com/102-012.png","4","Cat","102-012.png"
"","2187","image-button-response","35","null","352990","685c6ca90f751d3aae6b1794","685c6df7406803f815cc5a33","60dfd857e293a99dd577f4c8","false","false","House","https://kisumu-drawings.s3-us-west-1.amazonaws.com/62-014.png","8","House","62-014.png"
"","4285","image-button-response","36","null","357778","685c6ca90f751d3aae6b1794","685c6df7406803f815cc5a33","60dfd857e293a99dd577f4c8","false","false","Cup","https://kisumu-drawings.s3-us-west-1.amazonaws.com/62-012.png","6","Cup","62-012.png"
"","18032","image-button-response","37","null","376314","685c6ca90f751d3aae6b1794","685c6df7406803f815cc5a33","60dfd857e293a99dd577f4c8","false","false","Bird","https://kisumu-drawings.s3-us-west-1.amazonaws.com/62-010.png","2","Bird","62-010.png"
"","3425","image-button-response","38","null","380242","685c6ca90f751d3aae6b1794","685c6df7406803f815cc5a33","60dfd857e293a99dd577f4c8","false","false","Watch","https://kisumu-drawings.s3-us-west-1.amazonaws.com/102-009.png","11","Watch","102-009.png"
"","2233","image-button-response","39","null","382979","685c6ca90f751d3aae6b1794","685c6df7406803f815cc5a33","60dfd857e293a99dd577f4c8","false","false","Tree","https://kisumu-drawings.s3-us-west-1.amazonaws.com/102-014.png","10","Tree","102-014.png"
"","2608","image-button-response","40","null","386091","685c6ca90f751d3aae6b1794","685c6df7406803f815cc5a33","60dfd857e293a99dd577f4c8","false","false","House","https://kisumu-drawings.s3-us-west-1.amazonaws.com/85-016.png","8","House","85-016.png"
"","2863","image-button-response","41","null","389459","685c6ca90f751d3aae6b1794","685c6df7406803f815cc5a33","60dfd857e293a99dd577f4c8","false","false","Rabbit","https://kisumu-drawings.s3-us-west-1.amazonaws.com/85-010.png","4","Cat","85-010.png"
"","2971","image-button-response","42","null","392934","685c6ca90f751d3aae6b1794","685c6df7406803f815cc5a33","60dfd857e293a99dd577f4c8","false","false","Watch","https://kisumu-drawings.s3-us-west-1.amazonaws.com/22-010.png","11","Watch","22-010.png"
"","3923","image-button-response","43","null","397361","685c6ca90f751d3aae6b1794","685c6df7406803f815cc5a33","60dfd857e293a99dd577f4c8","false","false","Chair","https://kisumu-drawings.s3-us-west-1.amazonaws.com/85-009.png","5","Chair","85-009.png"
"","13959","image-button-response","44","null","411824","685c6ca90f751d3aae6b1794","685c6df7406803f815cc5a33","60dfd857e293a99dd577f4c8","false","false","Bird","https://kisumu-drawings.s3-us-west-1.amazonaws.com/56-008.png","0","Airplane","56-008.png"
"","30882","image-button-response","45","null","443210","685c6ca90f751d3aae6b1794","685c6df7406803f815cc5a33","60dfd857e293a99dd577f4c8","false","false","Airplane","https://kisumu-drawings.s3-us-west-1.amazonaws.com/62-009.png","0","Airplane","62-009.png"
"","3056","image-button-response","46","null","446770","685c6ca90f751d3aae6b1794","685c6df7406803f815cc5a33","60dfd857e293a99dd577f4c8","false","false","Cat","https://kisumu-drawings.s3-us-west-1.amazonaws.com/62-011.png","4","Cat","62-011.png"
"","2435","image-button-response","47","null","449708","685c6ca90f751d3aae6b1794","685c6df7406803f815cc5a33","60dfd857e293a99dd577f4c8","false","false","Rabbit","https://kisumu-drawings.s3-us-west-1.amazonaws.com/56-016.png","2","Bird","56-016.png"
"","19200","image-button-response","48","null","469413","685c6ca90f751d3aae6b1794","685c6df7406803f815cc5a33","60dfd857e293a99dd577f4c8","false","false","Hat","https://kisumu-drawings.s3-us-west-1.amazonaws.com/56-014.png","7","Hat","56-014.png"
"","2708","image-button-response","49","null","472624","685c6ca90f751d3aae6b1794","685c6df7406803f815cc5a33","60dfd857e293a99dd577f4c8","false","false","Tree","https://kisumu-drawings.s3-us-west-1.amazonaws.com/85-011.png","10","Tree","85-011.png"
"","2394","image-button-response","50","null","475523","685c6ca90f751d3aae6b1794","685c6df7406803f815cc5a33","60dfd857e293a99dd577f4c8","false","false","Bicycle","https://kisumu-drawings.s3-us-west-1.amazonaws.com/102-015.png","1","Bicycle","102-015.png"
"","23670","image-button-response","51","null","499697","685c6ca90f751d3aae6b1794","685c6df7406803f815cc5a33","60dfd857e293a99dd577f4c8","false","false","Bird","https://kisumu-drawings.s3-us-west-1.amazonaws.com/20-005.png","5","Chair","20-005.png"
"","12389","image-button-response","52","null","512591","685c6ca90f751d3aae6b1794","685c6df7406803f815cc5a33","60dfd857e293a99dd577f4c8","false","false","Rabbit","https://kisumu-drawings.s3-us-west-1.amazonaws.com/22-016.png","2","Bird","22-016.png"
"","7162","image-button-response","53","null","520257","685c6ca90f751d3aae6b1794","685c6df7406803f815cc5a33","60dfd857e293a99dd577f4c8","false","false","House","https://kisumu-drawings.s3-us-west-1.amazonaws.com/102-006.png","8","House","102-006.png"
"","6082","image-button-response","54","null","526843","685c6ca90f751d3aae6b1794","685c6df7406803f815cc5a33","60dfd857e293a99dd577f4c8","false","false","Hat","https://kisumu-drawings.s3-us-west-1.amazonaws.com/22-008.png","7","Hat","22-008.png"
"","2902","image-button-response","55","null","530247","685c6ca90f751d3aae6b1794","685c6df7406803f815cc5a33","60dfd857e293a99dd577f4c8","false","false","Hat","https://kisumu-drawings.s3-us-west-1.amazonaws.com/85-015.png","0","Airplane","85-015.png"
"","2116","image-button-response","56","null","532867","685c6ca90f751d3aae6b1794","685c6df7406803f815cc5a33","60dfd857e293a99dd577f4c8","false","false","Airplane","https://kisumu-drawings.s3-us-west-1.amazonaws.com/102-016.png","0","Airplane","102-016.png"
"","3690","image-button-response","57","null","537061","685c6ca90f751d3aae6b1794","685c6df7406803f815cc5a33","60dfd857e293a99dd577f4c8","false","false","Cup","https://kisumu-drawings.s3-us-west-1.amazonaws.com/20-009.png","6","Cup","20-009.png"
"","2058","image-button-response","58","null","539624","685c6ca90f751d3aae6b1794","685c6df7406803f815cc5a33","60dfd857e293a99dd577f4c8","false","false","Bird","https://kisumu-drawings.s3-us-west-1.amazonaws.com/102-013.png","2","Bird","102-013.png"
"","2043","image-button-response","59","null","542171","685c6ca90f751d3aae6b1794","685c6df7406803f815cc5a33","60dfd857e293a99dd577f4c8","false","false","House","https://kisumu-drawings.s3-us-west-1.amazonaws.com/22-013.png","8","House","22-013.png"
"","2104","image-button-response","60","null","544779","685c6ca90f751d3aae6b1794","685c6df7406803f815cc5a33","60dfd857e293a99dd577f4c8","false","false","Cup","https://kisumu-drawings.s3-us-west-1.amazonaws.com/102-008.png","6","Cup","102-008.png"
"","10628","image-button-response","61","null","555960","685c6ca90f751d3aae6b1794","685c6df7406803f815cc5a33","60dfd857e293a99dd577f4c8","false","false","Watch","https://kisumu-drawings.s3-us-west-1.amazonaws.com/20-014.png","9","Rabbit","20-014.png"
"","6629","image-button-response","62","null","563091","685c6ca90f751d3aae6b1794","685c6df7406803f815cc5a33","60dfd857e293a99dd577f4c8","false","false","Bird","https://kisumu-drawings.s3-us-west-1.amazonaws.com/22-011.png","0","Airplane","22-011.png"
"","2587","image-button-response","63","null","566182","685c6ca90f751d3aae6b1794","685c6df7406803f815cc5a33","60dfd857e293a99dd577f4c8","false","false","Bird","https://kisumu-drawings.s3-us-west-1.amazonaws.com/85-007.png","2","Bird","85-007.png"
"","2743","image-button-response","64","null","569428","685c6ca90f751d3aae6b1794","685c6df7406803f815cc5a33","60dfd857e293a99dd577f4c8","false","false","Bicycle","https://kisumu-drawings.s3-us-west-1.amazonaws.com/85-006.png","1","Bicycle","85-006.png"
"","2125","image-button-response","65","null","572056","685c6ca90f751d3aae6b1794","685c6df7406803f815cc5a33","60dfd857e293a99dd577f4c8","false","false","Watch","https://kisumu-drawings.s3-us-west-1.amazonaws.com/62-005.png","11","Watch","62-005.png"
"","2196","image-button-response","66","null","574755","685c6ca90f751d3aae6b1794","685c6df7406803f815cc5a33","60dfd857e293a99dd577f4c8","false","false","Tree","https://kisumu-drawings.s3-us-west-1.amazonaws.com/22-014.png","10","Tree","22-014.png"
"","7402","image-button-response","67","null","582661","685c6ca90f751d3aae6b1794","685c6df7406803f815cc5a33","60dfd857e293a99dd577f4c8","false","false","Rabbit","https://kisumu-drawings.s3-us-west-1.amazonaws.com/62-006.png","4","Cat","62-006.png"
"","2798","image-button-response","68","null","585963","685c6ca90f751d3aae6b1794","685c6df7406803f815cc5a33","60dfd857e293a99dd577f4c8","false","false","Cup","https://kisumu-drawings.s3-us-west-1.amazonaws.com/85-014.png","6","Cup","85-014.png"
"","3750","image-button-response","69","null","590217","685c6ca90f751d3aae6b1794","685c6df7406803f815cc5a33","60dfd857e293a99dd577f4c8","false","false","House","https://kisumu-drawings.s3-us-west-1.amazonaws.com/56-015.png","7","Hat","56-015.png"
"","4064","image-button-response","70","null","594786","685c6ca90f751d3aae6b1794","685c6df7406803f815cc5a33","60dfd857e293a99dd577f4c8","false","false","Car","https://kisumu-drawings.s3-us-west-1.amazonaws.com/85-005.png","3","Car","85-005.png"
"","4460","image-button-response","71","null","599749","685c6ca90f751d3aae6b1794","685c6df7406803f815cc5a33","60dfd857e293a99dd577f4c8","false","false","Hat","https://kisumu-drawings.s3-us-west-1.amazonaws.com/102-007.png","7","Hat","102-007.png"
"","2329","image-button-response","72","null","602583","685c6ca90f751d3aae6b1794","685c6df7406803f815cc5a33","60dfd857e293a99dd577f4c8","false","false","Bicycle","https://kisumu-drawings.s3-us-west-1.amazonaws.com/62-008.png","1","Bicycle","62-008.png"
"","9292","image-button-response","73","null","612377","685c6ca90f751d3aae6b1794","685c6df7406803f815cc5a33","60dfd857e293a99dd577f4c8","false","false","Chair","https://kisumu-drawings.s3-us-west-1.amazonaws.com/56-010.png","5","Chair","56-010.png"
"","9188","image-button-response","74","null","622070","685c6ca90f751d3aae6b1794","685c6df7406803f815cc5a33","60dfd857e293a99dd577f4c8","false","false","Rabbit","https://kisumu-drawings.s3-us-west-1.amazonaws.com/20-011.png","7","Hat","20-011.png"
"","3749","image-button-response","75","null","626322","685c6ca90f751d3aae6b1794","685c6df7406803f815cc5a33","60dfd857e293a99dd577f4c8","false","false","Cup","https://kisumu-drawings.s3-us-west-1.amazonaws.com/22-015.png","6","Cup","22-015.png"
