"view_history","rt","trial_type","trial_index","plugin_version","time_elapsed","study_id","session_id","participant_id","catch_trial","prep_trial","sketcher_category","stimulus","response","response_category","sketch_id"
"[{""page_index"":0,""viewing_time"":12785},{""page_index"":1,""viewing_time"":5824},{""page_index"":2,""viewing_time"":7208},{""page_index"":3,""viewing_time"":10130}]","35947","instructions","0","null","35961","685c6ca90f751d3aae6b1794","685c6e01ac5377331d5ea8a2","60fd84bd019682124d96c178","","","","","","",""
"","2827","image-button-response","1","null","39794","685c6ca90f751d3aae6b1794","685c6e01ac5377331d5ea8a2","60fd84bd019682124d96c178","false","true","car","stimuli/prep_trials/1_car_prep.png","3","Car",""
"","3309","image-button-response","2","null","43611","685c6ca90f751d3aae6b1794","685c6e01ac5377331d5ea8a2","60fd84bd019682124d96c178","false","true","cat","stimuli/prep_trials/0_cat_prep.jpg","4","Cat",""
"","4638","image-button-response","3","null","48753","685c6ca90f751d3aae6b1794","685c6e01ac5377331d5ea8a2","60fd84bd019682124d96c178","false","false","Bicycle","https://kisumu-drawings.s3-us-west-1.amazonaws.com/23-016.png","3","Car","23-016.png"
"","5785","image-button-response","4","null","55040","685c6ca90f751d3aae6b1794","685c6e01ac5377331d5ea8a2","60fd84bd019682124d96c178","false","false","Rabbit","https://kisumu-drawings.s3-us-west-1.amazonaws.com/64-007.png","2","Bird","64-007.png"
"","4393","image-button-response","5","null","59936","685c6ca90f751d3aae6b1794","685c6e01ac5377331d5ea8a2","60fd84bd019682124d96c178","false","false","Car","https://kisumu-drawings.s3-us-west-1.amazonaws.com/103-016.png","3","Car","103-016.png"
"","22876","image-button-response","6","null","83315","685c6ca90f751d3aae6b1794","685c6e01ac5377331d5ea8a2","60fd84bd019682124d96c178","false","false","Bird","https://kisumu-drawings.s3-us-west-1.amazonaws.com/2-014.png","9","Rabbit","2-014.png"
"","3094","image-button-response","7","null","86911","685c6ca90f751d3aae6b1794","685c6e01ac5377331d5ea8a2","60fd84bd019682124d96c178","false","false","House","https://kisumu-drawings.s3-us-west-1.amazonaws.com/57-015.png","8","House","57-015.png"
"","6443","image-button-response","8","null","93856","685c6ca90f751d3aae6b1794","685c6e01ac5377331d5ea8a2","60fd84bd019682124d96c178","false","false","Airplane","https://kisumu-drawings.s3-us-west-1.amazonaws.com/89-014.png","0","Airplane","89-014.png"
"","18439","image-button-response","9","null","112798","685c6ca90f751d3aae6b1794","685c6e01ac5377331d5ea8a2","60fd84bd019682124d96c178","false","false","Cat","https://kisumu-drawings.s3-us-west-1.amazonaws.com/2-015.png","2","Bird","2-015.png"
"","2656","image-button-response","10","null","115956","685c6ca90f751d3aae6b1794","685c6e01ac5377331d5ea8a2","60fd84bd019682124d96c178","false","false","House","https://kisumu-drawings.s3-us-west-1.amazonaws.com/64-008.png","8","House","64-008.png"
"","2471","image-button-response","11","null","118931","685c6ca90f751d3aae6b1794","685c6e01ac5377331d5ea8a2","60fd84bd019682124d96c178","false","false","Watch","https://kisumu-drawings.s3-us-west-1.amazonaws.com/89-009.png","11","Watch","89-009.png"
"","2444","image-button-response","12","null","121877","685c6ca90f751d3aae6b1794","685c6e01ac5377331d5ea8a2","60fd84bd019682124d96c178","false","false","Bird","https://kisumu-drawings.s3-us-west-1.amazonaws.com/103-015.png","2","Bird","103-015.png"
"","1527","image-button-response","13","null","123907","685c6ca90f751d3aae6b1794","685c6e01ac5377331d5ea8a2","60fd84bd019682124d96c178","false","false","Bird","https://kisumu-drawings.s3-us-west-1.amazonaws.com/57-012.png","2","Bird","57-012.png"
"","2363","image-button-response","14","null","126773","685c6ca90f751d3aae6b1794","685c6e01ac5377331d5ea8a2","60fd84bd019682124d96c178","false","false","Airplane","https://kisumu-drawings.s3-us-west-1.amazonaws.com/64-016.png","0","Airplane","64-016.png"
"","1657","image-button-response","15","null","128932","685c6ca90f751d3aae6b1794","685c6e01ac5377331d5ea8a2","60fd84bd019682124d96c178","false","false","Bird","https://kisumu-drawings.s3-us-west-1.amazonaws.com/89-012.png","0","Airplane","89-012.png"
"","3330","image-button-response","16","null","132765","685c6ca90f751d3aae6b1794","685c6e01ac5377331d5ea8a2","60fd84bd019682124d96c178","false","false","Cat","https://kisumu-drawings.s3-us-west-1.amazonaws.com/64-006.png","4","Cat","64-006.png"
"","18522","image-button-response","17","null","151789","685c6ca90f751d3aae6b1794","685c6e01ac5377331d5ea8a2","60fd84bd019682124d96c178","false","false","Watch","https://kisumu-drawings.s3-us-west-1.amazonaws.com/103-012.png","10","Tree","103-012.png"
"","2260","image-button-response","18","null","154552","685c6ca90f751d3aae6b1794","685c6e01ac5377331d5ea8a2","60fd84bd019682124d96c178","false","false","Watch","https://kisumu-drawings.s3-us-west-1.amazonaws.com/57-006.png","11","Watch","57-006.png"
"","2619","image-button-response","19","null","157673","685c6ca90f751d3aae6b1794","685c6e01ac5377331d5ea8a2","60fd84bd019682124d96c178","false","false","Bird","https://kisumu-drawings.s3-us-west-1.amazonaws.com/23-010.png","5","Chair","23-010.png"
"","3040","image-button-response","20","null","161215","685c6ca90f751d3aae6b1794","685c6e01ac5377331d5ea8a2","60fd84bd019682124d96c178","false","false","Cup","https://kisumu-drawings.s3-us-west-1.amazonaws.com/23-013.png","6","Cup","23-013.png"
"","18977","image-button-response","21","null","180694","685c6ca90f751d3aae6b1794","685c6e01ac5377331d5ea8a2","60fd84bd019682124d96c178","false","false","Cat","https://kisumu-drawings.s3-us-west-1.amazonaws.com/23-006.png","4","Cat","23-006.png"
"","3980","image-button-response","22","null","185178","685c6ca90f751d3aae6b1794","685c6e01ac5377331d5ea8a2","60fd84bd019682124d96c178","false","false","Tree","https://kisumu-drawings.s3-us-west-1.amazonaws.com/89-006.png","10","Tree","89-006.png"
"","3538","image-button-response","23","null","189219","685c6ca90f751d3aae6b1794","685c6e01ac5377331d5ea8a2","60fd84bd019682124d96c178","false","false","Hat","https://kisumu-drawings.s3-us-west-1.amazonaws.com/57-007.png","6","Cup","57-007.png"
"","2181","image-button-response","24","null","191902","685c6ca90f751d3aae6b1794","685c6e01ac5377331d5ea8a2","60fd84bd019682124d96c178","false","false","House","https://kisumu-drawings.s3-us-west-1.amazonaws.com/103-010.png","8","House","103-010.png"
"","4052","image-button-response","25","null","196457","685c6ca90f751d3aae6b1794","685c6e01ac5377331d5ea8a2","60fd84bd019682124d96c178","false","false","Bicycle","https://kisumu-drawings.s3-us-west-1.amazonaws.com/2-012.png","3","Car","2-012.png"
"","2130","image-button-response","26","null","199089","685c6ca90f751d3aae6b1794","685c6e01ac5377331d5ea8a2","60fd84bd019682124d96c178","false","false","Chair","https://kisumu-drawings.s3-us-west-1.amazonaws.com/2-005.png","5","Chair","2-005.png"
"","7115","image-button-response","27","null","206707","685c6ca90f751d3aae6b1794","685c6e01ac5377331d5ea8a2","60fd84bd019682124d96c178","false","false","Bicycle","https://kisumu-drawings.s3-us-west-1.amazonaws.com/89-011.png","0","Airplane","89-011.png"
"","14018","image-button-response","28","null","221228","685c6ca90f751d3aae6b1794","685c6e01ac5377331d5ea8a2","60fd84bd019682124d96c178","false","false","Hat","https://kisumu-drawings.s3-us-west-1.amazonaws.com/2-006.png","11","Watch","2-006.png"
"","14269","image-button-response","29","null","235998","685c6ca90f751d3aae6b1794","685c6e01ac5377331d5ea8a2","60fd84bd019682124d96c178","false","false","Watch","https://kisumu-drawings.s3-us-west-1.amazonaws.com/23-007.png","5","Chair","23-007.png"
"","8543","image-button-response","30","null","245044","685c6ca90f751d3aae6b1794","685c6e01ac5377331d5ea8a2","60fd84bd019682124d96c178","false","false","Hat","https://kisumu-drawings.s3-us-west-1.amazonaws.com/89-005.png","1","Bicycle","89-005.png"
"","4181","image-button-response","31","null","249728","685c6ca90f751d3aae6b1794","685c6e01ac5377331d5ea8a2","60fd84bd019682124d96c178","false","false","Bird","https://kisumu-drawings.s3-us-west-1.amazonaws.com/64-005.png","2","Bird","64-005.png"
"","3318","image-button-response","32","null","253548","685c6ca90f751d3aae6b1794","685c6e01ac5377331d5ea8a2","60fd84bd019682124d96c178","false","false","Tree","https://kisumu-drawings.s3-us-west-1.amazonaws.com/23-009.png","10","Tree","23-009.png"
"","1398","image-button-response","33","null","255449","685c6ca90f751d3aae6b1794","685c6e01ac5377331d5ea8a2","60fd84bd019682124d96c178","false","false","Tree","https://kisumu-drawings.s3-us-west-1.amazonaws.com/57-005.png","10","Tree","57-005.png"
"","14039","image-button-response","34","null","269990","685c6ca90f751d3aae6b1794","685c6e01ac5377331d5ea8a2","60fd84bd019682124d96c178","false","false","Chair","https://kisumu-drawings.s3-us-west-1.amazonaws.com/64-012.png","5","Chair","64-012.png"
"","3106","image-button-response","35","null","273599","685c6ca90f751d3aae6b1794","685c6e01ac5377331d5ea8a2","60fd84bd019682124d96c178","false","false","Cup","https://kisumu-drawings.s3-us-west-1.amazonaws.com/64-011.png","6","Cup","64-011.png"
"","7314","image-button-response","36","null","281414","685c6ca90f751d3aae6b1794","685c6e01ac5377331d5ea8a2","60fd84bd019682124d96c178","false","false","Chair","https://kisumu-drawings.s3-us-west-1.amazonaws.com/103-013.png","5","Chair","103-013.png"
"","2590","image-button-response","37","null","284507","685c6ca90f751d3aae6b1794","685c6e01ac5377331d5ea8a2","60fd84bd019682124d96c178","false","false","Hat","https://kisumu-drawings.s3-us-west-1.amazonaws.com/103-009.png","7","Hat","103-009.png"
"","2114","image-button-response","38","null","287123","685c6ca90f751d3aae6b1794","685c6e01ac5377331d5ea8a2","60fd84bd019682124d96c178","false","false","Tree","https://kisumu-drawings.s3-us-west-1.amazonaws.com/103-007.png","10","Tree","103-007.png"
"","2131","image-button-response","39","null","289756","685c6ca90f751d3aae6b1794","685c6e01ac5377331d5ea8a2","60fd84bd019682124d96c178","false","false","Cup","https://kisumu-drawings.s3-us-west-1.amazonaws.com/103-006.png","6","Cup","103-006.png"
"","2347","image-button-response","40","null","292606","685c6ca90f751d3aae6b1794","685c6e01ac5377331d5ea8a2","60fd84bd019682124d96c178","false","false","Hat","https://kisumu-drawings.s3-us-west-1.amazonaws.com/23-014.png","7","Hat","23-014.png"
"","1761","image-button-response","41","null","294869","685c6ca90f751d3aae6b1794","685c6e01ac5377331d5ea8a2","60fd84bd019682124d96c178","false","false","Airplane","https://kisumu-drawings.s3-us-west-1.amazonaws.com/103-005.png","0","Airplane","103-005.png"
"","3960","image-button-response","42","null","299332","685c6ca90f751d3aae6b1794","685c6e01ac5377331d5ea8a2","60fd84bd019682124d96c178","false","false","Car","https://kisumu-drawings.s3-us-west-1.amazonaws.com/2-016.png","3","Car","2-016.png"
"","5289","image-button-response","43","null","305123","685c6ca90f751d3aae6b1794","685c6e01ac5377331d5ea8a2","60fd84bd019682124d96c178","false","false","Cup","https://kisumu-drawings.s3-us-west-1.amazonaws.com/2-007.png","7","Hat","2-007.png"
"","4506","image-button-response","44","null","310132","685c6ca90f751d3aae6b1794","685c6e01ac5377331d5ea8a2","60fd84bd019682124d96c178","false","false","Airplane","https://kisumu-drawings.s3-us-west-1.amazonaws.com/57-014.png","0","Airplane","57-014.png"
"","4293","image-button-response","45","null","314928","685c6ca90f751d3aae6b1794","685c6e01ac5377331d5ea8a2","60fd84bd019682124d96c178","false","false","Car","https://kisumu-drawings.s3-us-west-1.amazonaws.com/57-013.png","3","Car","57-013.png"
"","2227","image-button-response","46","null","317657","685c6ca90f751d3aae6b1794","685c6e01ac5377331d5ea8a2","60fd84bd019682124d96c178","false","false","Bicycle","https://kisumu-drawings.s3-us-west-1.amazonaws.com/103-014.png","1","Bicycle","103-014.png"
"","2464","image-button-response","47","null","320623","685c6ca90f751d3aae6b1794","685c6e01ac5377331d5ea8a2","60fd84bd019682124d96c178","false","false","Watch","https://kisumu-drawings.s3-us-west-1.amazonaws.com/64-009.png","11","Watch","64-009.png"
"","2868","image-button-response","48","null","323994","685c6ca90f751d3aae6b1794","685c6e01ac5377331d5ea8a2","60fd84bd019682124d96c178","false","false","Chair","https://kisumu-drawings.s3-us-west-1.amazonaws.com/57-009.png","5","Chair","57-009.png"
"","1685","image-button-response","49","null","326182","685c6ca90f751d3aae6b1794","685c6e01ac5377331d5ea8a2","60fd84bd019682124d96c178","false","false","Watch","https://kisumu-drawings.s3-us-west-1.amazonaws.com/2-011.png","11","Watch","2-011.png"
"","3697","image-button-response","50","null","330382","685c6ca90f751d3aae6b1794","685c6e01ac5377331d5ea8a2","60fd84bd019682124d96c178","false","false","Rabbit","https://kisumu-drawings.s3-us-west-1.amazonaws.com/57-016.png","9","Rabbit","57-016.png"
"","9526","image-button-response","51","null","340410","685c6ca90f751d3aae6b1794","685c6e01ac5377331d5ea8a2","60fd84bd019682124d96c178","false","false","Airplane","https://kisumu-drawings.s3-us-west-1.amazonaws.com/2-013.png","7","Hat","2-013.png"
"","3256","image-button-response","52","null","344169","685c6ca90f751d3aae6b1794","685c6e01ac5377331d5ea8a2","60fd84bd019682124d96c178","true","false","airplane","stimuli/catch_trials/0_airplane_catch.jpg","0","Airplane",""
"","3898","image-button-response","53","null","348569","685c6ca90f751d3aae6b1794","685c6e01ac5377331d5ea8a2","60fd84bd019682124d96c178","false","false","Chair","https://kisumu-drawings.s3-us-west-1.amazonaws.com/23-005.png","5","Chair","23-005.png"
"","2722","image-button-response","54","null","351793","685c6ca90f751d3aae6b1794","685c6e01ac5377331d5ea8a2","60fd84bd019682124d96c178","false","false","Tree","https://kisumu-drawings.s3-us-west-1.amazonaws.com/64-010.png","10","Tree","64-010.png"
"","2252","image-button-response","55","null","354548","685c6ca90f751d3aae6b1794","685c6e01ac5377331d5ea8a2","60fd84bd019682124d96c178","false","false","Hat","https://kisumu-drawings.s3-us-west-1.amazonaws.com/64-013.png","7","Hat","64-013.png"
"","26398","image-button-response","56","null","381449","685c6ca90f751d3aae6b1794","685c6e01ac5377331d5ea8a2","60fd84bd019682124d96c178","false","false","Airplane","https://kisumu-drawings.s3-us-west-1.amazonaws.com/23-012.png","0","Airplane","23-012.png"
"","3260","image-button-response","57","null","385211","685c6ca90f751d3aae6b1794","685c6e01ac5377331d5ea8a2","60fd84bd019682124d96c178","false","false","House","https://kisumu-drawings.s3-us-west-1.amazonaws.com/23-015.png","8","House","23-015.png"
"","2060","image-button-response","58","null","387774","685c6ca90f751d3aae6b1794","685c6e01ac5377331d5ea8a2","60fd84bd019682124d96c178","false","false","House","https://kisumu-drawings.s3-us-west-1.amazonaws.com/2-008.png","8","House","2-008.png"
"","1681","image-button-response","59","null","389957","685c6ca90f751d3aae6b1794","685c6e01ac5377331d5ea8a2","60fd84bd019682124d96c178","false","false","Bicycle","https://kisumu-drawings.s3-us-west-1.amazonaws.com/57-011.png","1","Bicycle","57-011.png"
"","5563","image-button-response","60","null","396023","685c6ca90f751d3aae6b1794","685c6e01ac5377331d5ea8a2","60fd84bd019682124d96c178","false","false","Cat","https://kisumu-drawings.s3-us-west-1.amazonaws.com/103-011.png","4","Cat","103-011.png"
"","3382","image-button-response","61","null","399907","685c6ca90f751d3aae6b1794","685c6e01ac5377331d5ea8a2","60fd84bd019682124d96c178","false","false","Car","https://kisumu-drawings.s3-us-west-1.amazonaws.com/89-013.png","3","Car","89-013.png"
"","1656","image-button-response","62","null","402065","685c6ca90f751d3aae6b1794","685c6e01ac5377331d5ea8a2","60fd84bd019682124d96c178","false","false","House","https://kisumu-drawings.s3-us-west-1.amazonaws.com/89-015.png","8","House","89-015.png"
"","5156","image-button-response","63","null","407724","685c6ca90f751d3aae6b1794","685c6e01ac5377331d5ea8a2","60fd84bd019682124d96c178","false","false","Cat","https://kisumu-drawings.s3-us-west-1.amazonaws.com/89-010.png","4","Cat","89-010.png"
"","9648","image-button-response","64","null","417873","685c6ca90f751d3aae6b1794","685c6e01ac5377331d5ea8a2","60fd84bd019682124d96c178","false","false","Cat","https://kisumu-drawings.s3-us-west-1.amazonaws.com/56-013.png","2","Bird","56-013.png"
"","13902","image-button-response","65","null","432278","685c6ca90f751d3aae6b1794","685c6e01ac5377331d5ea8a2","60fd84bd019682124d96c178","false","false","Rabbit","https://kisumu-drawings.s3-us-west-1.amazonaws.com/103-008.png","4","Cat","103-008.png"
"","3335","image-button-response","66","null","436115","685c6ca90f751d3aae6b1794","685c6e01ac5377331d5ea8a2","60fd84bd019682124d96c178","false","false","Cup","https://kisumu-drawings.s3-us-west-1.amazonaws.com/57-010.png","6","Cup","57-010.png"
"","5531","image-button-response","67","null","442149","685c6ca90f751d3aae6b1794","685c6e01ac5377331d5ea8a2","60fd84bd019682124d96c178","false","false","Rabbit","https://kisumu-drawings.s3-us-west-1.amazonaws.com/89-016.png","9","Rabbit","89-016.png"
"","6239","image-button-response","68","null","448890","685c6ca90f751d3aae6b1794","685c6e01ac5377331d5ea8a2","60fd84bd019682124d96c178","false","false","Tree","https://kisumu-drawings.s3-us-west-1.amazonaws.com/2-009.png","10","Tree","2-009.png"
"","7298","image-button-response","69","null","456690","685c6ca90f751d3aae6b1794","685c6e01ac5377331d5ea8a2","60fd84bd019682124d96c178","false","false","Rabbit","https://kisumu-drawings.s3-us-west-1.amazonaws.com/2-010.png","7","Hat","2-010.png"
"","2531","image-button-response","70","null","459724","685c6ca90f751d3aae6b1794","685c6e01ac5377331d5ea8a2","60fd84bd019682124d96c178","false","false","Chair","https://kisumu-drawings.s3-us-west-1.amazonaws.com/89-007.png","5","Chair","89-007.png"
"","1806","image-button-response","71","null","462032","685c6ca90f751d3aae6b1794","685c6e01ac5377331d5ea8a2","60fd84bd019682124d96c178","false","false","Cup","https://kisumu-drawings.s3-us-west-1.amazonaws.com/89-008.png","6","Cup","89-008.png"
"","4131","image-button-response","72","null","466665","685c6ca90f751d3aae6b1794","685c6e01ac5377331d5ea8a2","60fd84bd019682124d96c178","false","false","Car","https://kisumu-drawings.s3-us-west-1.amazonaws.com/23-011.png","3","Car","23-011.png"
"","23802","image-button-response","73","null","490969","685c6ca90f751d3aae6b1794","685c6e01ac5377331d5ea8a2","60fd84bd019682124d96c178","false","false","Bicycle","https://kisumu-drawings.s3-us-west-1.amazonaws.com/64-015.png","10","Tree","64-015.png"
"","5664","image-button-response","74","null","497136","685c6ca90f751d3aae6b1794","685c6e01ac5377331d5ea8a2","60fd84bd019682124d96c178","false","false","Rabbit","https://kisumu-drawings.s3-us-west-1.amazonaws.com/23-008.png","9","Rabbit","23-008.png"
"","14498","image-button-response","75","null","512137","685c6ca90f751d3aae6b1794","685c6e01ac5377331d5ea8a2","60fd84bd019682124d96c178","false","false","Car","https://kisumu-drawings.s3-us-west-1.amazonaws.com/64-014.png","3","Car","64-014.png"
