"view_history","rt","trial_type","trial_index","plugin_version","time_elapsed","study_id","session_id","participant_id","catch_trial","prep_trial","sketcher_category","stimulus","response","response_category","sketch_id"
"[{""page_index"":0,""viewing_time"":19429},{""page_index"":1,""viewing_time"":3812},{""page_index"":2,""viewing_time"":8192},{""page_index"":3,""viewing_time"":62712}]","94145","instructions","0","null","94151","685c6ca90f751d3aae6b1794","685c6e48484a5a0343f2a0ef","6109917749b14701436e49f9","","","","","","",""
"","17653","image-button-response","1","null","112810","685c6ca90f751d3aae6b1794","685c6e48484a5a0343f2a0ef","6109917749b14701436e49f9","false","true","car","stimuli/prep_trials/1_car_prep.png","3","Car",""
"","1679","image-button-response","2","null","114992","685c6ca90f751d3aae6b1794","685c6e48484a5a0343f2a0ef","6109917749b14701436e49f9","false","true","cat","stimuli/prep_trials/0_cat_prep.jpg","4","Cat",""
"","2576","image-button-response","3","null","118071","685c6ca90f751d3aae6b1794","685c6e48484a5a0343f2a0ef","6109917749b14701436e49f9","false","false","Cat","https://kisumu-drawings.s3-us-west-1.amazonaws.com/95-011.png","4","Cat","95-011.png"
"","2218","image-button-response","4","null","120793","685c6ca90f751d3aae6b1794","685c6e48484a5a0343f2a0ef","6109917749b14701436e49f9","false","false","Car","https://kisumu-drawings.s3-us-west-1.amazonaws.com/70-011.png","3","Car","70-011.png"
"","7576","image-button-response","5","null","128872","685c6ca90f751d3aae6b1794","685c6e48484a5a0343f2a0ef","6109917749b14701436e49f9","false","false","Tree","https://kisumu-drawings.s3-us-west-1.amazonaws.com/109-009.png","10","Tree","109-009.png"
"","5459","image-button-response","6","null","134834","685c6ca90f751d3aae6b1794","685c6e48484a5a0343f2a0ef","6109917749b14701436e49f9","false","false","Cup","https://kisumu-drawings.s3-us-west-1.amazonaws.com/28-010.png","6","Cup","28-010.png"
"","4009","image-button-response","7","null","139347","685c6ca90f751d3aae6b1794","685c6e48484a5a0343f2a0ef","6109917749b14701436e49f9","false","false","Chair","https://kisumu-drawings.s3-us-west-1.amazonaws.com/109-010.png","5","Chair","109-010.png"
"","10614","image-button-response","8","null","150464","685c6ca90f751d3aae6b1794","685c6e48484a5a0343f2a0ef","6109917749b14701436e49f9","false","false","Bicycle","https://kisumu-drawings.s3-us-west-1.amazonaws.com/53-010.png","5","Chair","53-010.png"
"","9858","image-button-response","9","null","160825","685c6ca90f751d3aae6b1794","685c6e48484a5a0343f2a0ef","6109917749b14701436e49f9","false","false","Airplane","https://kisumu-drawings.s3-us-west-1.amazonaws.com/54-008.png","0","Airplane","54-008.png"
"","3177","image-button-response","10","null","164505","685c6ca90f751d3aae6b1794","685c6e48484a5a0343f2a0ef","6109917749b14701436e49f9","false","false","House","https://kisumu-drawings.s3-us-west-1.amazonaws.com/110-016.png","8","House","110-016.png"
"","9831","image-button-response","11","null","174838","685c6ca90f751d3aae6b1794","685c6e48484a5a0343f2a0ef","6109917749b14701436e49f9","false","false","Hat","https://kisumu-drawings.s3-us-west-1.amazonaws.com/96-008.png","2","Bird","96-008.png"
"","2526","image-button-response","12","null","177866","685c6ca90f751d3aae6b1794","685c6e48484a5a0343f2a0ef","6109917749b14701436e49f9","false","false","Rabbit","https://kisumu-drawings.s3-us-west-1.amazonaws.com/28-013.png","2","Bird","28-013.png"
"","8067","image-button-response","13","null","186438","685c6ca90f751d3aae6b1794","685c6e48484a5a0343f2a0ef","6109917749b14701436e49f9","false","false","Car","https://kisumu-drawings.s3-us-west-1.amazonaws.com/8-006.png","5","Chair","8-006.png"
"","1985","image-button-response","14","null","188925","685c6ca90f751d3aae6b1794","685c6e48484a5a0343f2a0ef","6109917749b14701436e49f9","false","false","Chair","https://kisumu-drawings.s3-us-west-1.amazonaws.com/70-013.png","5","Chair","70-013.png"
"","2430","image-button-response","15","null","191858","685c6ca90f751d3aae6b1794","685c6e48484a5a0343f2a0ef","6109917749b14701436e49f9","true","false","airplane","stimuli/catch_trials/0_airplane_catch.jpg","0","Airplane",""
"","2710","image-button-response","16","null","195071","685c6ca90f751d3aae6b1794","685c6e48484a5a0343f2a0ef","6109917749b14701436e49f9","false","false","Chair","https://kisumu-drawings.s3-us-west-1.amazonaws.com/9-007.png","5","Chair","9-007.png"
"","2081","image-button-response","17","null","197654","685c6ca90f751d3aae6b1794","685c6e48484a5a0343f2a0ef","6109917749b14701436e49f9","false","false","Watch","https://kisumu-drawings.s3-us-west-1.amazonaws.com/109-006.png","11","Watch","109-006.png"
"","2468","image-button-response","18","null","200625","685c6ca90f751d3aae6b1794","685c6e48484a5a0343f2a0ef","6109917749b14701436e49f9","false","false","Rabbit","https://kisumu-drawings.s3-us-west-1.amazonaws.com/8-013.png","5","Chair","8-013.png"
"","1318","image-button-response","19","null","202446","685c6ca90f751d3aae6b1794","685c6e48484a5a0343f2a0ef","6109917749b14701436e49f9","false","false","Bird","https://kisumu-drawings.s3-us-west-1.amazonaws.com/28-016.png","5","Chair","28-016.png"
"","3031","image-button-response","20","null","205980","685c6ca90f751d3aae6b1794","685c6e48484a5a0343f2a0ef","6109917749b14701436e49f9","false","false","Cup","https://kisumu-drawings.s3-us-west-1.amazonaws.com/95-013.png","6","Cup","95-013.png"
"","5898","image-button-response","21","null","212380","685c6ca90f751d3aae6b1794","685c6e48484a5a0343f2a0ef","6109917749b14701436e49f9","false","false","Bird","https://kisumu-drawings.s3-us-west-1.amazonaws.com/69-015.png","2","Bird","69-015.png"
"","5501","image-button-response","22","null","218383","685c6ca90f751d3aae6b1794","685c6e48484a5a0343f2a0ef","6109917749b14701436e49f9","false","false","Cup","https://kisumu-drawings.s3-us-west-1.amazonaws.com/52-008.png","6","Cup","52-008.png"
"","1106","image-button-response","23","null","219991","685c6ca90f751d3aae6b1794","685c6e48484a5a0343f2a0ef","6109917749b14701436e49f9","false","false","Cup","https://kisumu-drawings.s3-us-west-1.amazonaws.com/109-007.png","6","Cup","109-007.png"
"","7971","image-button-response","24","null","228475","685c6ca90f751d3aae6b1794","685c6e48484a5a0343f2a0ef","6109917749b14701436e49f9","false","false","Tree","https://kisumu-drawings.s3-us-west-1.amazonaws.com/95-014.png","10","Tree","95-014.png"
"","5981","image-button-response","25","null","234958","685c6ca90f751d3aae6b1794","685c6e48484a5a0343f2a0ef","6109917749b14701436e49f9","false","false","Car","https://kisumu-drawings.s3-us-west-1.amazonaws.com/28-007.png","3","Car","28-007.png"
"","2273","image-button-response","26","null","237733","685c6ca90f751d3aae6b1794","685c6e48484a5a0343f2a0ef","6109917749b14701436e49f9","false","false","Cat","https://kisumu-drawings.s3-us-west-1.amazonaws.com/52-014.png","4","Cat","52-014.png"
"","1935","image-button-response","27","null","240171","685c6ca90f751d3aae6b1794","685c6e48484a5a0343f2a0ef","6109917749b14701436e49f9","false","false","Cup","https://kisumu-drawings.s3-us-west-1.amazonaws.com/8-010.png","5","Chair","8-010.png"
"","1964","image-button-response","28","null","242637","685c6ca90f751d3aae6b1794","685c6e48484a5a0343f2a0ef","6109917749b14701436e49f9","false","false","Airplane","https://kisumu-drawings.s3-us-west-1.amazonaws.com/110-014.png","0","Airplane","110-014.png"
"","2269","image-button-response","29","null","245409","685c6ca90f751d3aae6b1794","685c6e48484a5a0343f2a0ef","6109917749b14701436e49f9","false","false","House","https://kisumu-drawings.s3-us-west-1.amazonaws.com/69-009.png","8","House","69-009.png"
"","2210","image-button-response","30","null","248121","685c6ca90f751d3aae6b1794","685c6e48484a5a0343f2a0ef","6109917749b14701436e49f9","false","false","Bird","https://kisumu-drawings.s3-us-west-1.amazonaws.com/52-007.png","4","Cat","52-007.png"
"","2371","image-button-response","31","null","250996","685c6ca90f751d3aae6b1794","685c6e48484a5a0343f2a0ef","6109917749b14701436e49f9","false","false","Cup","https://kisumu-drawings.s3-us-west-1.amazonaws.com/70-007.png","6","Cup","70-007.png"
"","7522","image-button-response","32","null","259020","685c6ca90f751d3aae6b1794","685c6e48484a5a0343f2a0ef","6109917749b14701436e49f9","false","false","Bicycle","https://kisumu-drawings.s3-us-west-1.amazonaws.com/70-009.png","3","Car","70-009.png"
"","9477","image-button-response","33","null","269000","685c6ca90f751d3aae6b1794","685c6e48484a5a0343f2a0ef","6109917749b14701436e49f9","false","false","Hat","https://kisumu-drawings.s3-us-west-1.amazonaws.com/69-008.png","8","House","69-008.png"
"","5344","image-button-response","34","null","274846","685c6ca90f751d3aae6b1794","685c6e48484a5a0343f2a0ef","6109917749b14701436e49f9","false","false","Bicycle","https://kisumu-drawings.s3-us-west-1.amazonaws.com/110-006.png","1","Bicycle","110-006.png"
"","9096","image-button-response","35","null","284445","685c6ca90f751d3aae6b1794","685c6e48484a5a0343f2a0ef","6109917749b14701436e49f9","false","false","Airplane","https://kisumu-drawings.s3-us-west-1.amazonaws.com/71-012.png","10","Tree","71-012.png"
"","2223","image-button-response","36","null","287170","685c6ca90f751d3aae6b1794","685c6e48484a5a0343f2a0ef","6109917749b14701436e49f9","false","false","Chair","https://kisumu-drawings.s3-us-west-1.amazonaws.com/95-012.png","5","Chair","95-012.png"
"","7668","image-button-response","37","null","295341","685c6ca90f751d3aae6b1794","685c6e48484a5a0343f2a0ef","6109917749b14701436e49f9","false","false","Car","https://kisumu-drawings.s3-us-west-1.amazonaws.com/52-006.png","3","Car","52-006.png"
"","3302","image-button-response","38","null","299146","685c6ca90f751d3aae6b1794","685c6e48484a5a0343f2a0ef","6109917749b14701436e49f9","false","false","Rabbit","https://kisumu-drawings.s3-us-west-1.amazonaws.com/109-008.png","2","Bird","109-008.png"
"","2276","image-button-response","39","null","301924","685c6ca90f751d3aae6b1794","685c6e48484a5a0343f2a0ef","6109917749b14701436e49f9","false","false","Tree","https://kisumu-drawings.s3-us-west-1.amazonaws.com/52-012.png","10","Tree","52-012.png"
"","1818","image-button-response","40","null","304246","685c6ca90f751d3aae6b1794","685c6e48484a5a0343f2a0ef","6109917749b14701436e49f9","false","false","Watch","https://kisumu-drawings.s3-us-west-1.amazonaws.com/28-014.png","11","Watch","28-014.png"
"","1860","image-button-response","41","null","306608","685c6ca90f751d3aae6b1794","685c6e48484a5a0343f2a0ef","6109917749b14701436e49f9","false","false","Tree","https://kisumu-drawings.s3-us-west-1.amazonaws.com/69-011.png","10","Tree","69-011.png"
"","6876","image-button-response","42","null","313987","685c6ca90f751d3aae6b1794","685c6e48484a5a0343f2a0ef","6109917749b14701436e49f9","false","false","Bicycle","https://kisumu-drawings.s3-us-west-1.amazonaws.com/9-008.png","6","Cup","9-008.png"
"","4439","image-button-response","43","null","318928","685c6ca90f751d3aae6b1794","685c6e48484a5a0343f2a0ef","6109917749b14701436e49f9","false","false","Tree","https://kisumu-drawings.s3-us-west-1.amazonaws.com/8-014.png","10","Tree","8-014.png"
"","2852","image-button-response","44","null","322283","685c6ca90f751d3aae6b1794","685c6e48484a5a0343f2a0ef","6109917749b14701436e49f9","false","false","Hat","https://kisumu-drawings.s3-us-west-1.amazonaws.com/110-015.png","7","Hat","110-015.png"
"","1834","image-button-response","45","null","324620","685c6ca90f751d3aae6b1794","685c6e48484a5a0343f2a0ef","6109917749b14701436e49f9","false","false","Watch","https://kisumu-drawings.s3-us-west-1.amazonaws.com/52-013.png","11","Watch","52-013.png"
"","2355","image-button-response","46","null","327478","685c6ca90f751d3aae6b1794","685c6e48484a5a0343f2a0ef","6109917749b14701436e49f9","false","false","Rabbit","https://kisumu-drawings.s3-us-west-1.amazonaws.com/95-016.png","4","Cat","95-016.png"
"","4277","image-button-response","47","null","332257","685c6ca90f751d3aae6b1794","685c6e48484a5a0343f2a0ef","6109917749b14701436e49f9","false","false","House","https://kisumu-drawings.s3-us-west-1.amazonaws.com/52-010.png","8","House","52-010.png"
"","1080","image-button-response","48","null","333842","685c6ca90f751d3aae6b1794","685c6e48484a5a0343f2a0ef","6109917749b14701436e49f9","false","false","House","https://kisumu-drawings.s3-us-west-1.amazonaws.com/28-012.png","8","House","28-012.png"
"","1617","image-button-response","49","null","335962","685c6ca90f751d3aae6b1794","685c6e48484a5a0343f2a0ef","6109917749b14701436e49f9","false","false","Watch","https://kisumu-drawings.s3-us-west-1.amazonaws.com/69-012.png","11","Watch","69-012.png"
"","1501","image-button-response","50","null","337966","685c6ca90f751d3aae6b1794","685c6e48484a5a0343f2a0ef","6109917749b14701436e49f9","false","false","Chair","https://kisumu-drawings.s3-us-west-1.amazonaws.com/52-016.png","5","Chair","52-016.png"
"","1106","image-button-response","51","null","339574","685c6ca90f751d3aae6b1794","685c6e48484a5a0343f2a0ef","6109917749b14701436e49f9","false","false","Chair","https://kisumu-drawings.s3-us-west-1.amazonaws.com/28-009.png","5","Chair","28-009.png"
"","4864","image-button-response","52","null","344941","685c6ca90f751d3aae6b1794","685c6e48484a5a0343f2a0ef","6109917749b14701436e49f9","false","false","Airplane","https://kisumu-drawings.s3-us-west-1.amazonaws.com/10-013.png","2","Bird","10-013.png"
"","1776","image-button-response","53","null","347220","685c6ca90f751d3aae6b1794","685c6e48484a5a0343f2a0ef","6109917749b14701436e49f9","false","false","Hat","https://kisumu-drawings.s3-us-west-1.amazonaws.com/8-011.png","10","Tree","8-011.png"
"","6865","image-button-response","54","null","354587","685c6ca90f751d3aae6b1794","685c6e48484a5a0343f2a0ef","6109917749b14701436e49f9","false","false","Car","https://kisumu-drawings.s3-us-west-1.amazonaws.com/109-014.png","3","Car","109-014.png"
"","2467","image-button-response","55","null","357557","685c6ca90f751d3aae6b1794","685c6e48484a5a0343f2a0ef","6109917749b14701436e49f9","false","false","Rabbit","https://kisumu-drawings.s3-us-west-1.amazonaws.com/52-011.png","9","Rabbit","52-011.png"
"","1647","image-button-response","56","null","359707","685c6ca90f751d3aae6b1794","685c6e48484a5a0343f2a0ef","6109917749b14701436e49f9","false","false","Watch","https://kisumu-drawings.s3-us-west-1.amazonaws.com/95-015.png","11","Watch","95-015.png"
"","1903","image-button-response","57","null","362112","685c6ca90f751d3aae6b1794","685c6e48484a5a0343f2a0ef","6109917749b14701436e49f9","false","false","Bird","https://kisumu-drawings.s3-us-west-1.amazonaws.com/9-011.png","7","Hat","9-011.png"
"","1776","image-button-response","58","null","364391","685c6ca90f751d3aae6b1794","685c6e48484a5a0343f2a0ef","6109917749b14701436e49f9","false","false","Hat","https://kisumu-drawings.s3-us-west-1.amazonaws.com/28-011.png","11","Watch","28-011.png"
"","2155","image-button-response","59","null","367049","685c6ca90f751d3aae6b1794","685c6e48484a5a0343f2a0ef","6109917749b14701436e49f9","false","false","Hat","https://kisumu-drawings.s3-us-west-1.amazonaws.com/52-009.png","7","Hat","52-009.png"
"","2107","image-button-response","60","null","369658","685c6ca90f751d3aae6b1794","685c6e48484a5a0343f2a0ef","6109917749b14701436e49f9","false","false","Rabbit","https://kisumu-drawings.s3-us-west-1.amazonaws.com/69-010.png","9","Rabbit","69-010.png"
"","2159","image-button-response","61","null","372320","685c6ca90f751d3aae6b1794","685c6e48484a5a0343f2a0ef","6109917749b14701436e49f9","false","false","Cat","https://kisumu-drawings.s3-us-west-1.amazonaws.com/28-008.png","4","Cat","28-008.png"
"","1314","image-button-response","62","null","374137","685c6ca90f751d3aae6b1794","685c6e48484a5a0343f2a0ef","6109917749b14701436e49f9","false","false","Cat","https://kisumu-drawings.s3-us-west-1.amazonaws.com/109-005.png","4","Cat","109-005.png"
"","2363","image-button-response","63","null","377003","685c6ca90f751d3aae6b1794","685c6e48484a5a0343f2a0ef","6109917749b14701436e49f9","false","false","Car","https://kisumu-drawings.s3-us-west-1.amazonaws.com/96-013.png","3","Car","96-013.png"
"","13243","image-button-response","64","null","390749","685c6ca90f751d3aae6b1794","685c6e48484a5a0343f2a0ef","6109917749b14701436e49f9","false","false","Bird","https://kisumu-drawings.s3-us-west-1.amazonaws.com/95-008.png","5","Chair","95-008.png"
"","4264","image-button-response","65","null","395516","685c6ca90f751d3aae6b1794","685c6e48484a5a0343f2a0ef","6109917749b14701436e49f9","false","false","Bicycle","https://kisumu-drawings.s3-us-west-1.amazonaws.com/96-014.png","3","Car","96-014.png"
"","2030","image-button-response","66","null","398049","685c6ca90f751d3aae6b1794","685c6e48484a5a0343f2a0ef","6109917749b14701436e49f9","false","false","House","https://kisumu-drawings.s3-us-west-1.amazonaws.com/95-006.png","8","House","95-006.png"
"","2956","image-button-response","67","null","401508","685c6ca90f751d3aae6b1794","685c6e48484a5a0343f2a0ef","6109917749b14701436e49f9","false","false","Cat","https://kisumu-drawings.s3-us-west-1.amazonaws.com/70-012.png","2","Bird","70-012.png"
"","2023","image-button-response","68","null","404033","685c6ca90f751d3aae6b1794","685c6e48484a5a0343f2a0ef","6109917749b14701436e49f9","false","false","Airplane","https://kisumu-drawings.s3-us-west-1.amazonaws.com/97-013.png","0","Airplane","97-013.png"
"","3272","image-button-response","69","null","407807","685c6ca90f751d3aae6b1794","685c6e48484a5a0343f2a0ef","6109917749b14701436e49f9","false","false","House","https://kisumu-drawings.s3-us-west-1.amazonaws.com/8-012.png","6","Cup","8-012.png"
"","1810","image-button-response","70","null","410120","685c6ca90f751d3aae6b1794","685c6e48484a5a0343f2a0ef","6109917749b14701436e49f9","false","false","Bicycle","https://kisumu-drawings.s3-us-west-1.amazonaws.com/29-005.png","2","Bird","29-005.png"
"","1284","image-button-response","71","null","411907","685c6ca90f751d3aae6b1794","685c6e48484a5a0343f2a0ef","6109917749b14701436e49f9","false","false","Bird","https://kisumu-drawings.s3-us-west-1.amazonaws.com/110-007.png","2","Bird","110-007.png"
"","7926","image-button-response","72","null","420336","685c6ca90f751d3aae6b1794","685c6e48484a5a0343f2a0ef","6109917749b14701436e49f9","false","false","Watch","https://kisumu-drawings.s3-us-west-1.amazonaws.com/8-009.png","2","Bird","8-009.png"
"","4714","image-button-response","73","null","425553","685c6ca90f751d3aae6b1794","685c6e48484a5a0343f2a0ef","6109917749b14701436e49f9","false","false","Airplane","https://kisumu-drawings.s3-us-west-1.amazonaws.com/30-005.png","7","Hat","30-005.png"
"","8547","image-button-response","74","null","434603","685c6ca90f751d3aae6b1794","685c6e48484a5a0343f2a0ef","6109917749b14701436e49f9","false","false","Tree","https://kisumu-drawings.s3-us-west-1.amazonaws.com/29-014.png","11","Watch","29-014.png"
"","6644","image-button-response","75","null","441749","685c6ca90f751d3aae6b1794","685c6e48484a5a0343f2a0ef","6109917749b14701436e49f9","false","false","Cat","https://kisumu-drawings.s3-us-west-1.amazonaws.com/9-012.png","7","Hat","9-012.png"
