"view_history","rt","trial_type","trial_index","plugin_version","time_elapsed","study_id","session_id","participant_id","catch_trial","prep_trial","sketcher_category","stimulus","response","response_category","sketch_id"
"[{""page_index"":0,""viewing_time"":8462},{""page_index"":1,""viewing_time"":6333},{""page_index"":2,""viewing_time"":12867},{""page_index"":3,""viewing_time"":13067}]","40729","instructions","0","null","40738","685c6ca90f751d3aae6b1794","685c6e1c305cdb7beabee424","6113ffbf45e79bc2769db74c","","","","","","",""
"","3810","image-button-response","1","null","45556","685c6ca90f751d3aae6b1794","685c6e1c305cdb7beabee424","6113ffbf45e79bc2769db74c","false","true","car","stimuli/prep_trials/1_car_prep.png","3","Car",""
"","5404","image-button-response","2","null","51471","685c6ca90f751d3aae6b1794","685c6e1c305cdb7beabee424","6113ffbf45e79bc2769db74c","false","true","cat","stimuli/prep_trials/0_cat_prep.jpg","4","Cat",""
"","5164","image-button-response","3","null","57139","685c6ca90f751d3aae6b1794","685c6e1c305cdb7beabee424","6113ffbf45e79bc2769db74c","false","false","Chair","https://kisumu-drawings.s3-us-west-1.amazonaws.com/71-011.png","5","Chair","71-011.png"
"","6329","image-button-response","4","null","63972","685c6ca90f751d3aae6b1794","685c6e1c305cdb7beabee424","6113ffbf45e79bc2769db74c","false","false","Car","https://kisumu-drawings.s3-us-west-1.amazonaws.com/111-012.png","3","Car","111-012.png"
"","18095","image-button-response","5","null","82571","685c6ca90f751d3aae6b1794","685c6e1c305cdb7beabee424","6113ffbf45e79bc2769db74c","false","false","Watch","https://kisumu-drawings.s3-us-west-1.amazonaws.com/53-016.png","11","Watch","53-016.png"
"","4265","image-button-response","6","null","87338","685c6ca90f751d3aae6b1794","685c6e1c305cdb7beabee424","6113ffbf45e79bc2769db74c","false","false","Airplane","https://kisumu-drawings.s3-us-west-1.amazonaws.com/99-006.png","0","Airplane","99-006.png"
"","3680","image-button-response","7","null","91521","685c6ca90f751d3aae6b1794","685c6e1c305cdb7beabee424","6113ffbf45e79bc2769db74c","false","false","Airplane","https://kisumu-drawings.s3-us-west-1.amazonaws.com/112-015.png","0","Airplane","112-015.png"
"","3813","image-button-response","8","null","95838","685c6ca90f751d3aae6b1794","685c6e1c305cdb7beabee424","6113ffbf45e79bc2769db74c","false","false","Chair","https://kisumu-drawings.s3-us-west-1.amazonaws.com/54-007.png","5","Chair","54-007.png"
"","19747","image-button-response","9","null","116088","685c6ca90f751d3aae6b1794","685c6e1c305cdb7beabee424","6113ffbf45e79bc2769db74c","false","false","Car","https://kisumu-drawings.s3-us-west-1.amazonaws.com/71-009.png","3","Car","71-009.png"
"","2746","image-button-response","10","null","119338","685c6ca90f751d3aae6b1794","685c6e1c305cdb7beabee424","6113ffbf45e79bc2769db74c","false","false","Airplane","https://kisumu-drawings.s3-us-west-1.amazonaws.com/73-005.png","0","Airplane","73-005.png"
"","3582","image-button-response","11","null","123422","685c6ca90f751d3aae6b1794","685c6e1c305cdb7beabee424","6113ffbf45e79bc2769db74c","false","false","Tree","https://kisumu-drawings.s3-us-west-1.amazonaws.com/110-009.png","10","Tree","110-009.png"
"","6031","image-button-response","12","null","129957","685c6ca90f751d3aae6b1794","685c6e1c305cdb7beabee424","6113ffbf45e79bc2769db74c","false","false","Watch","https://kisumu-drawings.s3-us-west-1.amazonaws.com/70-016.png","11","Watch","70-016.png"
"","4745","image-button-response","13","null","135206","685c6ca90f751d3aae6b1794","685c6e1c305cdb7beabee424","6113ffbf45e79bc2769db74c","false","false","Chair","https://kisumu-drawings.s3-us-west-1.amazonaws.com/10-016.png","5","Chair","10-016.png"
"","2645","image-button-response","14","null","138354","685c6ca90f751d3aae6b1794","685c6e1c305cdb7beabee424","6113ffbf45e79bc2769db74c","false","false","Cup","https://kisumu-drawings.s3-us-west-1.amazonaws.com/96-010.png","6","Cup","96-010.png"
"","3564","image-button-response","15","null","142422","685c6ca90f751d3aae6b1794","685c6e1c305cdb7beabee424","6113ffbf45e79bc2769db74c","false","false","Bicycle","https://kisumu-drawings.s3-us-west-1.amazonaws.com/55-006.png","1","Bicycle","55-006.png"
"","3879","image-button-response","16","null","146804","685c6ca90f751d3aae6b1794","685c6e1c305cdb7beabee424","6113ffbf45e79bc2769db74c","false","false","Bird","https://kisumu-drawings.s3-us-west-1.amazonaws.com/71-010.png","2","Bird","71-010.png"
"","1747","image-button-response","17","null","149055","685c6ca90f751d3aae6b1794","685c6e1c305cdb7beabee424","6113ffbf45e79bc2769db74c","true","false","airplane","stimuli/catch_trials/0_airplane_catch.jpg","0","Airplane",""
"","2895","image-button-response","18","null","152455","685c6ca90f751d3aae6b1794","685c6e1c305cdb7beabee424","6113ffbf45e79bc2769db74c","false","false","House","https://kisumu-drawings.s3-us-west-1.amazonaws.com/96-007.png","8","House","96-007.png"
"","7380","image-button-response","19","null","160338","685c6ca90f751d3aae6b1794","685c6e1c305cdb7beabee424","6113ffbf45e79bc2769db74c","false","false","Hat","https://kisumu-drawings.s3-us-west-1.amazonaws.com/97-005.png","7","Hat","97-005.png"
"","5381","image-button-response","20","null","166221","685c6ca90f751d3aae6b1794","685c6e1c305cdb7beabee424","6113ffbf45e79bc2769db74c","false","false","Hat","https://kisumu-drawings.s3-us-west-1.amazonaws.com/53-014.png","2","Bird","53-014.png"
"","10063","image-button-response","21","null","176788","685c6ca90f751d3aae6b1794","685c6e1c305cdb7beabee424","6113ffbf45e79bc2769db74c","false","false","Rabbit","https://kisumu-drawings.s3-us-west-1.amazonaws.com/29-013.png","9","Rabbit","29-013.png"
"","2496","image-button-response","22","null","179787","685c6ca90f751d3aae6b1794","685c6e1c305cdb7beabee424","6113ffbf45e79bc2769db74c","false","false","Car","https://kisumu-drawings.s3-us-west-1.amazonaws.com/54-005.png","3","Car","54-005.png"
"","2982","image-button-response","23","null","183272","685c6ca90f751d3aae6b1794","685c6e1c305cdb7beabee424","6113ffbf45e79bc2769db74c","false","false","Rabbit","https://kisumu-drawings.s3-us-west-1.amazonaws.com/70-006.png","4","Cat","70-006.png"
"","6263","image-button-response","24","null","190039","685c6ca90f751d3aae6b1794","685c6e1c305cdb7beabee424","6113ffbf45e79bc2769db74c","false","false","Rabbit","https://kisumu-drawings.s3-us-west-1.amazonaws.com/53-011.png","2","Bird","53-011.png"
"","3196","image-button-response","25","null","193738","685c6ca90f751d3aae6b1794","685c6e1c305cdb7beabee424","6113ffbf45e79bc2769db74c","false","false","Bicycle","https://kisumu-drawings.s3-us-west-1.amazonaws.com/98-006.png","3","Car","98-006.png"
"","9898","image-button-response","26","null","204139","685c6ca90f751d3aae6b1794","685c6e1c305cdb7beabee424","6113ffbf45e79bc2769db74c","false","false","Watch","https://kisumu-drawings.s3-us-west-1.amazonaws.com/29-012.png","11","Watch","29-012.png"
"","8430","image-button-response","27","null","213072","685c6ca90f751d3aae6b1794","685c6e1c305cdb7beabee424","6113ffbf45e79bc2769db74c","false","false","Hat","https://kisumu-drawings.s3-us-west-1.amazonaws.com/70-014.png","7","Hat","70-014.png"
"","7864","image-button-response","28","null","221438","685c6ca90f751d3aae6b1794","685c6e1c305cdb7beabee424","6113ffbf45e79bc2769db74c","false","false","Tree","https://kisumu-drawings.s3-us-west-1.amazonaws.com/29-014.png","2","Bird","29-014.png"
"","11114","image-button-response","29","null","233055","685c6ca90f751d3aae6b1794","685c6e1c305cdb7beabee424","6113ffbf45e79bc2769db74c","false","false","House","https://kisumu-drawings.s3-us-west-1.amazonaws.com/29-011.png","8","House","29-011.png"
"","9381","image-button-response","30","null","242939","685c6ca90f751d3aae6b1794","685c6e1c305cdb7beabee424","6113ffbf45e79bc2769db74c","false","false","Tree","https://kisumu-drawings.s3-us-west-1.amazonaws.com/53-012.png","8","House","53-012.png"
"","14530","image-button-response","31","null","257972","685c6ca90f751d3aae6b1794","685c6e1c305cdb7beabee424","6113ffbf45e79bc2769db74c","false","false","Bicycle","https://kisumu-drawings.s3-us-west-1.amazonaws.com/72-008.png","0","Airplane","72-008.png"
"","6481","image-button-response","32","null","264955","685c6ca90f751d3aae6b1794","685c6e1c305cdb7beabee424","6113ffbf45e79bc2769db74c","false","false","Rabbit","https://kisumu-drawings.s3-us-west-1.amazonaws.com/96-006.png","9","Rabbit","96-006.png"
"","4030","image-button-response","33","null","269489","685c6ca90f751d3aae6b1794","685c6e1c305cdb7beabee424","6113ffbf45e79bc2769db74c","false","false","Rabbit","https://kisumu-drawings.s3-us-west-1.amazonaws.com/110-008.png","9","Rabbit","110-008.png"
"","5964","image-button-response","34","null","275956","685c6ca90f751d3aae6b1794","685c6e1c305cdb7beabee424","6113ffbf45e79bc2769db74c","false","false","Tree","https://kisumu-drawings.s3-us-west-1.amazonaws.com/9-016.png","8","House","9-016.png"
"","2713","image-button-response","35","null","279172","685c6ca90f751d3aae6b1794","685c6e1c305cdb7beabee424","6113ffbf45e79bc2769db74c","false","false","Tree","https://kisumu-drawings.s3-us-west-1.amazonaws.com/70-015.png","10","Tree","70-015.png"
"","3547","image-button-response","36","null","283222","685c6ca90f751d3aae6b1794","685c6e1c305cdb7beabee424","6113ffbf45e79bc2769db74c","false","false","Car","https://kisumu-drawings.s3-us-west-1.amazonaws.com/10-006.png","1","Bicycle","10-006.png"
"","2696","image-button-response","37","null","286422","685c6ca90f751d3aae6b1794","685c6e1c305cdb7beabee424","6113ffbf45e79bc2769db74c","false","false","House","https://kisumu-drawings.s3-us-west-1.amazonaws.com/9-015.png","8","House","9-015.png"
"","4263","image-button-response","38","null","291188","685c6ca90f751d3aae6b1794","685c6e1c305cdb7beabee424","6113ffbf45e79bc2769db74c","false","false","Car","https://kisumu-drawings.s3-us-west-1.amazonaws.com/30-008.png","5","Chair","30-008.png"
"","1696","image-button-response","39","null","293386","685c6ca90f751d3aae6b1794","685c6e1c305cdb7beabee424","6113ffbf45e79bc2769db74c","false","false","Chair","https://kisumu-drawings.s3-us-west-1.amazonaws.com/111-005.png","5","Chair","111-005.png"
"","6316","image-button-response","40","null","300204","685c6ca90f751d3aae6b1794","685c6e1c305cdb7beabee424","6113ffbf45e79bc2769db74c","false","false","Cat","https://kisumu-drawings.s3-us-west-1.amazonaws.com/30-009.png","4","Cat","30-009.png"
"","2782","image-button-response","41","null","303489","685c6ca90f751d3aae6b1794","685c6e1c305cdb7beabee424","6113ffbf45e79bc2769db74c","false","false","Cat","https://kisumu-drawings.s3-us-west-1.amazonaws.com/111-016.png","4","Cat","111-016.png"
"","8245","image-button-response","42","null","312238","685c6ca90f751d3aae6b1794","685c6e1c305cdb7beabee424","6113ffbf45e79bc2769db74c","false","false","Chair","https://kisumu-drawings.s3-us-west-1.amazonaws.com/30-010.png","8","House","30-010.png"
"","9046","image-button-response","43","null","321788","685c6ca90f751d3aae6b1794","685c6e1c305cdb7beabee424","6113ffbf45e79bc2769db74c","false","false","Bird","https://kisumu-drawings.s3-us-west-1.amazonaws.com/30-007.png","8","House","30-007.png"
"","4598","image-button-response","44","null","326889","685c6ca90f751d3aae6b1794","685c6e1c305cdb7beabee424","6113ffbf45e79bc2769db74c","false","false","Hat","https://kisumu-drawings.s3-us-west-1.amazonaws.com/29-015.png","2","Bird","29-015.png"
"","7147","image-button-response","45","null","334539","685c6ca90f751d3aae6b1794","685c6e1c305cdb7beabee424","6113ffbf45e79bc2769db74c","false","false","Airplane","https://kisumu-drawings.s3-us-west-1.amazonaws.com/32-010.png","2","Bird","32-010.png"
"","4995","image-button-response","46","null","340038","685c6ca90f751d3aae6b1794","685c6e1c305cdb7beabee424","6113ffbf45e79bc2769db74c","false","false","House","https://kisumu-drawings.s3-us-west-1.amazonaws.com/53-015.png","8","House","53-015.png"
"","6163","image-button-response","47","null","346704","685c6ca90f751d3aae6b1794","685c6e1c305cdb7beabee424","6113ffbf45e79bc2769db74c","false","false","Bird","https://kisumu-drawings.s3-us-west-1.amazonaws.com/11-011.png","0","Airplane","11-011.png"
"","2547","image-button-response","48","null","349754","685c6ca90f751d3aae6b1794","685c6e1c305cdb7beabee424","6113ffbf45e79bc2769db74c","false","false","Chair","https://kisumu-drawings.s3-us-west-1.amazonaws.com/96-011.png","5","Chair","96-011.png"
"","1564","image-button-response","49","null","351822","685c6ca90f751d3aae6b1794","685c6e1c305cdb7beabee424","6113ffbf45e79bc2769db74c","false","false","Watch","https://kisumu-drawings.s3-us-west-1.amazonaws.com/96-016.png","11","Watch","96-016.png"
"","2681","image-button-response","50","null","355006","685c6ca90f751d3aae6b1794","685c6e1c305cdb7beabee424","6113ffbf45e79bc2769db74c","false","false","Cup","https://kisumu-drawings.s3-us-west-1.amazonaws.com/53-013.png","2","Bird","53-013.png"
"","3364","image-button-response","51","null","358873","685c6ca90f751d3aae6b1794","685c6e1c305cdb7beabee424","6113ffbf45e79bc2769db74c","false","false","Bird","https://kisumu-drawings.s3-us-west-1.amazonaws.com/111-007.png","2","Bird","111-007.png"
"","4963","image-button-response","52","null","364339","685c6ca90f751d3aae6b1794","685c6e1c305cdb7beabee424","6113ffbf45e79bc2769db74c","false","false","House","https://kisumu-drawings.s3-us-west-1.amazonaws.com/110-016.png","8","House","110-016.png"
"","4763","image-button-response","53","null","369606","685c6ca90f751d3aae6b1794","685c6e1c305cdb7beabee424","6113ffbf45e79bc2769db74c","false","false","Cat","https://kisumu-drawings.s3-us-west-1.amazonaws.com/54-006.png","4","Cat","54-006.png"
"","2862","image-button-response","54","null","372972","685c6ca90f751d3aae6b1794","685c6e1c305cdb7beabee424","6113ffbf45e79bc2769db74c","false","false","Airplane","https://kisumu-drawings.s3-us-west-1.amazonaws.com/55-014.png","2","Bird","55-014.png"
"","12330","image-button-response","55","null","385804","685c6ca90f751d3aae6b1794","685c6e1c305cdb7beabee424","6113ffbf45e79bc2769db74c","false","false","Bicycle","https://kisumu-drawings.s3-us-west-1.amazonaws.com/31-006.png","8","House","31-006.png"
"","6416","image-button-response","56","null","392722","685c6ca90f751d3aae6b1794","685c6e1c305cdb7beabee424","6113ffbf45e79bc2769db74c","false","false","Cat","https://kisumu-drawings.s3-us-west-1.amazonaws.com/10-008.png","1","Bicycle","10-008.png"
"","8864","image-button-response","57","null","402089","685c6ca90f751d3aae6b1794","685c6e1c305cdb7beabee424","6113ffbf45e79bc2769db74c","false","false","Bicycle","https://kisumu-drawings.s3-us-west-1.amazonaws.com/11-009.png","10","Tree","11-009.png"
"","8880","image-button-response","58","null","411473","685c6ca90f751d3aae6b1794","685c6e1c305cdb7beabee424","6113ffbf45e79bc2769db74c","false","false","Watch","https://kisumu-drawings.s3-us-west-1.amazonaws.com/9-005.png","4","Cat","9-005.png"
"","4030","image-button-response","59","null","416006","685c6ca90f751d3aae6b1794","685c6e1c305cdb7beabee424","6113ffbf45e79bc2769db74c","false","false","Cup","https://kisumu-drawings.s3-us-west-1.amazonaws.com/70-007.png","7","Hat","70-007.png"
"","3663","image-button-response","60","null","420173","685c6ca90f751d3aae6b1794","685c6e1c305cdb7beabee424","6113ffbf45e79bc2769db74c","false","false","Cup","https://kisumu-drawings.s3-us-west-1.amazonaws.com/110-013.png","6","Cup","110-013.png"
"","1781","image-button-response","61","null","422456","685c6ca90f751d3aae6b1794","685c6e1c305cdb7beabee424","6113ffbf45e79bc2769db74c","false","false","Tree","https://kisumu-drawings.s3-us-west-1.amazonaws.com/96-005.png","10","Tree","96-005.png"
"","8947","image-button-response","62","null","431906","685c6ca90f751d3aae6b1794","685c6e1c305cdb7beabee424","6113ffbf45e79bc2769db74c","false","false","Car","https://kisumu-drawings.s3-us-west-1.amazonaws.com/98-014.png","8","House","98-014.png"
"","2363","image-button-response","63","null","434772","685c6ca90f751d3aae6b1794","685c6e1c305cdb7beabee424","6113ffbf45e79bc2769db74c","false","false","Cup","https://kisumu-drawings.s3-us-west-1.amazonaws.com/9-013.png","8","House","9-013.png"
"","1797","image-button-response","64","null","437073","685c6ca90f751d3aae6b1794","685c6e1c305cdb7beabee424","6113ffbf45e79bc2769db74c","false","false","Bicycle","https://kisumu-drawings.s3-us-west-1.amazonaws.com/112-010.png","1","Bicycle","112-010.png"
"","2347","image-button-response","65","null","439922","685c6ca90f751d3aae6b1794","685c6e1c305cdb7beabee424","6113ffbf45e79bc2769db74c","false","false","House","https://kisumu-drawings.s3-us-west-1.amazonaws.com/70-005.png","8","House","70-005.png"
"","2163","image-button-response","66","null","442589","685c6ca90f751d3aae6b1794","685c6e1c305cdb7beabee424","6113ffbf45e79bc2769db74c","false","false","Bird","https://kisumu-drawings.s3-us-west-1.amazonaws.com/97-007.png","0","Airplane","97-007.png"
"","2863","image-button-response","67","null","445955","685c6ca90f751d3aae6b1794","685c6e1c305cdb7beabee424","6113ffbf45e79bc2769db74c","false","false","Cat","https://kisumu-drawings.s3-us-west-1.amazonaws.com/96-012.png","4","Cat","96-012.png"
"","6564","image-button-response","68","null","453022","685c6ca90f751d3aae6b1794","685c6e1c305cdb7beabee424","6113ffbf45e79bc2769db74c","false","false","Cat","https://kisumu-drawings.s3-us-west-1.amazonaws.com/71-016.png","4","Cat","71-016.png"
"","5362","image-button-response","69","null","458888","685c6ca90f751d3aae6b1794","685c6e1c305cdb7beabee424","6113ffbf45e79bc2769db74c","false","false","Airplane","https://kisumu-drawings.s3-us-west-1.amazonaws.com/12-008.png","0","Airplane","12-008.png"
"","4748","image-button-response","70","null","464140","685c6ca90f751d3aae6b1794","685c6e1c305cdb7beabee424","6113ffbf45e79bc2769db74c","false","false","Cup","https://kisumu-drawings.s3-us-west-1.amazonaws.com/29-010.png","2","Bird","29-010.png"
"","2930","image-button-response","71","null","467573","685c6ca90f751d3aae6b1794","685c6e1c305cdb7beabee424","6113ffbf45e79bc2769db74c","false","false","Watch","https://kisumu-drawings.s3-us-west-1.amazonaws.com/110-005.png","11","Watch","110-005.png"
"","2362","image-button-response","72","null","470439","685c6ca90f751d3aae6b1794","685c6e1c305cdb7beabee424","6113ffbf45e79bc2769db74c","false","false","Bird","https://kisumu-drawings.s3-us-west-1.amazonaws.com/54-010.png","0","Airplane","54-010.png"
"","1830","image-button-response","73","null","472772","685c6ca90f751d3aae6b1794","685c6e1c305cdb7beabee424","6113ffbf45e79bc2769db74c","false","false","Hat","https://kisumu-drawings.s3-us-west-1.amazonaws.com/111-013.png","7","Hat","111-013.png"
"","3181","image-button-response","74","null","476456","685c6ca90f751d3aae6b1794","685c6e1c305cdb7beabee424","6113ffbf45e79bc2769db74c","false","false","Rabbit","https://kisumu-drawings.s3-us-west-1.amazonaws.com/9-014.png","8","House","9-014.png"
"","2379","image-button-response","75","null","479338","685c6ca90f751d3aae6b1794","685c6e1c305cdb7beabee424","6113ffbf45e79bc2769db74c","false","false","Hat","https://kisumu-drawings.s3-us-west-1.amazonaws.com/9-006.png","8","House","9-006.png"
