"view_history","rt","trial_type","trial_index","plugin_version","time_elapsed","study_id","session_id","participant_id","catch_trial","prep_trial","sketcher_category","stimulus","response","response_category","sketch_id"
"[{""page_index"":0,""viewing_time"":11120},{""page_index"":1,""viewing_time"":5904},{""page_index"":2,""viewing_time"":5714},{""page_index"":3,""viewing_time"":11793}]","34531","instructions","0","null","34543","685c6ca90f751d3aae6b1794","685c6e7e9767283e6f2fed86","61153c071ccdfd766abb5980","","","","","","",""
"","3282","image-button-response","1","null","38832","685c6ca90f751d3aae6b1794","685c6e7e9767283e6f2fed86","61153c071ccdfd766abb5980","false","true","car","stimuli/prep_trials/1_car_prep.png","3","Car",""
"","1732","image-button-response","2","null","41072","685c6ca90f751d3aae6b1794","685c6e7e9767283e6f2fed86","61153c071ccdfd766abb5980","false","true","cat","stimuli/prep_trials/0_cat_prep.jpg","4","Cat",""
"","22090","image-button-response","3","null","63670","685c6ca90f751d3aae6b1794","685c6e7e9767283e6f2fed86","61153c071ccdfd766abb5980","false","false","Bird","https://kisumu-drawings.s3-us-west-1.amazonaws.com/33-007.png","10","Tree","33-007.png"
"","7113","image-button-response","4","null","71296","685c6ca90f751d3aae6b1794","685c6e7e9767283e6f2fed86","61153c071ccdfd766abb5980","false","false","Chair","https://kisumu-drawings.s3-us-west-1.amazonaws.com/73-010.png","5","Chair","73-010.png"
"","22092","image-button-response","5","null","93888","685c6ca90f751d3aae6b1794","685c6e7e9767283e6f2fed86","61153c071ccdfd766abb5980","false","false","Hat","https://kisumu-drawings.s3-us-west-1.amazonaws.com/11-005.png","2","Bird","11-005.png"
"","10518","image-button-response","6","null","104896","685c6ca90f751d3aae6b1794","685c6e7e9767283e6f2fed86","61153c071ccdfd766abb5980","false","false","Tree","https://kisumu-drawings.s3-us-west-1.amazonaws.com/98-010.png","2","Bird","98-010.png"
"","9108","image-button-response","7","null","114504","685c6ca90f751d3aae6b1794","685c6e7e9767283e6f2fed86","61153c071ccdfd766abb5980","false","false","Bicycle","https://kisumu-drawings.s3-us-west-1.amazonaws.com/42-009.png","1","Bicycle","42-009.png"
"","20443","image-button-response","8","null","135452","685c6ca90f751d3aae6b1794","685c6e7e9767283e6f2fed86","61153c071ccdfd766abb5980","false","false","Rabbit","https://kisumu-drawings.s3-us-west-1.amazonaws.com/98-007.png","4","Cat","98-007.png"
"","10253","image-button-response","9","null","146211","685c6ca90f751d3aae6b1794","685c6e7e9767283e6f2fed86","61153c071ccdfd766abb5980","false","false","House","https://kisumu-drawings.s3-us-west-1.amazonaws.com/31-013.png","9","Rabbit","31-013.png"
"","10082","image-button-response","10","null","156805","685c6ca90f751d3aae6b1794","685c6e7e9767283e6f2fed86","61153c071ccdfd766abb5980","false","false","Bicycle","https://kisumu-drawings.s3-us-west-1.amazonaws.com/114-014.png","1","Bicycle","114-014.png"
"","15638","image-button-response","11","null","172955","685c6ca90f751d3aae6b1794","685c6e7e9767283e6f2fed86","61153c071ccdfd766abb5980","false","false","Airplane","https://kisumu-drawings.s3-us-west-1.amazonaws.com/15-011.png","6","Cup","15-011.png"
"","10791","image-button-response","12","null","184261","685c6ca90f751d3aae6b1794","685c6e7e9767283e6f2fed86","61153c071ccdfd766abb5980","false","false","Tree","https://kisumu-drawings.s3-us-west-1.amazonaws.com/11-007.png","9","Rabbit","11-007.png"
"","22290","image-button-response","13","null","207060","685c6ca90f751d3aae6b1794","685c6e7e9767283e6f2fed86","61153c071ccdfd766abb5980","false","false","Rabbit","https://kisumu-drawings.s3-us-west-1.amazonaws.com/112-006.png","4","Cat","112-006.png"
"","13263","image-button-response","14","null","220836","685c6ca90f751d3aae6b1794","685c6e7e9767283e6f2fed86","61153c071ccdfd766abb5980","false","false","Watch","https://kisumu-drawings.s3-us-west-1.amazonaws.com/72-007.png","0","Airplane","72-007.png"
"","16554","image-button-response","15","null","237900","685c6ca90f751d3aae6b1794","685c6e7e9767283e6f2fed86","61153c071ccdfd766abb5980","false","false","Cat","https://kisumu-drawings.s3-us-west-1.amazonaws.com/74-009.png","4","Cat","74-009.png"
"","2629","image-button-response","16","null","241036","685c6ca90f751d3aae6b1794","685c6e7e9767283e6f2fed86","61153c071ccdfd766abb5980","false","false","Airplane","https://kisumu-drawings.s3-us-west-1.amazonaws.com/81-014.png","0","Airplane","81-014.png"
"","4810","image-button-response","17","null","246357","685c6ca90f751d3aae6b1794","685c6e7e9767283e6f2fed86","61153c071ccdfd766abb5980","false","false","Bicycle","https://kisumu-drawings.s3-us-west-1.amazonaws.com/14-011.png","6","Cup","14-011.png"
"","8264","image-button-response","18","null","255132","685c6ca90f751d3aae6b1794","685c6e7e9767283e6f2fed86","61153c071ccdfd766abb5980","false","false","Bicycle","https://kisumu-drawings.s3-us-west-1.amazonaws.com/33-006.png","2","Bird","33-006.png"
"","10123","image-button-response","19","null","265764","685c6ca90f751d3aae6b1794","685c6e7e9767283e6f2fed86","61153c071ccdfd766abb5980","false","false","Car","https://kisumu-drawings.s3-us-west-1.amazonaws.com/113-015.png","3","Car","113-015.png"
"","4003","image-button-response","20","null","270274","685c6ca90f751d3aae6b1794","685c6e7e9767283e6f2fed86","61153c071ccdfd766abb5980","false","false","Cat","https://kisumu-drawings.s3-us-west-1.amazonaws.com/99-005.png","4","Cat","99-005.png"
"","4466","image-button-response","21","null","275253","685c6ca90f751d3aae6b1794","685c6e7e9767283e6f2fed86","61153c071ccdfd766abb5980","false","false","Cup","https://kisumu-drawings.s3-us-west-1.amazonaws.com/11-014.png","0","Airplane","11-014.png"
"","11782","image-button-response","22","null","287549","685c6ca90f751d3aae6b1794","685c6e7e9767283e6f2fed86","61153c071ccdfd766abb5980","false","false","Car","https://kisumu-drawings.s3-us-west-1.amazonaws.com/33-009.png","2","Bird","33-009.png"
"","2577","image-button-response","23","null","290634","685c6ca90f751d3aae6b1794","685c6e7e9767283e6f2fed86","61153c071ccdfd766abb5980","false","false","Cat","https://kisumu-drawings.s3-us-west-1.amazonaws.com/32-014.png","4","Cat","32-014.png"
"","14560","image-button-response","24","null","305700","685c6ca90f751d3aae6b1794","685c6e7e9767283e6f2fed86","61153c071ccdfd766abb5980","false","false","Watch","https://kisumu-drawings.s3-us-west-1.amazonaws.com/11-016.png","0","Airplane","11-016.png"
"","20562","image-button-response","25","null","326771","685c6ca90f751d3aae6b1794","685c6e7e9767283e6f2fed86","61153c071ccdfd766abb5980","false","false","Bird","https://kisumu-drawings.s3-us-west-1.amazonaws.com/13-009.png","5","Chair","13-009.png"
"","2515","image-button-response","26","null","329798","685c6ca90f751d3aae6b1794","685c6e7e9767283e6f2fed86","61153c071ccdfd766abb5980","false","false","Cup","https://kisumu-drawings.s3-us-west-1.amazonaws.com/72-010.png","6","Cup","72-010.png"
"","2218","image-button-response","27","null","332528","685c6ca90f751d3aae6b1794","685c6e7e9767283e6f2fed86","61153c071ccdfd766abb5980","false","false","Bicycle","https://kisumu-drawings.s3-us-west-1.amazonaws.com/81-011.png","1","Bicycle","81-011.png"
"","2315","image-button-response","28","null","335350","685c6ca90f751d3aae6b1794","685c6e7e9767283e6f2fed86","61153c071ccdfd766abb5980","false","false","House","https://kisumu-drawings.s3-us-west-1.amazonaws.com/98-005.png","8","House","98-005.png"
"","20120","image-button-response","29","null","356044","685c6ca90f751d3aae6b1794","685c6e7e9767283e6f2fed86","61153c071ccdfd766abb5980","false","false","Rabbit","https://kisumu-drawings.s3-us-west-1.amazonaws.com/11-006.png","10","Tree","11-006.png"
"","7450","image-button-response","30","null","364004","685c6ca90f751d3aae6b1794","685c6e7e9767283e6f2fed86","61153c071ccdfd766abb5980","false","false","Car","https://kisumu-drawings.s3-us-west-1.amazonaws.com/100-012.png","3","Car","100-012.png"
"","9909","image-button-response","31","null","374420","685c6ca90f751d3aae6b1794","685c6e7e9767283e6f2fed86","61153c071ccdfd766abb5980","false","false","Tree","https://kisumu-drawings.s3-us-west-1.amazonaws.com/112-005.png","7","Hat","112-005.png"
"","9975","image-button-response","32","null","384909","685c6ca90f751d3aae6b1794","685c6e7e9767283e6f2fed86","61153c071ccdfd766abb5980","false","false","Airplane","https://kisumu-drawings.s3-us-west-1.amazonaws.com/35-006.png","10","Tree","35-006.png"
"","7111","image-button-response","33","null","392530","685c6ca90f751d3aae6b1794","685c6e7e9767283e6f2fed86","61153c071ccdfd766abb5980","false","false","Watch","https://kisumu-drawings.s3-us-west-1.amazonaws.com/112-012.png","4","Cat","112-012.png"
"","3490","image-button-response","34","null","396534","685c6ca90f751d3aae6b1794","685c6e7e9767283e6f2fed86","61153c071ccdfd766abb5980","false","false","Watch","https://kisumu-drawings.s3-us-west-1.amazonaws.com/98-011.png","8","House","98-011.png"
"","3350","image-button-response","35","null","400389","685c6ca90f751d3aae6b1794","685c6e7e9767283e6f2fed86","61153c071ccdfd766abb5980","false","false","Rabbit","https://kisumu-drawings.s3-us-west-1.amazonaws.com/31-014.png","5","Chair","31-014.png"
"","4688","image-button-response","36","null","405587","685c6ca90f751d3aae6b1794","685c6e7e9767283e6f2fed86","61153c071ccdfd766abb5980","false","false","Car","https://kisumu-drawings.s3-us-west-1.amazonaws.com/12-010.png","3","Car","12-010.png"
"","10015","image-button-response","37","null","416108","685c6ca90f751d3aae6b1794","685c6e7e9767283e6f2fed86","61153c071ccdfd766abb5980","false","false","Bird","https://kisumu-drawings.s3-us-west-1.amazonaws.com/74-006.png","9","Rabbit","74-006.png"
"","9674","image-button-response","38","null","426292","685c6ca90f751d3aae6b1794","685c6e7e9767283e6f2fed86","61153c071ccdfd766abb5980","false","false","Chair","https://kisumu-drawings.s3-us-west-1.amazonaws.com/113-012.png","5","Chair","113-012.png"
"","5791","image-button-response","39","null","432597","685c6ca90f751d3aae6b1794","685c6e7e9767283e6f2fed86","61153c071ccdfd766abb5980","false","false","Hat","https://kisumu-drawings.s3-us-west-1.amazonaws.com/72-011.png","5","Chair","72-011.png"
"","13778","image-button-response","40","null","446884","685c6ca90f751d3aae6b1794","685c6e7e9767283e6f2fed86","61153c071ccdfd766abb5980","false","false","Bicycle","https://kisumu-drawings.s3-us-west-1.amazonaws.com/75-011.png","2","Bird","75-011.png"
"","12920","image-button-response","41","null","460316","685c6ca90f751d3aae6b1794","685c6e7e9767283e6f2fed86","61153c071ccdfd766abb5980","false","false","House","https://kisumu-drawings.s3-us-west-1.amazonaws.com/72-012.png","8","House","72-012.png"
"","17031","image-button-response","42","null","477852","685c6ca90f751d3aae6b1794","685c6e7e9767283e6f2fed86","61153c071ccdfd766abb5980","false","false","Watch","https://kisumu-drawings.s3-us-west-1.amazonaws.com/31-016.png","11","Watch","31-016.png"
"","2793","image-button-response","43","null","481157","685c6ca90f751d3aae6b1794","685c6e7e9767283e6f2fed86","61153c071ccdfd766abb5980","false","false","Chair","https://kisumu-drawings.s3-us-west-1.amazonaws.com/32-013.png","11","Watch","32-013.png"
"","4163","image-button-response","44","null","485825","685c6ca90f751d3aae6b1794","685c6e7e9767283e6f2fed86","61153c071ccdfd766abb5980","false","false","Cup","https://kisumu-drawings.s3-us-west-1.amazonaws.com/112-009.png","6","Cup","112-009.png"
"","3569","image-button-response","45","null","489908","685c6ca90f751d3aae6b1794","685c6e7e9767283e6f2fed86","61153c071ccdfd766abb5980","false","false","Chair","https://kisumu-drawings.s3-us-west-1.amazonaws.com/12-012.png","5","Chair","12-012.png"
"","11323","image-button-response","46","null","501740","685c6ca90f751d3aae6b1794","685c6e7e9767283e6f2fed86","61153c071ccdfd766abb5980","false","false","Rabbit","https://kisumu-drawings.s3-us-west-1.amazonaws.com/72-009.png","5","Chair","72-009.png"
"","2480","image-button-response","47","null","504732","685c6ca90f751d3aae6b1794","685c6e7e9767283e6f2fed86","61153c071ccdfd766abb5980","false","false","Airplane","https://kisumu-drawings.s3-us-west-1.amazonaws.com/115-005.png","0","Airplane","115-005.png"
"","9286","image-button-response","48","null","514526","685c6ca90f751d3aae6b1794","685c6e7e9767283e6f2fed86","61153c071ccdfd766abb5980","false","false","Hat","https://kisumu-drawings.s3-us-west-1.amazonaws.com/31-012.png","5","Chair","31-012.png"
"","5003","image-button-response","49","null","520044","685c6ca90f751d3aae6b1794","685c6e7e9767283e6f2fed86","61153c071ccdfd766abb5980","false","false","Cup","https://kisumu-drawings.s3-us-west-1.amazonaws.com/41-007.png","6","Cup","41-007.png"
"","2970","image-button-response","50","null","523519","685c6ca90f751d3aae6b1794","685c6e7e9767283e6f2fed86","61153c071ccdfd766abb5980","false","false","Airplane","https://kisumu-drawings.s3-us-west-1.amazonaws.com/43-005.png","0","Airplane","43-005.png"
"","2455","image-button-response","51","null","526485","685c6ca90f751d3aae6b1794","685c6e7e9767283e6f2fed86","61153c071ccdfd766abb5980","false","false","Bird","https://kisumu-drawings.s3-us-west-1.amazonaws.com/42-005.png","0","Airplane","42-005.png"
"","23555","image-button-response","52","null","550550","685c6ca90f751d3aae6b1794","685c6e7e9767283e6f2fed86","61153c071ccdfd766abb5980","false","false","House","https://kisumu-drawings.s3-us-west-1.amazonaws.com/11-015.png","10","Tree","11-015.png"
"","9525","image-button-response","53","null","560579","685c6ca90f751d3aae6b1794","685c6e7e9767283e6f2fed86","61153c071ccdfd766abb5980","false","false","Airplane","https://kisumu-drawings.s3-us-west-1.amazonaws.com/75-010.png","0","Airplane","75-010.png"
"","1069","image-button-response","54","null","562158","685c6ca90f751d3aae6b1794","685c6e7e9767283e6f2fed86","61153c071ccdfd766abb5980","true","false","airplane","stimuli/catch_trials/0_airplane_catch.jpg","0","Airplane",""
"","8752","image-button-response","55","null","571420","685c6ca90f751d3aae6b1794","685c6e7e9767283e6f2fed86","61153c071ccdfd766abb5980","false","false","House","https://kisumu-drawings.s3-us-west-1.amazonaws.com/55-016.png","8","House","55-016.png"
"","5882","image-button-response","56","null","577812","685c6ca90f751d3aae6b1794","685c6e7e9767283e6f2fed86","61153c071ccdfd766abb5980","false","false","Bird","https://kisumu-drawings.s3-us-west-1.amazonaws.com/100-015.png","4","Cat","100-015.png"
"","3601","image-button-response","57","null","581925","685c6ca90f751d3aae6b1794","685c6e7e9767283e6f2fed86","61153c071ccdfd766abb5980","false","false","Cat","https://kisumu-drawings.s3-us-west-1.amazonaws.com/13-013.png","2","Bird","13-013.png"
"","4840","image-button-response","58","null","587272","685c6ca90f751d3aae6b1794","685c6e7e9767283e6f2fed86","61153c071ccdfd766abb5980","false","false","Car","https://kisumu-drawings.s3-us-west-1.amazonaws.com/74-016.png","3","Car","74-016.png"
"","3425","image-button-response","59","null","591205","685c6ca90f751d3aae6b1794","685c6e7e9767283e6f2fed86","61153c071ccdfd766abb5980","false","false","Cup","https://kisumu-drawings.s3-us-west-1.amazonaws.com/32-016.png","2","Bird","32-016.png"
"","2533","image-button-response","60","null","594246","685c6ca90f751d3aae6b1794","685c6e7e9767283e6f2fed86","61153c071ccdfd766abb5980","false","false","Car","https://kisumu-drawings.s3-us-west-1.amazonaws.com/41-010.png","3","Car","41-010.png"
"","7164","image-button-response","61","null","601916","685c6ca90f751d3aae6b1794","685c6e7e9767283e6f2fed86","61153c071ccdfd766abb5980","false","false","Hat","https://kisumu-drawings.s3-us-west-1.amazonaws.com/98-012.png","7","Hat","98-012.png"
"","2743","image-button-response","62","null","605173","685c6ca90f751d3aae6b1794","685c6e7e9767283e6f2fed86","61153c071ccdfd766abb5980","false","false","Tree","https://kisumu-drawings.s3-us-west-1.amazonaws.com/72-006.png","10","Tree","72-006.png"
"","1689","image-button-response","63","null","607372","685c6ca90f751d3aae6b1794","685c6e7e9767283e6f2fed86","61153c071ccdfd766abb5980","false","false","Tree","https://kisumu-drawings.s3-us-west-1.amazonaws.com/55-009.png","10","Tree","55-009.png"
"","1567","image-button-response","64","null","609444","685c6ca90f751d3aae6b1794","685c6e7e9767283e6f2fed86","61153c071ccdfd766abb5980","false","false","Chair","https://kisumu-drawings.s3-us-west-1.amazonaws.com/99-012.png","5","Chair","99-012.png"
"","2042","image-button-response","65","null","612037","685c6ca90f751d3aae6b1794","685c6e7e9767283e6f2fed86","61153c071ccdfd766abb5980","false","false","Cat","https://kisumu-drawings.s3-us-west-1.amazonaws.com/113-006.png","4","Cat","113-006.png"
"","1618","image-button-response","66","null","614163","685c6ca90f751d3aae6b1794","685c6e7e9767283e6f2fed86","61153c071ccdfd766abb5980","false","false","Cup","https://kisumu-drawings.s3-us-west-1.amazonaws.com/98-015.png","6","Cup","98-015.png"
"","1760","image-button-response","67","null","616429","685c6ca90f751d3aae6b1794","685c6e7e9767283e6f2fed86","61153c071ccdfd766abb5980","false","false","Bird","https://kisumu-drawings.s3-us-west-1.amazonaws.com/114-015.png","2","Bird","114-015.png"
"","2593","image-button-response","68","null","619532","685c6ca90f751d3aae6b1794","685c6e7e9767283e6f2fed86","61153c071ccdfd766abb5980","false","false","Hat","https://kisumu-drawings.s3-us-west-1.amazonaws.com/55-005.png","10","Tree","55-005.png"
"","3305","image-button-response","69","null","623347","685c6ca90f751d3aae6b1794","685c6e7e9767283e6f2fed86","61153c071ccdfd766abb5980","false","false","Rabbit","https://kisumu-drawings.s3-us-west-1.amazonaws.com/55-008.png","11","Watch","55-008.png"
"","2209","image-button-response","70","null","626075","685c6ca90f751d3aae6b1794","685c6e7e9767283e6f2fed86","61153c071ccdfd766abb5980","false","false","Tree","https://kisumu-drawings.s3-us-west-1.amazonaws.com/31-015.png","10","Tree","31-015.png"
"","2020","image-button-response","71","null","628605","685c6ca90f751d3aae6b1794","685c6e7e9767283e6f2fed86","61153c071ccdfd766abb5980","false","false","Watch","https://kisumu-drawings.s3-us-west-1.amazonaws.com/55-010.png","2","Bird","55-010.png"
"","2071","image-button-response","72","null","631179","685c6ca90f751d3aae6b1794","685c6e7e9767283e6f2fed86","61153c071ccdfd766abb5980","false","false","Cat","https://kisumu-drawings.s3-us-west-1.amazonaws.com/42-008.png","4","Cat","42-008.png"
"","1959","image-button-response","73","null","633664","685c6ca90f751d3aae6b1794","685c6e7e9767283e6f2fed86","61153c071ccdfd766abb5980","false","false","Chair","https://kisumu-drawings.s3-us-west-1.amazonaws.com/41-006.png","5","Chair","41-006.png"
"","4644","image-button-response","74","null","638819","685c6ca90f751d3aae6b1794","685c6e7e9767283e6f2fed86","61153c071ccdfd766abb5980","false","false","House","https://kisumu-drawings.s3-us-west-1.amazonaws.com/112-007.png","8","House","112-007.png"
"","3843","image-button-response","75","null","643173","685c6ca90f751d3aae6b1794","685c6e7e9767283e6f2fed86","61153c071ccdfd766abb5980","false","false","Hat","https://kisumu-drawings.s3-us-west-1.amazonaws.com/113-008.png","7","Hat","113-008.png"
