"view_history","rt","trial_type","trial_index","plugin_version","time_elapsed","study_id","session_id","participant_id","catch_trial","prep_trial","sketcher_category","stimulus","response","response_category","sketch_id"
"[{""page_index"":0,""viewing_time"":9386},{""page_index"":1,""viewing_time"":18450},{""page_index"":2,""viewing_time"":24946},{""page_index"":3,""viewing_time"":15517}]","68300","instructions","0","null","68312","685c6ca90f751d3aae6b1794","685c6e54b1fda1d513c48182","62faba5f904642df812944fa","","","","","","",""
"","5836","image-button-response","1","null","75160","685c6ca90f751d3aae6b1794","685c6e54b1fda1d513c48182","62faba5f904642df812944fa","false","true","car","stimuli/prep_trials/1_car_prep.png","3","Car",""
"","2388","image-button-response","2","null","78056","685c6ca90f751d3aae6b1794","685c6e54b1fda1d513c48182","62faba5f904642df812944fa","false","true","cat","stimuli/prep_trials/0_cat_prep.jpg","4","Cat",""
"","3706","image-button-response","3","null","82263","685c6ca90f751d3aae6b1794","685c6e54b1fda1d513c48182","62faba5f904642df812944fa","false","false","Hat","https://kisumu-drawings.s3-us-west-1.amazonaws.com/111-013.png","7","Hat","111-013.png"
"","31192","image-button-response","4","null","113966","685c6ca90f751d3aae6b1794","685c6e54b1fda1d513c48182","62faba5f904642df812944fa","false","false","Car","https://kisumu-drawings.s3-us-west-1.amazonaws.com/71-009.png","6","Cup","71-009.png"
"","5320","image-button-response","5","null","119795","685c6ca90f751d3aae6b1794","685c6e54b1fda1d513c48182","62faba5f904642df812944fa","false","false","Tree","https://kisumu-drawings.s3-us-west-1.amazonaws.com/111-008.png","10","Tree","111-008.png"
"","11193","image-button-response","6","null","131503","685c6ca90f751d3aae6b1794","685c6e54b1fda1d513c48182","62faba5f904642df812944fa","false","false","House","https://kisumu-drawings.s3-us-west-1.amazonaws.com/53-015.png","8","House","53-015.png"
"","7694","image-button-response","7","null","139716","685c6ca90f751d3aae6b1794","685c6e54b1fda1d513c48182","62faba5f904642df812944fa","false","false","Rabbit","https://kisumu-drawings.s3-us-west-1.amazonaws.com/111-011.png","4","Cat","111-011.png"
"","4696","image-button-response","8","null","144927","685c6ca90f751d3aae6b1794","685c6e54b1fda1d513c48182","62faba5f904642df812944fa","false","false","Car","https://kisumu-drawings.s3-us-west-1.amazonaws.com/111-012.png","3","Car","111-012.png"
"","3120","image-button-response","9","null","148551","685c6ca90f751d3aae6b1794","685c6e54b1fda1d513c48182","62faba5f904642df812944fa","false","false","Cup","https://kisumu-drawings.s3-us-west-1.amazonaws.com/30-011.png","6","Cup","30-011.png"
"","17573","image-button-response","10","null","166633","685c6ca90f751d3aae6b1794","685c6e54b1fda1d513c48182","62faba5f904642df812944fa","false","false","Airplane","https://kisumu-drawings.s3-us-west-1.amazonaws.com/72-005.png","0","Airplane","72-005.png"
"","18584","image-button-response","11","null","185723","685c6ca90f751d3aae6b1794","685c6e54b1fda1d513c48182","62faba5f904642df812944fa","false","false","Bird","https://kisumu-drawings.s3-us-west-1.amazonaws.com/11-011.png","5","Chair","11-011.png"
"","12922","image-button-response","12","null","199159","685c6ca90f751d3aae6b1794","685c6e54b1fda1d513c48182","62faba5f904642df812944fa","false","false","Bird","https://kisumu-drawings.s3-us-west-1.amazonaws.com/30-007.png","2","Bird","30-007.png"
"","9454","image-button-response","13","null","209123","685c6ca90f751d3aae6b1794","685c6e54b1fda1d513c48182","62faba5f904642df812944fa","false","false","Watch","https://kisumu-drawings.s3-us-west-1.amazonaws.com/30-016.png","3","Car","30-016.png"
"","12357","image-button-response","14","null","221986","685c6ca90f751d3aae6b1794","685c6e54b1fda1d513c48182","62faba5f904642df812944fa","false","false","Rabbit","https://kisumu-drawings.s3-us-west-1.amazonaws.com/96-006.png","4","Cat","96-006.png"
"","12226","image-button-response","15","null","234728","685c6ca90f751d3aae6b1794","685c6e54b1fda1d513c48182","62faba5f904642df812944fa","false","false","Bicycle","https://kisumu-drawings.s3-us-west-1.amazonaws.com/31-006.png","1","Bicycle","31-006.png"
"","2466","image-button-response","16","null","237698","685c6ca90f751d3aae6b1794","685c6e54b1fda1d513c48182","62faba5f904642df812944fa","false","false","Car","https://kisumu-drawings.s3-us-west-1.amazonaws.com/54-005.png","3","Car","54-005.png"
"","2042","image-button-response","17","null","240248","685c6ca90f751d3aae6b1794","685c6e54b1fda1d513c48182","62faba5f904642df812944fa","false","false","Tree","https://kisumu-drawings.s3-us-west-1.amazonaws.com/30-015.png","10","Tree","30-015.png"
"","10985","image-button-response","18","null","251738","685c6ca90f751d3aae6b1794","685c6e54b1fda1d513c48182","62faba5f904642df812944fa","false","false","Cat","https://kisumu-drawings.s3-us-west-1.amazonaws.com/96-012.png","9","Rabbit","96-012.png"
"","10671","image-button-response","19","null","262927","685c6ca90f751d3aae6b1794","685c6e54b1fda1d513c48182","62faba5f904642df812944fa","false","false","House","https://kisumu-drawings.s3-us-west-1.amazonaws.com/70-005.png","8","House","70-005.png"
"","4197","image-button-response","20","null","267639","685c6ca90f751d3aae6b1794","685c6e54b1fda1d513c48182","62faba5f904642df812944fa","false","false","Cat","https://kisumu-drawings.s3-us-west-1.amazonaws.com/111-016.png","4","Cat","111-016.png"
"","4136","image-button-response","21","null","272282","685c6ca90f751d3aae6b1794","685c6e54b1fda1d513c48182","62faba5f904642df812944fa","false","false","Watch","https://kisumu-drawings.s3-us-west-1.amazonaws.com/54-012.png","11","Watch","54-012.png"
"","2256","image-button-response","22","null","275042","685c6ca90f751d3aae6b1794","685c6e54b1fda1d513c48182","62faba5f904642df812944fa","false","false","House","https://kisumu-drawings.s3-us-west-1.amazonaws.com/30-013.png","8","House","30-013.png"
"","13177","image-button-response","23","null","288737","685c6ca90f751d3aae6b1794","685c6e54b1fda1d513c48182","62faba5f904642df812944fa","false","false","Car","https://kisumu-drawings.s3-us-west-1.amazonaws.com/98-014.png","7","Hat","98-014.png"
"","11354","image-button-response","24","null","300602","685c6ca90f751d3aae6b1794","685c6e54b1fda1d513c48182","62faba5f904642df812944fa","false","false","Rabbit","https://kisumu-drawings.s3-us-west-1.amazonaws.com/10-010.png","1","Bicycle","10-010.png"
"","8636","image-button-response","25","null","309741","685c6ca90f751d3aae6b1794","685c6e54b1fda1d513c48182","62faba5f904642df812944fa","false","false","Cat","https://kisumu-drawings.s3-us-west-1.amazonaws.com/30-009.png","4","Cat","30-009.png"
"","4796","image-button-response","26","null","315048","685c6ca90f751d3aae6b1794","685c6e54b1fda1d513c48182","62faba5f904642df812944fa","false","false","Cat","https://kisumu-drawings.s3-us-west-1.amazonaws.com/54-006.png","4","Cat","54-006.png"
"","2064","image-button-response","27","null","317619","685c6ca90f751d3aae6b1794","685c6e54b1fda1d513c48182","62faba5f904642df812944fa","false","false","Chair","https://kisumu-drawings.s3-us-west-1.amazonaws.com/97-009.png","5","Chair","97-009.png"
"","2396","image-button-response","28","null","320531","685c6ca90f751d3aae6b1794","685c6e54b1fda1d513c48182","62faba5f904642df812944fa","false","false","Bird","https://kisumu-drawings.s3-us-west-1.amazonaws.com/97-007.png","0","Airplane","97-007.png"
"","10633","image-button-response","29","null","331684","685c6ca90f751d3aae6b1794","685c6e54b1fda1d513c48182","62faba5f904642df812944fa","false","false","Cat","https://kisumu-drawings.s3-us-west-1.amazonaws.com/10-008.png","9","Rabbit","10-008.png"
"","13607","image-button-response","30","null","345799","685c6ca90f751d3aae6b1794","685c6e54b1fda1d513c48182","62faba5f904642df812944fa","false","false","Rabbit","https://kisumu-drawings.s3-us-west-1.amazonaws.com/71-005.png","2","Bird","71-005.png"
"","16319","image-button-response","31","null","362622","685c6ca90f751d3aae6b1794","685c6e54b1fda1d513c48182","62faba5f904642df812944fa","false","false","Watch","https://kisumu-drawings.s3-us-west-1.amazonaws.com/97-010.png","6","Cup","97-010.png"
"","6890","image-button-response","32","null","370024","685c6ca90f751d3aae6b1794","685c6e54b1fda1d513c48182","62faba5f904642df812944fa","false","false","Chair","https://kisumu-drawings.s3-us-west-1.amazonaws.com/71-011.png","5","Chair","71-011.png"
"","6265","image-button-response","33","null","376798","685c6ca90f751d3aae6b1794","685c6e54b1fda1d513c48182","62faba5f904642df812944fa","false","false","Cat","https://kisumu-drawings.s3-us-west-1.amazonaws.com/71-016.png","4","Cat","71-016.png"
"","2910","image-button-response","34","null","380216","685c6ca90f751d3aae6b1794","685c6e54b1fda1d513c48182","62faba5f904642df812944fa","false","false","Bird","https://kisumu-drawings.s3-us-west-1.amazonaws.com/111-007.png","2","Bird","111-007.png"
"","5209","image-button-response","35","null","385941","685c6ca90f751d3aae6b1794","685c6e54b1fda1d513c48182","62faba5f904642df812944fa","false","false","Bicycle","https://kisumu-drawings.s3-us-west-1.amazonaws.com/72-008.png","5","Chair","72-008.png"
"","4753","image-button-response","36","null","391205","685c6ca90f751d3aae6b1794","685c6e54b1fda1d513c48182","62faba5f904642df812944fa","false","false","Car","https://kisumu-drawings.s3-us-west-1.amazonaws.com/30-008.png","7","Hat","30-008.png"
"","7306","image-button-response","37","null","399021","685c6ca90f751d3aae6b1794","685c6e54b1fda1d513c48182","62faba5f904642df812944fa","false","false","Hat","https://kisumu-drawings.s3-us-west-1.amazonaws.com/53-014.png","2","Bird","53-014.png"
"","4615","image-button-response","38","null","404151","685c6ca90f751d3aae6b1794","685c6e54b1fda1d513c48182","62faba5f904642df812944fa","false","false","Bicycle","https://kisumu-drawings.s3-us-west-1.amazonaws.com/98-006.png","1","Bicycle","98-006.png"
"","7459","image-button-response","39","null","412116","685c6ca90f751d3aae6b1794","685c6e54b1fda1d513c48182","62faba5f904642df812944fa","false","false","Car","https://kisumu-drawings.s3-us-west-1.amazonaws.com/9-010.png","8","House","9-010.png"
"","3220","image-button-response","40","null","415844","685c6ca90f751d3aae6b1794","685c6e54b1fda1d513c48182","62faba5f904642df812944fa","false","false","Airplane","https://kisumu-drawings.s3-us-west-1.amazonaws.com/112-015.png","0","Airplane","112-015.png"
"","1676","image-button-response","41","null","418026","685c6ca90f751d3aae6b1794","685c6e54b1fda1d513c48182","62faba5f904642df812944fa","false","false","Tree","https://kisumu-drawings.s3-us-west-1.amazonaws.com/54-011.png","10","Tree","54-011.png"
"","3569","image-button-response","42","null","422106","685c6ca90f751d3aae6b1794","685c6e54b1fda1d513c48182","62faba5f904642df812944fa","false","false","Rabbit","https://kisumu-drawings.s3-us-west-1.amazonaws.com/54-016.png","4","Cat","54-016.png"
"","9393","image-button-response","43","null","432015","685c6ca90f751d3aae6b1794","685c6e54b1fda1d513c48182","62faba5f904642df812944fa","false","false","Chair","https://kisumu-drawings.s3-us-west-1.amazonaws.com/10-016.png","5","Chair","10-016.png"
"","2407","image-button-response","44","null","434931","685c6ca90f751d3aae6b1794","685c6e54b1fda1d513c48182","62faba5f904642df812944fa","false","false","Watch","https://kisumu-drawings.s3-us-west-1.amazonaws.com/71-015.png","11","Watch","71-015.png"
"","15521","image-button-response","45","null","450967","685c6ca90f751d3aae6b1794","685c6e54b1fda1d513c48182","62faba5f904642df812944fa","false","false","Airplane","https://kisumu-drawings.s3-us-west-1.amazonaws.com/98-016.png","8","House","98-016.png"
"","3474","image-button-response","46","null","454950","685c6ca90f751d3aae6b1794","685c6e54b1fda1d513c48182","62faba5f904642df812944fa","false","false","House","https://kisumu-drawings.s3-us-west-1.amazonaws.com/97-011.png","8","House","97-011.png"
"","2435","image-button-response","47","null","457897","685c6ca90f751d3aae6b1794","685c6e54b1fda1d513c48182","62faba5f904642df812944fa","false","false","Cup","https://kisumu-drawings.s3-us-west-1.amazonaws.com/71-007.png","6","Cup","71-007.png"
"","10645","image-button-response","48","null","469058","685c6ca90f751d3aae6b1794","685c6e54b1fda1d513c48182","62faba5f904642df812944fa","false","false","Tree","https://kisumu-drawings.s3-us-west-1.amazonaws.com/10-011.png","10","Tree","10-011.png"
"","2817","image-button-response","49","null","472388","685c6ca90f751d3aae6b1794","685c6e54b1fda1d513c48182","62faba5f904642df812944fa","false","false","House","https://kisumu-drawings.s3-us-west-1.amazonaws.com/111-014.png","8","House","111-014.png"
"","3250","image-button-response","50","null","476152","685c6ca90f751d3aae6b1794","685c6e54b1fda1d513c48182","62faba5f904642df812944fa","true","false","airplane","stimuli/catch_trials/0_airplane_catch.jpg","0","Airplane",""
"","5306","image-button-response","51","null","481972","685c6ca90f751d3aae6b1794","685c6e54b1fda1d513c48182","62faba5f904642df812944fa","false","false","Hat","https://kisumu-drawings.s3-us-west-1.amazonaws.com/29-015.png","10","Tree","29-015.png"
"","2463","image-button-response","52","null","484951","685c6ca90f751d3aae6b1794","685c6e54b1fda1d513c48182","62faba5f904642df812944fa","false","false","Hat","https://kisumu-drawings.s3-us-west-1.amazonaws.com/97-005.png","7","Hat","97-005.png"
"","6099","image-button-response","53","null","491566","685c6ca90f751d3aae6b1794","685c6e54b1fda1d513c48182","62faba5f904642df812944fa","false","false","Airplane","https://kisumu-drawings.s3-us-west-1.amazonaws.com/11-010.png","2","Bird","11-010.png"
"","4179","image-button-response","54","null","496254","685c6ca90f751d3aae6b1794","685c6e54b1fda1d513c48182","62faba5f904642df812944fa","false","false","Bicycle","https://kisumu-drawings.s3-us-west-1.amazonaws.com/112-010.png","1","Bicycle","112-010.png"
"","1949","image-button-response","55","null","498713","685c6ca90f751d3aae6b1794","685c6e54b1fda1d513c48182","62faba5f904642df812944fa","false","false","Watch","https://kisumu-drawings.s3-us-west-1.amazonaws.com/111-015.png","11","Watch","111-015.png"
"","6596","image-button-response","56","null","505816","685c6ca90f751d3aae6b1794","685c6e54b1fda1d513c48182","62faba5f904642df812944fa","false","false","Hat","https://kisumu-drawings.s3-us-west-1.amazonaws.com/71-006.png","6","Cup","71-006.png"
"","10189","image-button-response","57","null","516512","685c6ca90f751d3aae6b1794","685c6e54b1fda1d513c48182","62faba5f904642df812944fa","false","false","Cup","https://kisumu-drawings.s3-us-west-1.amazonaws.com/10-005.png","5","Chair","10-005.png"
"","7688","image-button-response","58","null","524709","685c6ca90f751d3aae6b1794","685c6e54b1fda1d513c48182","62faba5f904642df812944fa","false","false","Bird","https://kisumu-drawings.s3-us-west-1.amazonaws.com/71-010.png","2","Bird","71-010.png"
"","8077","image-button-response","59","null","533297","685c6ca90f751d3aae6b1794","685c6e54b1fda1d513c48182","62faba5f904642df812944fa","false","false","Hat","https://kisumu-drawings.s3-us-west-1.amazonaws.com/9-006.png","6","Cup","9-006.png"
"","3898","image-button-response","60","null","537707","685c6ca90f751d3aae6b1794","685c6e54b1fda1d513c48182","62faba5f904642df812944fa","false","false","Cup","https://kisumu-drawings.s3-us-west-1.amazonaws.com/54-013.png","6","Cup","54-013.png"
"","4593","image-button-response","61","null","542805","685c6ca90f751d3aae6b1794","685c6e54b1fda1d513c48182","62faba5f904642df812944fa","false","false","Chair","https://kisumu-drawings.s3-us-west-1.amazonaws.com/111-005.png","5","Chair","111-005.png"
"","16417","image-button-response","62","null","559736","685c6ca90f751d3aae6b1794","685c6e54b1fda1d513c48182","62faba5f904642df812944fa","false","false","Watch","https://kisumu-drawings.s3-us-west-1.amazonaws.com/10-012.png","11","Watch","10-012.png"
"","4054","image-button-response","63","null","564303","685c6ca90f751d3aae6b1794","685c6e54b1fda1d513c48182","62faba5f904642df812944fa","false","false","Chair","https://kisumu-drawings.s3-us-west-1.amazonaws.com/54-007.png","5","Chair","54-007.png"
"","4612","image-button-response","64","null","569418","685c6ca90f751d3aae6b1794","685c6e54b1fda1d513c48182","62faba5f904642df812944fa","false","false","Bicycle","https://kisumu-drawings.s3-us-west-1.amazonaws.com/11-009.png","2","Bird","11-009.png"
"","2498","image-button-response","65","null","572424","685c6ca90f751d3aae6b1794","685c6e54b1fda1d513c48182","62faba5f904642df812944fa","false","false","Cup","https://kisumu-drawings.s3-us-west-1.amazonaws.com/111-006.png","6","Cup","111-006.png"
"","3682","image-button-response","66","null","576618","685c6ca90f751d3aae6b1794","685c6e54b1fda1d513c48182","62faba5f904642df812944fa","false","false","House","https://kisumu-drawings.s3-us-west-1.amazonaws.com/9-015.png","8","House","9-015.png"
"","1958","image-button-response","67","null","579090","685c6ca90f751d3aae6b1794","685c6e54b1fda1d513c48182","62faba5f904642df812944fa","false","false","Bird","https://kisumu-drawings.s3-us-west-1.amazonaws.com/54-010.png","0","Airplane","54-010.png"
"","2070","image-button-response","68","null","581673","685c6ca90f751d3aae6b1794","685c6e54b1fda1d513c48182","62faba5f904642df812944fa","false","false","Tree","https://kisumu-drawings.s3-us-west-1.amazonaws.com/97-016.png","10","Tree","97-016.png"
"","4248","image-button-response","69","null","586435","685c6ca90f751d3aae6b1794","685c6e54b1fda1d513c48182","62faba5f904642df812944fa","false","false","Tree","https://kisumu-drawings.s3-us-west-1.amazonaws.com/71-014.png","10","Tree","71-014.png"
"","5933","image-button-response","70","null","592879","685c6ca90f751d3aae6b1794","685c6e54b1fda1d513c48182","62faba5f904642df812944fa","false","false","Airplane","https://kisumu-drawings.s3-us-west-1.amazonaws.com/55-014.png","2","Bird","55-014.png"
"","6807","image-button-response","71","null","600199","685c6ca90f751d3aae6b1794","685c6e54b1fda1d513c48182","62faba5f904642df812944fa","false","false","Rabbit","https://kisumu-drawings.s3-us-west-1.amazonaws.com/30-014.png","9","Rabbit","30-014.png"
"","2788","image-button-response","72","null","603491","685c6ca90f751d3aae6b1794","685c6e54b1fda1d513c48182","62faba5f904642df812944fa","false","false","Cup","https://kisumu-drawings.s3-us-west-1.amazonaws.com/96-010.png","6","Cup","96-010.png"
"","4071","image-button-response","73","null","608074","685c6ca90f751d3aae6b1794","685c6e54b1fda1d513c48182","62faba5f904642df812944fa","false","false","Bicycle","https://kisumu-drawings.s3-us-west-1.amazonaws.com/55-006.png","1","Bicycle","55-006.png"
"","4031","image-button-response","74","null","612611","685c6ca90f751d3aae6b1794","685c6e54b1fda1d513c48182","62faba5f904642df812944fa","false","false","Airplane","https://kisumu-drawings.s3-us-west-1.amazonaws.com/31-005.png","0","Airplane","31-005.png"
"","12471","image-button-response","75","null","625587","685c6ca90f751d3aae6b1794","685c6e54b1fda1d513c48182","62faba5f904642df812944fa","false","false","Chair","https://kisumu-drawings.s3-us-west-1.amazonaws.com/30-010.png","8","House","30-010.png"
