"view_history","rt","trial_type","trial_index","plugin_version","time_elapsed","study_id","session_id","participant_id","catch_trial","prep_trial","sketcher_category","stimulus","response","response_category","sketch_id"
"[{""page_index"":0,""viewing_time"":104556},{""page_index"":1,""viewing_time"":9154},{""page_index"":2,""viewing_time"":7245},{""page_index"":3,""viewing_time"":14079}]","135034","instructions","0","null","135037","685c6ca90f751d3aae6b1794","685c720e1ed63af98e05ac2c","63052f20afc39e87110eb83e","","","","","","",""
"","5131","image-button-response","1","null","141190","685c6ca90f751d3aae6b1794","685c720e1ed63af98e05ac2c","63052f20afc39e87110eb83e","false","true","car","stimuli/prep_trials/1_car_prep.png","3","Car",""
"","1807","image-button-response","2","null","143513","685c6ca90f751d3aae6b1794","685c720e1ed63af98e05ac2c","63052f20afc39e87110eb83e","false","true","cat","stimuli/prep_trials/0_cat_prep.jpg","4","Cat",""
"","3887","image-button-response","3","null","147909","685c6ca90f751d3aae6b1794","685c720e1ed63af98e05ac2c","63052f20afc39e87110eb83e","false","false","Rabbit","https://kisumu-drawings.s3-us-west-1.amazonaws.com/60-008.png","2","Bird","60-008.png"
"","25515","image-button-response","4","null","173938","685c6ca90f751d3aae6b1794","685c720e1ed63af98e05ac2c","63052f20afc39e87110eb83e","false","false","Watch","https://kisumu-drawings.s3-us-west-1.amazonaws.com/48-012.png","11","Watch","48-012.png"
"","29494","image-button-response","5","null","203951","685c6ca90f751d3aae6b1794","685c720e1ed63af98e05ac2c","63052f20afc39e87110eb83e","false","false","Bicycle","https://kisumu-drawings.s3-us-west-1.amazonaws.com/13-010.png","11","Watch","13-010.png"
"","11668","image-button-response","6","null","216131","685c6ca90f751d3aae6b1794","685c720e1ed63af98e05ac2c","63052f20afc39e87110eb83e","false","false","Cup","https://kisumu-drawings.s3-us-west-1.amazonaws.com/39-011.png","4","Cat","39-011.png"
"","5694","image-button-response","7","null","222334","685c6ca90f751d3aae6b1794","685c720e1ed63af98e05ac2c","63052f20afc39e87110eb83e","false","false","Airplane","https://kisumu-drawings.s3-us-west-1.amazonaws.com/7-009.png","10","Tree","7-009.png"
"","8554","image-button-response","8","null","231397","685c6ca90f751d3aae6b1794","685c720e1ed63af98e05ac2c","63052f20afc39e87110eb83e","false","false","Hat","https://kisumu-drawings.s3-us-west-1.amazonaws.com/104-010.png","7","Hat","104-010.png"
"","38476","image-button-response","9","null","270383","685c6ca90f751d3aae6b1794","685c720e1ed63af98e05ac2c","63052f20afc39e87110eb83e","false","false","Rabbit","https://kisumu-drawings.s3-us-west-1.amazonaws.com/9-014.png","6","Cup","9-014.png"
"","5130","image-button-response","10","null","276030","685c6ca90f751d3aae6b1794","685c720e1ed63af98e05ac2c","63052f20afc39e87110eb83e","false","false","Cup","https://kisumu-drawings.s3-us-west-1.amazonaws.com/42-014.png","6","Cup","42-014.png"
"","4522","image-button-response","11","null","281059","685c6ca90f751d3aae6b1794","685c720e1ed63af98e05ac2c","63052f20afc39e87110eb83e","false","false","Cat","https://kisumu-drawings.s3-us-west-1.amazonaws.com/72-014.png","4","Cat","72-014.png"
"","7006","image-button-response","12","null","288574","685c6ca90f751d3aae6b1794","685c720e1ed63af98e05ac2c","63052f20afc39e87110eb83e","false","false","Cat","https://kisumu-drawings.s3-us-west-1.amazonaws.com/87-006.png","4","Cat","87-006.png"
"","22663","image-button-response","13","null","311748","685c6ca90f751d3aae6b1794","685c720e1ed63af98e05ac2c","63052f20afc39e87110eb83e","false","false","Tree","https://kisumu-drawings.s3-us-west-1.amazonaws.com/31-015.png","10","Tree","31-015.png"
"","11010","image-button-response","14","null","323272","685c6ca90f751d3aae6b1794","685c720e1ed63af98e05ac2c","63052f20afc39e87110eb83e","false","false","Car","https://kisumu-drawings.s3-us-west-1.amazonaws.com/32-011.png","3","Car","32-011.png"
"","2892","image-button-response","15","null","326668","685c6ca90f751d3aae6b1794","685c720e1ed63af98e05ac2c","63052f20afc39e87110eb83e","false","false","House","https://kisumu-drawings.s3-us-west-1.amazonaws.com/65-009.png","8","House","65-009.png"
"","1575","image-button-response","16","null","328759","685c6ca90f751d3aae6b1794","685c720e1ed63af98e05ac2c","63052f20afc39e87110eb83e","false","false","Airplane","https://kisumu-drawings.s3-us-west-1.amazonaws.com/41-005.png","0","Airplane","41-005.png"
"","6727","image-button-response","17","null","335993","685c6ca90f751d3aae6b1794","685c720e1ed63af98e05ac2c","63052f20afc39e87110eb83e","false","false","Car","https://kisumu-drawings.s3-us-west-1.amazonaws.com/86-007.png","3","Car","86-007.png"
"","7669","image-button-response","18","null","344172","685c6ca90f751d3aae6b1794","685c720e1ed63af98e05ac2c","63052f20afc39e87110eb83e","false","false","Watch","https://kisumu-drawings.s3-us-west-1.amazonaws.com/119-015.png","11","Watch","119-015.png"
"","8017","image-button-response","19","null","352705","685c6ca90f751d3aae6b1794","685c720e1ed63af98e05ac2c","63052f20afc39e87110eb83e","false","false","Watch","https://kisumu-drawings.s3-us-west-1.amazonaws.com/21-009.png","11","Watch","21-009.png"
"","18137","image-button-response","20","null","371352","685c6ca90f751d3aae6b1794","685c720e1ed63af98e05ac2c","63052f20afc39e87110eb83e","false","false","Chair","https://kisumu-drawings.s3-us-west-1.amazonaws.com/7-007.png","5","Chair","7-007.png"
"","3033","image-button-response","21","null","374887","685c6ca90f751d3aae6b1794","685c720e1ed63af98e05ac2c","63052f20afc39e87110eb83e","false","false","Car","https://kisumu-drawings.s3-us-west-1.amazonaws.com/107-009.png","3","Car","107-009.png"
"","1666","image-button-response","22","null","377069","685c6ca90f751d3aae6b1794","685c720e1ed63af98e05ac2c","63052f20afc39e87110eb83e","true","false","airplane","stimuli/catch_trials/0_airplane_catch.jpg","0","Airplane",""
"","15526","image-button-response","23","null","393109","685c6ca90f751d3aae6b1794","685c720e1ed63af98e05ac2c","63052f20afc39e87110eb83e","false","false","Hat","https://kisumu-drawings.s3-us-west-1.amazonaws.com/33-015.png","6","Cup","33-015.png"
"","45042","image-button-response","24","null","438660","685c6ca90f751d3aae6b1794","685c720e1ed63af98e05ac2c","63052f20afc39e87110eb83e","false","false","Tree","https://kisumu-drawings.s3-us-west-1.amazonaws.com/48-006.png","6","Cup","48-006.png"
"","9149","image-button-response","25","null","448323","685c6ca90f751d3aae6b1794","685c720e1ed63af98e05ac2c","63052f20afc39e87110eb83e","false","false","Tree","https://kisumu-drawings.s3-us-west-1.amazonaws.com/5-008.png","10","Tree","5-008.png"
"","11574","image-button-response","26","null","460414","685c6ca90f751d3aae6b1794","685c720e1ed63af98e05ac2c","63052f20afc39e87110eb83e","false","false","Rabbit","https://kisumu-drawings.s3-us-west-1.amazonaws.com/96-006.png","4","Cat","96-006.png"
"","2412","image-button-response","27","null","463342","685c6ca90f751d3aae6b1794","685c720e1ed63af98e05ac2c","63052f20afc39e87110eb83e","false","false","Car","https://kisumu-drawings.s3-us-west-1.amazonaws.com/78-005.png","3","Car","78-005.png"
"","3233","image-button-response","28","null","467085","685c6ca90f751d3aae6b1794","685c720e1ed63af98e05ac2c","63052f20afc39e87110eb83e","false","false","Bicycle","https://kisumu-drawings.s3-us-west-1.amazonaws.com/41-009.png","1","Bicycle","41-009.png"
"","3104","image-button-response","29","null","470705","685c6ca90f751d3aae6b1794","685c720e1ed63af98e05ac2c","63052f20afc39e87110eb83e","false","false","Bicycle","https://kisumu-drawings.s3-us-west-1.amazonaws.com/105-006.png","1","Bicycle","105-006.png"
"","1645","image-button-response","30","null","472864","685c6ca90f751d3aae6b1794","685c720e1ed63af98e05ac2c","63052f20afc39e87110eb83e","false","false","House","https://kisumu-drawings.s3-us-west-1.amazonaws.com/52-010.png","8","House","52-010.png"
"","1714","image-button-response","31","null","475081","685c6ca90f751d3aae6b1794","685c720e1ed63af98e05ac2c","63052f20afc39e87110eb83e","false","false","Cup","https://kisumu-drawings.s3-us-west-1.amazonaws.com/12-005.png","6","Cup","12-005.png"
"","7714","image-button-response","32","null","483305","685c6ca90f751d3aae6b1794","685c720e1ed63af98e05ac2c","63052f20afc39e87110eb83e","false","false","Cat","https://kisumu-drawings.s3-us-west-1.amazonaws.com/26-010.png","4","Cat","26-010.png"
"","15055","image-button-response","33","null","498870","685c6ca90f751d3aae6b1794","685c720e1ed63af98e05ac2c","63052f20afc39e87110eb83e","false","false","Cat","https://kisumu-drawings.s3-us-west-1.amazonaws.com/18-010.png","0","Airplane","18-010.png"
"","2463","image-button-response","34","null","501849","685c6ca90f751d3aae6b1794","685c720e1ed63af98e05ac2c","63052f20afc39e87110eb83e","false","false","Bird","https://kisumu-drawings.s3-us-west-1.amazonaws.com/117-011.png","2","Bird","117-011.png"
"","1582","image-button-response","35","null","503947","685c6ca90f751d3aae6b1794","685c720e1ed63af98e05ac2c","63052f20afc39e87110eb83e","false","false","House","https://kisumu-drawings.s3-us-west-1.amazonaws.com/116-015.png","8","House","116-015.png"
"","27323","image-button-response","36","null","531779","685c6ca90f751d3aae6b1794","685c720e1ed63af98e05ac2c","63052f20afc39e87110eb83e","false","false","Bicycle","https://kisumu-drawings.s3-us-west-1.amazonaws.com/27-006.png","7","Hat","27-006.png"
"","2462","image-button-response","37","null","534755","685c6ca90f751d3aae6b1794","685c720e1ed63af98e05ac2c","63052f20afc39e87110eb83e","false","false","Bird","https://kisumu-drawings.s3-us-west-1.amazonaws.com/90-010.png","0","Airplane","90-010.png"
"","13161","image-button-response","38","null","548424","685c6ca90f751d3aae6b1794","685c720e1ed63af98e05ac2c","63052f20afc39e87110eb83e","false","false","Watch","https://kisumu-drawings.s3-us-west-1.amazonaws.com/1-006.png","5","Chair","1-006.png"
"","3894","image-button-response","39","null","552827","685c6ca90f751d3aae6b1794","685c720e1ed63af98e05ac2c","63052f20afc39e87110eb83e","false","false","Rabbit","https://kisumu-drawings.s3-us-west-1.amazonaws.com/68-005.png","9","Rabbit","68-005.png"
"","1977","image-button-response","40","null","555310","685c6ca90f751d3aae6b1794","685c720e1ed63af98e05ac2c","63052f20afc39e87110eb83e","false","false","Watch","https://kisumu-drawings.s3-us-west-1.amazonaws.com/80-015.png","11","Watch","80-015.png"
"","1452","image-button-response","41","null","557272","685c6ca90f751d3aae6b1794","685c720e1ed63af98e05ac2c","63052f20afc39e87110eb83e","false","false","Cup","https://kisumu-drawings.s3-us-west-1.amazonaws.com/87-014.png","6","Cup","87-014.png"
"","6069","image-button-response","42","null","563852","685c6ca90f751d3aae6b1794","685c720e1ed63af98e05ac2c","63052f20afc39e87110eb83e","false","false","Cat","https://kisumu-drawings.s3-us-west-1.amazonaws.com/51-016.png","4","Cat","51-016.png"
"","17533","image-button-response","43","null","581893","685c6ca90f751d3aae6b1794","685c720e1ed63af98e05ac2c","63052f20afc39e87110eb83e","false","false","Bird","https://kisumu-drawings.s3-us-west-1.amazonaws.com/2-014.png","9","Rabbit","2-014.png"
"","15500","image-button-response","44","null","597908","685c6ca90f751d3aae6b1794","685c720e1ed63af98e05ac2c","63052f20afc39e87110eb83e","false","false","Bird","https://kisumu-drawings.s3-us-west-1.amazonaws.com/35-005.png","5","Chair","35-005.png"
"","4492","image-button-response","45","null","602912","685c6ca90f751d3aae6b1794","685c720e1ed63af98e05ac2c","63052f20afc39e87110eb83e","false","false","House","https://kisumu-drawings.s3-us-west-1.amazonaws.com/4-012.png","0","Airplane","4-012.png"
"","6903","image-button-response","46","null","610368","685c6ca90f751d3aae6b1794","685c720e1ed63af98e05ac2c","63052f20afc39e87110eb83e","false","false","Hat","https://kisumu-drawings.s3-us-west-1.amazonaws.com/66-016.png","7","Hat","66-016.png"
"","3687","image-button-response","47","null","614558","685c6ca90f751d3aae6b1794","685c720e1ed63af98e05ac2c","63052f20afc39e87110eb83e","false","false","Rabbit","https://kisumu-drawings.s3-us-west-1.amazonaws.com/24-011.png","4","Cat","24-011.png"
"","2458","image-button-response","48","null","617529","685c6ca90f751d3aae6b1794","685c720e1ed63af98e05ac2c","63052f20afc39e87110eb83e","false","false","Bird","https://kisumu-drawings.s3-us-west-1.amazonaws.com/50-013.png","0","Airplane","50-013.png"
"","1621","image-button-response","49","null","619662","685c6ca90f751d3aae6b1794","685c720e1ed63af98e05ac2c","63052f20afc39e87110eb83e","false","false","House","https://kisumu-drawings.s3-us-west-1.amazonaws.com/91-014.png","8","House","91-014.png"
"","1920","image-button-response","50","null","622099","685c6ca90f751d3aae6b1794","685c720e1ed63af98e05ac2c","63052f20afc39e87110eb83e","false","false","Chair","https://kisumu-drawings.s3-us-west-1.amazonaws.com/97-009.png","5","Chair","97-009.png"
"","2752","image-button-response","51","null","625361","685c6ca90f751d3aae6b1794","685c720e1ed63af98e05ac2c","63052f20afc39e87110eb83e","false","false","Bird","https://kisumu-drawings.s3-us-west-1.amazonaws.com/61-006.png","2","Bird","61-006.png"
"","4125","image-button-response","52","null","629994","685c6ca90f751d3aae6b1794","685c720e1ed63af98e05ac2c","63052f20afc39e87110eb83e","false","false","Airplane","https://kisumu-drawings.s3-us-west-1.amazonaws.com/94-011.png","0","Airplane","94-011.png"
"","1628","image-button-response","53","null","632128","685c6ca90f751d3aae6b1794","685c720e1ed63af98e05ac2c","63052f20afc39e87110eb83e","false","false","House","https://kisumu-drawings.s3-us-west-1.amazonaws.com/37-014.png","8","House","37-014.png"
"","4298","image-button-response","54","null","636944","685c6ca90f751d3aae6b1794","685c720e1ed63af98e05ac2c","63052f20afc39e87110eb83e","false","false","Bicycle","https://kisumu-drawings.s3-us-west-1.amazonaws.com/92-005.png","3","Car","92-005.png"
"","3853","image-button-response","55","null","641310","685c6ca90f751d3aae6b1794","685c720e1ed63af98e05ac2c","63052f20afc39e87110eb83e","false","false","Hat","https://kisumu-drawings.s3-us-west-1.amazonaws.com/42-012.png","6","Cup","42-012.png"
"","7261","image-button-response","56","null","649082","685c6ca90f751d3aae6b1794","685c720e1ed63af98e05ac2c","63052f20afc39e87110eb83e","false","false","Airplane","https://kisumu-drawings.s3-us-west-1.amazonaws.com/75-010.png","0","Airplane","75-010.png"
"","2595","image-button-response","57","null","652194","685c6ca90f751d3aae6b1794","685c720e1ed63af98e05ac2c","63052f20afc39e87110eb83e","false","false","Hat","https://kisumu-drawings.s3-us-west-1.amazonaws.com/82-011.png","7","Hat","82-011.png"
"","1927","image-button-response","58","null","654642","685c6ca90f751d3aae6b1794","685c720e1ed63af98e05ac2c","63052f20afc39e87110eb83e","false","false","Chair","https://kisumu-drawings.s3-us-west-1.amazonaws.com/74-005.png","5","Chair","74-005.png"
"","1684","image-button-response","59","null","656839","685c6ca90f751d3aae6b1794","685c720e1ed63af98e05ac2c","63052f20afc39e87110eb83e","false","false","Cat","https://kisumu-drawings.s3-us-west-1.amazonaws.com/114-013.png","4","Cat","114-013.png"
"","1488","image-button-response","60","null","658838","685c6ca90f751d3aae6b1794","685c720e1ed63af98e05ac2c","63052f20afc39e87110eb83e","false","false","Tree","https://kisumu-drawings.s3-us-west-1.amazonaws.com/101-007.png","10","Tree","101-007.png"
"","1650","image-button-response","61","null","661002","685c6ca90f751d3aae6b1794","685c720e1ed63af98e05ac2c","63052f20afc39e87110eb83e","false","false","Airplane","https://kisumu-drawings.s3-us-west-1.amazonaws.com/118-010.png","0","Airplane","118-010.png"
"","2193","image-button-response","62","null","663707","685c6ca90f751d3aae6b1794","685c720e1ed63af98e05ac2c","63052f20afc39e87110eb83e","false","false","Airplane","https://kisumu-drawings.s3-us-west-1.amazonaws.com/21-012.png","0","Airplane","21-012.png"
"","2560","image-button-response","63","null","666789","685c6ca90f751d3aae6b1794","685c720e1ed63af98e05ac2c","63052f20afc39e87110eb83e","false","false","Chair","https://kisumu-drawings.s3-us-west-1.amazonaws.com/43-011.png","5","Chair","43-011.png"
"","10875","image-button-response","64","null","678170","685c6ca90f751d3aae6b1794","685c720e1ed63af98e05ac2c","63052f20afc39e87110eb83e","false","false","Car","https://kisumu-drawings.s3-us-west-1.amazonaws.com/9-010.png","6","Cup","9-010.png"
"","5168","image-button-response","65","null","683849","685c6ca90f751d3aae6b1794","685c720e1ed63af98e05ac2c","63052f20afc39e87110eb83e","false","false","Rabbit","https://kisumu-drawings.s3-us-west-1.amazonaws.com/106-014.png","9","Rabbit","106-014.png"
"","1832","image-button-response","66","null","686211","685c6ca90f751d3aae6b1794","685c720e1ed63af98e05ac2c","63052f20afc39e87110eb83e","false","false","Cup","https://kisumu-drawings.s3-us-west-1.amazonaws.com/115-007.png","6","Cup","115-007.png"
"","2023","image-button-response","67","null","688742","685c6ca90f751d3aae6b1794","685c720e1ed63af98e05ac2c","63052f20afc39e87110eb83e","false","false","Bicycle","https://kisumu-drawings.s3-us-west-1.amazonaws.com/69-014.png","3","Car","69-014.png"
"","4449","image-button-response","68","null","693701","685c6ca90f751d3aae6b1794","685c720e1ed63af98e05ac2c","63052f20afc39e87110eb83e","false","false","Tree","https://kisumu-drawings.s3-us-west-1.amazonaws.com/66-005.png","10","Tree","66-005.png"
"","1516","image-button-response","69","null","695732","685c6ca90f751d3aae6b1794","685c720e1ed63af98e05ac2c","63052f20afc39e87110eb83e","false","false","Chair","https://kisumu-drawings.s3-us-west-1.amazonaws.com/104-009.png","5","Chair","104-009.png"
"","1754","image-button-response","70","null","697992","685c6ca90f751d3aae6b1794","685c720e1ed63af98e05ac2c","63052f20afc39e87110eb83e","false","false","Cup","https://kisumu-drawings.s3-us-west-1.amazonaws.com/61-016.png","6","Cup","61-016.png"
"","8981","image-button-response","71","null","707484","685c6ca90f751d3aae6b1794","685c720e1ed63af98e05ac2c","63052f20afc39e87110eb83e","false","false","Car","https://kisumu-drawings.s3-us-west-1.amazonaws.com/48-005.png","1","Bicycle","48-005.png"
"","20088","image-button-response","72","null","728091","685c6ca90f751d3aae6b1794","685c720e1ed63af98e05ac2c","63052f20afc39e87110eb83e","false","false","Watch","https://kisumu-drawings.s3-us-west-1.amazonaws.com/87-010.png","11","Watch","87-010.png"
"","2264","image-button-response","73","null","730878","685c6ca90f751d3aae6b1794","685c720e1ed63af98e05ac2c","63052f20afc39e87110eb83e","false","false","Chair","https://kisumu-drawings.s3-us-west-1.amazonaws.com/40-008.png","5","Chair","40-008.png"
"","1852","image-button-response","74","null","733243","685c6ca90f751d3aae6b1794","685c720e1ed63af98e05ac2c","63052f20afc39e87110eb83e","false","false","Tree","https://kisumu-drawings.s3-us-west-1.amazonaws.com/90-006.png","10","Tree","90-006.png"
"","30917","image-button-response","75","null","764669","685c6ca90f751d3aae6b1794","685c720e1ed63af98e05ac2c","63052f20afc39e87110eb83e","false","false","Hat","https://kisumu-drawings.s3-us-west-1.amazonaws.com/19-005.png","11","Watch","19-005.png"
