"view_history","rt","trial_type","trial_index","plugin_version","time_elapsed","study_id","session_id","participant_id","catch_trial","prep_trial","sketcher_category","stimulus","response","response_category","sketch_id"
"[{""page_index"":0,""viewing_time"":8407},{""page_index"":1,""viewing_time"":1849},{""page_index"":2,""viewing_time"":2450},{""page_index"":3,""viewing_time"":4519}]","17225","instructions","0","null","17262","685c6ca90f751d3aae6b1794","685c6e7eb9230a2b8761dbcb","632d68dde8d04677f58d963c","","","","","","",""
"","3315","image-button-response","1","null","21594","685c6ca90f751d3aae6b1794","685c6e7eb9230a2b8761dbcb","632d68dde8d04677f58d963c","false","true","car","stimuli/prep_trials/1_car_prep.png","3","Car",""
"","1551","image-button-response","2","null","23661","685c6ca90f751d3aae6b1794","685c6e7eb9230a2b8761dbcb","632d68dde8d04677f58d963c","false","true","cat","stimuli/prep_trials/0_cat_prep.jpg","4","Cat",""
"","8783","image-button-response","3","null","32954","685c6ca90f751d3aae6b1794","685c6e7eb9230a2b8761dbcb","632d68dde8d04677f58d963c","false","false","Watch","https://kisumu-drawings.s3-us-west-1.amazonaws.com/71-015.png","11","Watch","71-015.png"
"","6520","image-button-response","4","null","39976","685c6ca90f751d3aae6b1794","685c6e7eb9230a2b8761dbcb","632d68dde8d04677f58d963c","false","false","Airplane","https://kisumu-drawings.s3-us-west-1.amazonaws.com/43-005.png","0","Airplane","43-005.png"
"","6184","image-button-response","5","null","46674","685c6ca90f751d3aae6b1794","685c6e7eb9230a2b8761dbcb","632d68dde8d04677f58d963c","false","false","Cat","https://kisumu-drawings.s3-us-west-1.amazonaws.com/41-011.png","4","Cat","41-011.png"
"","3617","image-button-response","6","null","50795","685c6ca90f751d3aae6b1794","685c6e7eb9230a2b8761dbcb","632d68dde8d04677f58d963c","false","false","Chair","https://kisumu-drawings.s3-us-west-1.amazonaws.com/31-010.png","5","Chair","31-010.png"
"","3875","image-button-response","7","null","55173","685c6ca90f751d3aae6b1794","685c6e7eb9230a2b8761dbcb","632d68dde8d04677f58d963c","false","false","Watch","https://kisumu-drawings.s3-us-west-1.amazonaws.com/97-010.png","11","Watch","97-010.png"
"","15390","image-button-response","8","null","71065","685c6ca90f751d3aae6b1794","685c6e7eb9230a2b8761dbcb","632d68dde8d04677f58d963c","false","false","Car","https://kisumu-drawings.s3-us-west-1.amazonaws.com/33-009.png","4","Cat","33-009.png"
"","9647","image-button-response","9","null","81222","685c6ca90f751d3aae6b1794","685c6e7eb9230a2b8761dbcb","632d68dde8d04677f58d963c","false","false","Hat","https://kisumu-drawings.s3-us-west-1.amazonaws.com/72-011.png","8","House","72-011.png"
"","2857","image-button-response","10","null","84596","685c6ca90f751d3aae6b1794","685c6e7eb9230a2b8761dbcb","632d68dde8d04677f58d963c","false","false","House","https://kisumu-drawings.s3-us-west-1.amazonaws.com/112-007.png","8","House","112-007.png"
"","2964","image-button-response","11","null","88072","685c6ca90f751d3aae6b1794","685c6e7eb9230a2b8761dbcb","632d68dde8d04677f58d963c","false","false","Cup","https://kisumu-drawings.s3-us-west-1.amazonaws.com/112-009.png","6","Cup","112-009.png"
"","2634","image-button-response","12","null","91210","685c6ca90f751d3aae6b1794","685c6e7eb9230a2b8761dbcb","632d68dde8d04677f58d963c","false","false","Chair","https://kisumu-drawings.s3-us-west-1.amazonaws.com/73-010.png","5","Chair","73-010.png"
"","5157","image-button-response","13","null","96868","685c6ca90f751d3aae6b1794","685c6e7eb9230a2b8761dbcb","632d68dde8d04677f58d963c","false","false","Airplane","https://kisumu-drawings.s3-us-west-1.amazonaws.com/35-006.png","0","Airplane","35-006.png"
"","3346","image-button-response","14","null","100728","685c6ca90f751d3aae6b1794","685c6e7eb9230a2b8761dbcb","632d68dde8d04677f58d963c","false","false","Bird","https://kisumu-drawings.s3-us-west-1.amazonaws.com/114-015.png","2","Bird","114-015.png"
"","5096","image-button-response","15","null","106341","685c6ca90f751d3aae6b1794","685c6e7eb9230a2b8761dbcb","632d68dde8d04677f58d963c","false","false","Bird","https://kisumu-drawings.s3-us-west-1.amazonaws.com/74-006.png","9","Rabbit","74-006.png"
"","12067","image-button-response","16","null","118920","685c6ca90f751d3aae6b1794","685c6e7eb9230a2b8761dbcb","632d68dde8d04677f58d963c","false","false","Cat","https://kisumu-drawings.s3-us-west-1.amazonaws.com/13-013.png","2","Bird","13-013.png"
"","8644","image-button-response","17","null","128076","685c6ca90f751d3aae6b1794","685c6e7eb9230a2b8761dbcb","632d68dde8d04677f58d963c","false","false","Cat","https://kisumu-drawings.s3-us-west-1.amazonaws.com/113-006.png","4","Cat","113-006.png"
"","12325","image-button-response","18","null","140905","685c6ca90f751d3aae6b1794","685c6e7eb9230a2b8761dbcb","632d68dde8d04677f58d963c","false","false","Rabbit","https://kisumu-drawings.s3-us-west-1.amazonaws.com/112-006.png","4","Cat","112-006.png"
"","5024","image-button-response","19","null","146432","685c6ca90f751d3aae6b1794","685c6e7eb9230a2b8761dbcb","632d68dde8d04677f58d963c","false","false","House","https://kisumu-drawings.s3-us-west-1.amazonaws.com/72-012.png","8","House","72-012.png"
"","15851","image-button-response","20","null","162799","685c6ca90f751d3aae6b1794","685c6e7eb9230a2b8761dbcb","632d68dde8d04677f58d963c","false","false","Hat","https://kisumu-drawings.s3-us-west-1.amazonaws.com/11-005.png","6","Cup","11-005.png"
"","18490","image-button-response","21","null","181790","685c6ca90f751d3aae6b1794","685c6e7eb9230a2b8761dbcb","632d68dde8d04677f58d963c","false","false","Bird","https://kisumu-drawings.s3-us-west-1.amazonaws.com/33-007.png","1","Bicycle","33-007.png"
"","6321","image-button-response","22","null","188612","685c6ca90f751d3aae6b1794","685c6e7eb9230a2b8761dbcb","632d68dde8d04677f58d963c","false","false","Watch","https://kisumu-drawings.s3-us-west-1.amazonaws.com/11-016.png","0","Airplane","11-016.png"
"","2857","image-button-response","23","null","191982","685c6ca90f751d3aae6b1794","685c6e7eb9230a2b8761dbcb","632d68dde8d04677f58d963c","false","false","Bicycle","https://kisumu-drawings.s3-us-west-1.amazonaws.com/114-014.png","1","Bicycle","114-014.png"
"","2194","image-button-response","24","null","194689","685c6ca90f751d3aae6b1794","685c6e7eb9230a2b8761dbcb","632d68dde8d04677f58d963c","false","false","Chair","https://kisumu-drawings.s3-us-west-1.amazonaws.com/99-012.png","5","Chair","99-012.png"
"","1912","image-button-response","25","null","197109","685c6ca90f751d3aae6b1794","685c6e7eb9230a2b8761dbcb","632d68dde8d04677f58d963c","false","false","Cup","https://kisumu-drawings.s3-us-west-1.amazonaws.com/98-015.png","6","Cup","98-015.png"
"","7562","image-button-response","26","null","205186","685c6ca90f751d3aae6b1794","685c6e7eb9230a2b8761dbcb","632d68dde8d04677f58d963c","false","false","Rabbit","https://kisumu-drawings.s3-us-west-1.amazonaws.com/55-008.png","5","Chair","55-008.png"
"","5793","image-button-response","27","null","211482","685c6ca90f751d3aae6b1794","685c6e7eb9230a2b8761dbcb","632d68dde8d04677f58d963c","false","false","Tree","https://kisumu-drawings.s3-us-west-1.amazonaws.com/11-007.png","11","Watch","11-007.png"
"","5222","image-button-response","28","null","217205","685c6ca90f751d3aae6b1794","685c6e7eb9230a2b8761dbcb","632d68dde8d04677f58d963c","false","false","Bicycle","https://kisumu-drawings.s3-us-west-1.amazonaws.com/33-006.png","11","Watch","33-006.png"
"","4559","image-button-response","29","null","222267","685c6ca90f751d3aae6b1794","685c6e7eb9230a2b8761dbcb","632d68dde8d04677f58d963c","false","false","House","https://kisumu-drawings.s3-us-west-1.amazonaws.com/31-013.png","2","Bird","31-013.png"
"","4893","image-button-response","30","null","227668","685c6ca90f751d3aae6b1794","685c6e7eb9230a2b8761dbcb","632d68dde8d04677f58d963c","false","false","Rabbit","https://kisumu-drawings.s3-us-west-1.amazonaws.com/98-007.png","9","Rabbit","98-007.png"
"","2675","image-button-response","31","null","230844","685c6ca90f751d3aae6b1794","685c6e7eb9230a2b8761dbcb","632d68dde8d04677f58d963c","false","false","Bicycle","https://kisumu-drawings.s3-us-west-1.amazonaws.com/42-009.png","1","Bicycle","42-009.png"
"","2809","image-button-response","32","null","234157","685c6ca90f751d3aae6b1794","685c6e7eb9230a2b8761dbcb","632d68dde8d04677f58d963c","false","false","Car","https://kisumu-drawings.s3-us-west-1.amazonaws.com/12-010.png","3","Car","12-010.png"
"","6415","image-button-response","33","null","241086","685c6ca90f751d3aae6b1794","685c6e7eb9230a2b8761dbcb","632d68dde8d04677f58d963c","false","false","Airplane","https://kisumu-drawings.s3-us-west-1.amazonaws.com/14-012.png","11","Watch","14-012.png"
"","5140","image-button-response","34","null","246727","685c6ca90f751d3aae6b1794","685c6e7eb9230a2b8761dbcb","632d68dde8d04677f58d963c","false","false","Hat","https://kisumu-drawings.s3-us-west-1.amazonaws.com/55-005.png","5","Chair","55-005.png"
"","2551","image-button-response","35","null","249780","685c6ca90f751d3aae6b1794","685c6e7eb9230a2b8761dbcb","632d68dde8d04677f58d963c","false","false","Cat","https://kisumu-drawings.s3-us-west-1.amazonaws.com/73-009.png","4","Cat","73-009.png"
"","6854","image-button-response","36","null","257142","685c6ca90f751d3aae6b1794","685c6e7eb9230a2b8761dbcb","632d68dde8d04677f58d963c","false","false","Bicycle","https://kisumu-drawings.s3-us-west-1.amazonaws.com/14-011.png","7","Hat","14-011.png"
"","7250","image-button-response","37","null","264900","685c6ca90f751d3aae6b1794","685c6e7eb9230a2b8761dbcb","632d68dde8d04677f58d963c","false","false","Tree","https://kisumu-drawings.s3-us-west-1.amazonaws.com/31-015.png","11","Watch","31-015.png"
"","3095","image-button-response","38","null","268499","685c6ca90f751d3aae6b1794","685c6e7eb9230a2b8761dbcb","632d68dde8d04677f58d963c","false","false","Airplane","https://kisumu-drawings.s3-us-west-1.amazonaws.com/81-014.png","0","Airplane","81-014.png"
"","2784","image-button-response","39","null","271790","685c6ca90f751d3aae6b1794","685c6e7eb9230a2b8761dbcb","632d68dde8d04677f58d963c","false","false","Cat","https://kisumu-drawings.s3-us-west-1.amazonaws.com/32-014.png","4","Cat","32-014.png"
"","3441","image-button-response","40","null","275735","685c6ca90f751d3aae6b1794","685c6e7eb9230a2b8761dbcb","632d68dde8d04677f58d963c","false","false","Bicycle","https://kisumu-drawings.s3-us-west-1.amazonaws.com/75-011.png","2","Bird","75-011.png"
"","8086","image-button-response","41","null","284327","685c6ca90f751d3aae6b1794","685c6e7eb9230a2b8761dbcb","632d68dde8d04677f58d963c","false","false","Car","https://kisumu-drawings.s3-us-west-1.amazonaws.com/74-016.png","5","Chair","74-016.png"
"","5860","image-button-response","42","null","290688","685c6ca90f751d3aae6b1794","685c6e7eb9230a2b8761dbcb","632d68dde8d04677f58d963c","false","false","Airplane","https://kisumu-drawings.s3-us-west-1.amazonaws.com/75-010.png","0","Airplane","75-010.png"
"","4854","image-button-response","43","null","296045","685c6ca90f751d3aae6b1794","685c6e7eb9230a2b8761dbcb","632d68dde8d04677f58d963c","false","false","Watch","https://kisumu-drawings.s3-us-west-1.amazonaws.com/55-010.png","2","Bird","55-010.png"
"","7389","image-button-response","44","null","303935","685c6ca90f751d3aae6b1794","685c6e7eb9230a2b8761dbcb","632d68dde8d04677f58d963c","false","false","Hat","https://kisumu-drawings.s3-us-west-1.amazonaws.com/31-012.png","6","Cup","31-012.png"
"","7410","image-button-response","45","null","311860","685c6ca90f751d3aae6b1794","685c6e7eb9230a2b8761dbcb","632d68dde8d04677f58d963c","false","false","House","https://kisumu-drawings.s3-us-west-1.amazonaws.com/11-015.png","9","Rabbit","11-015.png"
"","5019","image-button-response","46","null","317380","685c6ca90f751d3aae6b1794","685c6e7eb9230a2b8761dbcb","632d68dde8d04677f58d963c","false","false","Bird","https://kisumu-drawings.s3-us-west-1.amazonaws.com/13-009.png","2","Bird","13-009.png"
"","8750","image-button-response","47","null","326637","685c6ca90f751d3aae6b1794","685c6e7eb9230a2b8761dbcb","632d68dde8d04677f58d963c","false","false","Watch","https://kisumu-drawings.s3-us-west-1.amazonaws.com/31-016.png","11","Watch","31-016.png"
"","3571","image-button-response","48","null","330710","685c6ca90f751d3aae6b1794","685c6e7eb9230a2b8761dbcb","632d68dde8d04677f58d963c","false","false","Bird","https://kisumu-drawings.s3-us-west-1.amazonaws.com/42-005.png","0","Airplane","42-005.png"
"","4836","image-button-response","49","null","336047","685c6ca90f751d3aae6b1794","685c6e7eb9230a2b8761dbcb","632d68dde8d04677f58d963c","false","false","Cup","https://kisumu-drawings.s3-us-west-1.amazonaws.com/11-014.png","10","Tree","11-014.png"
"","2308","image-button-response","50","null","338860","685c6ca90f751d3aae6b1794","685c6e7eb9230a2b8761dbcb","632d68dde8d04677f58d963c","false","false","Chair","https://kisumu-drawings.s3-us-west-1.amazonaws.com/113-012.png","5","Chair","113-012.png"
"","1977","image-button-response","51","null","341345","685c6ca90f751d3aae6b1794","685c6e7eb9230a2b8761dbcb","632d68dde8d04677f58d963c","false","false","Cup","https://kisumu-drawings.s3-us-west-1.amazonaws.com/72-010.png","6","Cup","72-010.png"
"","2731","image-button-response","52","null","344577","685c6ca90f751d3aae6b1794","685c6e7eb9230a2b8761dbcb","632d68dde8d04677f58d963c","false","false","Hat","https://kisumu-drawings.s3-us-west-1.amazonaws.com/98-012.png","6","Cup","98-012.png"
"","2048","image-button-response","53","null","347133","685c6ca90f751d3aae6b1794","685c6e7eb9230a2b8761dbcb","632d68dde8d04677f58d963c","false","false","House","https://kisumu-drawings.s3-us-west-1.amazonaws.com/98-005.png","8","House","98-005.png"
"","5068","image-button-response","54","null","352706","685c6ca90f751d3aae6b1794","685c6e7eb9230a2b8761dbcb","632d68dde8d04677f58d963c","false","false","Tree","https://kisumu-drawings.s3-us-west-1.amazonaws.com/98-010.png","2","Bird","98-010.png"
"","2099","image-button-response","55","null","355306","685c6ca90f751d3aae6b1794","685c6e7eb9230a2b8761dbcb","632d68dde8d04677f58d963c","false","false","Tree","https://kisumu-drawings.s3-us-west-1.amazonaws.com/72-006.png","10","Tree","72-006.png"
"","2291","image-button-response","56","null","358104","685c6ca90f751d3aae6b1794","685c6e7eb9230a2b8761dbcb","632d68dde8d04677f58d963c","false","false","Hat","https://kisumu-drawings.s3-us-west-1.amazonaws.com/112-014.png","7","Hat","112-014.png"
"","4073","image-button-response","57","null","362688","685c6ca90f751d3aae6b1794","685c6e7eb9230a2b8761dbcb","632d68dde8d04677f58d963c","false","false","Cup","https://kisumu-drawings.s3-us-west-1.amazonaws.com/31-011.png","6","Cup","31-011.png"
"","1992","image-button-response","58","null","365182","685c6ca90f751d3aae6b1794","685c6e7eb9230a2b8761dbcb","632d68dde8d04677f58d963c","true","false","airplane","stimuli/catch_trials/0_airplane_catch.jpg","0","Airplane",""
"","2615","image-button-response","59","null","368309","685c6ca90f751d3aae6b1794","685c6e7eb9230a2b8761dbcb","632d68dde8d04677f58d963c","false","false","House","https://kisumu-drawings.s3-us-west-1.amazonaws.com/55-016.png","8","House","55-016.png"
"","1701","image-button-response","60","null","370522","685c6ca90f751d3aae6b1794","685c6e7eb9230a2b8761dbcb","632d68dde8d04677f58d963c","false","false","Watch","https://kisumu-drawings.s3-us-west-1.amazonaws.com/111-015.png","11","Watch","111-015.png"
"","1491","image-button-response","61","null","372518","685c6ca90f751d3aae6b1794","685c6e7eb9230a2b8761dbcb","632d68dde8d04677f58d963c","false","false","Tree","https://kisumu-drawings.s3-us-west-1.amazonaws.com/55-009.png","10","Tree","55-009.png"
"","2429","image-button-response","62","null","375463","685c6ca90f751d3aae6b1794","685c6e7eb9230a2b8761dbcb","632d68dde8d04677f58d963c","false","false","Car","https://kisumu-drawings.s3-us-west-1.amazonaws.com/113-015.png","3","Car","113-015.png"
"","2823","image-button-response","63","null","378798","685c6ca90f751d3aae6b1794","685c6e7eb9230a2b8761dbcb","632d68dde8d04677f58d963c","false","false","Car","https://kisumu-drawings.s3-us-west-1.amazonaws.com/100-012.png","3","Car","100-012.png"
"","2511","image-button-response","64","null","381819","685c6ca90f751d3aae6b1794","685c6e7eb9230a2b8761dbcb","632d68dde8d04677f58d963c","false","false","Cat","https://kisumu-drawings.s3-us-west-1.amazonaws.com/98-009.png","4","Cat","98-009.png"
"","6603","image-button-response","65","null","388931","685c6ca90f751d3aae6b1794","685c6e7eb9230a2b8761dbcb","632d68dde8d04677f58d963c","false","false","Bicycle","https://kisumu-drawings.s3-us-west-1.amazonaws.com/100-010.png","3","Car","100-010.png"
"","3898","image-button-response","66","null","393332","685c6ca90f751d3aae6b1794","685c6e7eb9230a2b8761dbcb","632d68dde8d04677f58d963c","false","false","Rabbit","https://kisumu-drawings.s3-us-west-1.amazonaws.com/72-009.png","3","Car","72-009.png"
"","3982","image-button-response","67","null","397821","685c6ca90f751d3aae6b1794","685c6e7eb9230a2b8761dbcb","632d68dde8d04677f58d963c","false","false","Airplane","https://kisumu-drawings.s3-us-west-1.amazonaws.com/114-011.png","0","Airplane","114-011.png"
"","3852","image-button-response","68","null","402178","685c6ca90f751d3aae6b1794","685c6e7eb9230a2b8761dbcb","632d68dde8d04677f58d963c","false","false","Chair","https://kisumu-drawings.s3-us-west-1.amazonaws.com/55-013.png","8","House","55-013.png"
"","2973","image-button-response","69","null","405653","685c6ca90f751d3aae6b1794","685c6e7eb9230a2b8761dbcb","632d68dde8d04677f58d963c","false","false","Bird","https://kisumu-drawings.s3-us-west-1.amazonaws.com/100-015.png","4","Cat","100-015.png"
"","9767","image-button-response","70","null","415931","685c6ca90f751d3aae6b1794","685c6e7eb9230a2b8761dbcb","632d68dde8d04677f58d963c","false","false","Tree","https://kisumu-drawings.s3-us-west-1.amazonaws.com/112-005.png","2","Bird","112-005.png"
"","2716","image-button-response","71","null","419149","685c6ca90f751d3aae6b1794","685c6e7eb9230a2b8761dbcb","632d68dde8d04677f58d963c","false","false","Chair","https://kisumu-drawings.s3-us-west-1.amazonaws.com/12-012.png","5","Chair","12-012.png"
"","5086","image-button-response","72","null","424748","685c6ca90f751d3aae6b1794","685c6e7eb9230a2b8761dbcb","632d68dde8d04677f58d963c","false","false","Rabbit","https://kisumu-drawings.s3-us-west-1.amazonaws.com/31-014.png","7","Hat","31-014.png"
"","2425","image-button-response","73","null","427674","685c6ca90f751d3aae6b1794","685c6e7eb9230a2b8761dbcb","632d68dde8d04677f58d963c","false","false","Rabbit","https://kisumu-drawings.s3-us-west-1.amazonaws.com/11-006.png","10","Tree","11-006.png"
"","1438","image-button-response","74","null","429616","685c6ca90f751d3aae6b1794","685c6e7eb9230a2b8761dbcb","632d68dde8d04677f58d963c","false","false","Cup","https://kisumu-drawings.s3-us-west-1.amazonaws.com/55-015.png","6","Cup","55-015.png"
"","1502","image-button-response","75","null","431623","685c6ca90f751d3aae6b1794","685c6e7eb9230a2b8761dbcb","632d68dde8d04677f58d963c","false","false","Car","https://kisumu-drawings.s3-us-west-1.amazonaws.com/41-010.png","3","Car","41-010.png"
