"view_history","rt","trial_type","trial_index","plugin_version","time_elapsed","study_id","session_id","participant_id","catch_trial","prep_trial","sketcher_category","stimulus","response","response_category","sketch_id"
"[{""page_index"":0,""viewing_time"":5411},{""page_index"":1,""viewing_time"":2396},{""page_index"":2,""viewing_time"":2308},{""page_index"":3,""viewing_time"":4428}]","14542","instructions","0","null","14549","685c6ca90f751d3aae6b1794","685c6e136ff56d5e822b6abf","6405feae7d6321bfaaf793e8","","","","","","",""
"","1964","image-button-response","1","null","17519","685c6ca90f751d3aae6b1794","685c6e136ff56d5e822b6abf","6405feae7d6321bfaaf793e8","false","true","car","stimuli/prep_trials/1_car_prep.png","3","Car",""
"","2822","image-button-response","2","null","20851","685c6ca90f751d3aae6b1794","685c6e136ff56d5e822b6abf","6405feae7d6321bfaaf793e8","false","true","cat","stimuli/prep_trials/0_cat_prep.jpg","4","Cat",""
"","3123","image-button-response","3","null","24488","685c6ca90f751d3aae6b1794","685c6e136ff56d5e822b6abf","6405feae7d6321bfaaf793e8","false","false","Watch","https://kisumu-drawings.s3-us-west-1.amazonaws.com/106-006.png","11","Watch","106-006.png"
"","5745","image-button-response","4","null","30741","685c6ca90f751d3aae6b1794","685c6e136ff56d5e822b6abf","6405feae7d6321bfaaf793e8","false","false","House","https://kisumu-drawings.s3-us-west-1.amazonaws.com/5-013.png","4","Cat","5-013.png"
"","2809","image-button-response","5","null","34053","685c6ca90f751d3aae6b1794","685c6e136ff56d5e822b6abf","6405feae7d6321bfaaf793e8","false","false","Cat","https://kisumu-drawings.s3-us-west-1.amazonaws.com/106-005.png","4","Cat","106-005.png"
"","8082","image-button-response","6","null","42643","685c6ca90f751d3aae6b1794","685c6e136ff56d5e822b6abf","6405feae7d6321bfaaf793e8","false","false","Watch","https://kisumu-drawings.s3-us-west-1.amazonaws.com/25-015.png","2","Bird","25-015.png"
"","2295","image-button-response","7","null","45441","685c6ca90f751d3aae6b1794","685c6e136ff56d5e822b6abf","6405feae7d6321bfaaf793e8","false","false","Car","https://kisumu-drawings.s3-us-west-1.amazonaws.com/67-005.png","3","Car","67-005.png"
"","2850","image-button-response","8","null","48797","685c6ca90f751d3aae6b1794","685c6e136ff56d5e822b6abf","6405feae7d6321bfaaf793e8","false","false","Airplane","https://kisumu-drawings.s3-us-west-1.amazonaws.com/105-009.png","0","Airplane","105-009.png"
"","5619","image-button-response","9","null","54918","685c6ca90f751d3aae6b1794","685c6e136ff56d5e822b6abf","6405feae7d6321bfaaf793e8","false","false","Chair","https://kisumu-drawings.s3-us-west-1.amazonaws.com/92-009.png","5","Chair","92-009.png"
"","1833","image-button-response","10","null","57263","685c6ca90f751d3aae6b1794","685c6e136ff56d5e822b6abf","6405feae7d6321bfaaf793e8","true","false","airplane","stimuli/catch_trials/0_airplane_catch.jpg","0","Airplane",""
"","2650","image-button-response","11","null","60431","685c6ca90f751d3aae6b1794","685c6e136ff56d5e822b6abf","6405feae7d6321bfaaf793e8","false","false","Rabbit","https://kisumu-drawings.s3-us-west-1.amazonaws.com/60-008.png","2","Bird","60-008.png"
"","13596","image-button-response","12","null","74531","685c6ca90f751d3aae6b1794","685c6e136ff56d5e822b6abf","6405feae7d6321bfaaf793e8","false","false","Rabbit","https://kisumu-drawings.s3-us-west-1.amazonaws.com/91-005.png","9","Rabbit","91-005.png"
"","10981","image-button-response","13","null","86030","685c6ca90f751d3aae6b1794","685c6e136ff56d5e822b6abf","6405feae7d6321bfaaf793e8","false","false","Hat","https://kisumu-drawings.s3-us-west-1.amazonaws.com/34-007.png","7","Hat","34-007.png"
"","3458","image-button-response","14","null","89990","685c6ca90f751d3aae6b1794","685c6e136ff56d5e822b6abf","6405feae7d6321bfaaf793e8","false","false","Cat","https://kisumu-drawings.s3-us-west-1.amazonaws.com/92-014.png","4","Cat","92-014.png"
"","6681","image-button-response","15","null","97174","685c6ca90f751d3aae6b1794","685c6e136ff56d5e822b6abf","6405feae7d6321bfaaf793e8","false","false","Airplane","https://kisumu-drawings.s3-us-west-1.amazonaws.com/34-011.png","0","Airplane","34-011.png"
"","4267","image-button-response","16","null","101942","685c6ca90f751d3aae6b1794","685c6e136ff56d5e822b6abf","6405feae7d6321bfaaf793e8","false","false","Airplane","https://kisumu-drawings.s3-us-west-1.amazonaws.com/4-006.png","2","Bird","4-006.png"
"","2663","image-button-response","17","null","105107","685c6ca90f751d3aae6b1794","685c6e136ff56d5e822b6abf","6405feae7d6321bfaaf793e8","false","false","Watch","https://kisumu-drawings.s3-us-west-1.amazonaws.com/92-008.png","11","Watch","92-008.png"
"","2636","image-button-response","18","null","108257","685c6ca90f751d3aae6b1794","685c6e136ff56d5e822b6abf","6405feae7d6321bfaaf793e8","false","false","Bicycle","https://kisumu-drawings.s3-us-west-1.amazonaws.com/60-015.png","1","Bicycle","60-015.png"
"","8063","image-button-response","19","null","116834","685c6ca90f751d3aae6b1794","685c6e136ff56d5e822b6abf","6405feae7d6321bfaaf793e8","false","false","Chair","https://kisumu-drawings.s3-us-west-1.amazonaws.com/25-009.png","8","House","25-009.png"
"","2894","image-button-response","20","null","120231","685c6ca90f751d3aae6b1794","685c6e136ff56d5e822b6abf","6405feae7d6321bfaaf793e8","false","false","Tree","https://kisumu-drawings.s3-us-west-1.amazonaws.com/67-008.png","10","Tree","67-008.png"
"","3167","image-button-response","21","null","123906","685c6ca90f751d3aae6b1794","685c6e136ff56d5e822b6abf","6405feae7d6321bfaaf793e8","false","false","Cat","https://kisumu-drawings.s3-us-west-1.amazonaws.com/67-013.png","4","Cat","67-013.png"
"","2567","image-button-response","22","null","126976","685c6ca90f751d3aae6b1794","685c6e136ff56d5e822b6abf","6405feae7d6321bfaaf793e8","false","false","Bicycle","https://kisumu-drawings.s3-us-west-1.amazonaws.com/66-012.png","0","Airplane","66-012.png"
"","1851","image-button-response","23","null","129342","685c6ca90f751d3aae6b1794","685c6e136ff56d5e822b6abf","6405feae7d6321bfaaf793e8","false","false","House","https://kisumu-drawings.s3-us-west-1.amazonaws.com/106-013.png","8","House","106-013.png"
"","8597","image-button-response","24","null","138448","685c6ca90f751d3aae6b1794","685c6e136ff56d5e822b6abf","6405feae7d6321bfaaf793e8","false","false","Chair","https://kisumu-drawings.s3-us-west-1.amazonaws.com/5-014.png","5","Chair","5-014.png"
"","2444","image-button-response","25","null","141394","685c6ca90f751d3aae6b1794","685c6e136ff56d5e822b6abf","6405feae7d6321bfaaf793e8","false","false","Hat","https://kisumu-drawings.s3-us-west-1.amazonaws.com/67-012.png","7","Hat","67-012.png"
"","1943","image-button-response","26","null","143840","685c6ca90f751d3aae6b1794","685c6e136ff56d5e822b6abf","6405feae7d6321bfaaf793e8","false","false","Airplane","https://kisumu-drawings.s3-us-west-1.amazonaws.com/59-011.png","0","Airplane","59-011.png"
"","3539","image-button-response","27","null","147897","685c6ca90f751d3aae6b1794","685c6e136ff56d5e822b6abf","6405feae7d6321bfaaf793e8","false","false","Cat","https://kisumu-drawings.s3-us-west-1.amazonaws.com/59-008.png","4","Cat","59-008.png"
"","9661","image-button-response","28","null","158059","685c6ca90f751d3aae6b1794","685c6e136ff56d5e822b6abf","6405feae7d6321bfaaf793e8","false","false","Tree","https://kisumu-drawings.s3-us-west-1.amazonaws.com/92-015.png","10","Tree","92-015.png"
"","2557","image-button-response","29","null","161118","685c6ca90f751d3aae6b1794","685c6e136ff56d5e822b6abf","6405feae7d6321bfaaf793e8","false","false","Watch","https://kisumu-drawings.s3-us-west-1.amazonaws.com/60-010.png","11","Watch","60-010.png"
"","2491","image-button-response","30","null","164114","685c6ca90f751d3aae6b1794","685c6e136ff56d5e822b6abf","6405feae7d6321bfaaf793e8","false","false","Rabbit","https://kisumu-drawings.s3-us-west-1.amazonaws.com/67-007.png","9","Rabbit","67-007.png"
"","12411","image-button-response","31","null","177036","685c6ca90f751d3aae6b1794","685c6e136ff56d5e822b6abf","6405feae7d6321bfaaf793e8","false","false","Airplane","https://kisumu-drawings.s3-us-west-1.amazonaws.com/66-011.png","11","Watch","66-011.png"
"","4835","image-button-response","32","null","182381","685c6ca90f751d3aae6b1794","685c6e136ff56d5e822b6abf","6405feae7d6321bfaaf793e8","false","false","Bird","https://kisumu-drawings.s3-us-west-1.amazonaws.com/5-016.png","11","Watch","5-016.png"
"","3177","image-button-response","33","null","186063","685c6ca90f751d3aae6b1794","685c6e136ff56d5e822b6abf","6405feae7d6321bfaaf793e8","false","false","House","https://kisumu-drawings.s3-us-west-1.amazonaws.com/25-014.png","8","House","25-014.png"
"","2257","image-button-response","34","null","188823","685c6ca90f751d3aae6b1794","685c6e136ff56d5e822b6abf","6405feae7d6321bfaaf793e8","false","false","Rabbit","https://kisumu-drawings.s3-us-west-1.amazonaws.com/106-014.png","4","Cat","106-014.png"
"","2170","image-button-response","35","null","191502","685c6ca90f751d3aae6b1794","685c6e136ff56d5e822b6abf","6405feae7d6321bfaaf793e8","false","false","House","https://kisumu-drawings.s3-us-west-1.amazonaws.com/59-013.png","8","House","59-013.png"
"","5400","image-button-response","36","null","197409","685c6ca90f751d3aae6b1794","685c6e136ff56d5e822b6abf","6405feae7d6321bfaaf793e8","false","false","Chair","https://kisumu-drawings.s3-us-west-1.amazonaws.com/60-011.png","5","Chair","60-011.png"
"","1707","image-button-response","37","null","199623","685c6ca90f751d3aae6b1794","685c6e136ff56d5e822b6abf","6405feae7d6321bfaaf793e8","false","false","Car","https://kisumu-drawings.s3-us-west-1.amazonaws.com/25-007.png","0","Airplane","25-007.png"
"","2368","image-button-response","38","null","202502","685c6ca90f751d3aae6b1794","685c6e136ff56d5e822b6abf","6405feae7d6321bfaaf793e8","false","false","Hat","https://kisumu-drawings.s3-us-west-1.amazonaws.com/60-005.png","7","Hat","60-005.png"
"","6326","image-button-response","39","null","209340","685c6ca90f751d3aae6b1794","685c6e136ff56d5e822b6abf","6405feae7d6321bfaaf793e8","false","false","Hat","https://kisumu-drawings.s3-us-west-1.amazonaws.com/4-013.png","9","Rabbit","4-013.png"
"","5182","image-button-response","40","null","215028","685c6ca90f751d3aae6b1794","685c6e136ff56d5e822b6abf","6405feae7d6321bfaaf793e8","false","false","Watch","https://kisumu-drawings.s3-us-west-1.amazonaws.com/5-009.png","6","Cup","5-009.png"
"","1699","image-button-response","41","null","217233","685c6ca90f751d3aae6b1794","685c6e136ff56d5e822b6abf","6405feae7d6321bfaaf793e8","false","false","Cup","https://kisumu-drawings.s3-us-west-1.amazonaws.com/4-011.png","6","Cup","4-011.png"
"","1977","image-button-response","42","null","219712","685c6ca90f751d3aae6b1794","685c6e136ff56d5e822b6abf","6405feae7d6321bfaaf793e8","false","false","Cup","https://kisumu-drawings.s3-us-west-1.amazonaws.com/60-007.png","6","Cup","60-007.png"
"","2818","image-button-response","43","null","223037","685c6ca90f751d3aae6b1794","685c6e136ff56d5e822b6abf","6405feae7d6321bfaaf793e8","false","false","Car","https://kisumu-drawings.s3-us-west-1.amazonaws.com/92-007.png","0","Airplane","92-007.png"
"","1977","image-button-response","44","null","225531","685c6ca90f751d3aae6b1794","685c6e136ff56d5e822b6abf","6405feae7d6321bfaaf793e8","false","false","House","https://kisumu-drawings.s3-us-west-1.amazonaws.com/92-013.png","8","House","92-013.png"
"","1823","image-button-response","45","null","227856","685c6ca90f751d3aae6b1794","685c6e136ff56d5e822b6abf","6405feae7d6321bfaaf793e8","false","false","Airplane","https://kisumu-drawings.s3-us-west-1.amazonaws.com/92-006.png","0","Airplane","92-006.png"
"","1729","image-button-response","46","null","230096","685c6ca90f751d3aae6b1794","685c6e136ff56d5e822b6abf","6405feae7d6321bfaaf793e8","false","false","Cup","https://kisumu-drawings.s3-us-west-1.amazonaws.com/67-011.png","6","Cup","67-011.png"
"","8086","image-button-response","47","null","238688","685c6ca90f751d3aae6b1794","685c6e136ff56d5e822b6abf","6405feae7d6321bfaaf793e8","false","false","Tree","https://kisumu-drawings.s3-us-west-1.amazonaws.com/60-009.png","10","Tree","60-009.png"
"","3617","image-button-response","48","null","242807","685c6ca90f751d3aae6b1794","685c6e136ff56d5e822b6abf","6405feae7d6321bfaaf793e8","false","false","Bird","https://kisumu-drawings.s3-us-west-1.amazonaws.com/59-009.png","0","Airplane","59-009.png"
"","10796","image-button-response","49","null","254115","685c6ca90f751d3aae6b1794","685c6e136ff56d5e822b6abf","6405feae7d6321bfaaf793e8","false","false","Bicycle","https://kisumu-drawings.s3-us-west-1.amazonaws.com/4-007.png","4","Cat","4-007.png"
"","7544","image-button-response","50","null","262165","685c6ca90f751d3aae6b1794","685c6e136ff56d5e822b6abf","6405feae7d6321bfaaf793e8","false","false","Bicycle","https://kisumu-drawings.s3-us-west-1.amazonaws.com/105-006.png","3","Car","105-006.png"
"","4409","image-button-response","51","null","267079","685c6ca90f751d3aae6b1794","685c6e136ff56d5e822b6abf","6405feae7d6321bfaaf793e8","false","false","Tree","https://kisumu-drawings.s3-us-west-1.amazonaws.com/25-016.png","10","Tree","25-016.png"
"","5622","image-button-response","52","null","273204","685c6ca90f751d3aae6b1794","685c6e136ff56d5e822b6abf","6405feae7d6321bfaaf793e8","false","false","Cat","https://kisumu-drawings.s3-us-west-1.amazonaws.com/5-011.png","2","Bird","5-011.png"
"","3789","image-button-response","53","null","277508","685c6ca90f751d3aae6b1794","685c6e136ff56d5e822b6abf","6405feae7d6321bfaaf793e8","false","false","Tree","https://kisumu-drawings.s3-us-west-1.amazonaws.com/5-008.png","11","Watch","5-008.png"
"","1758","image-button-response","54","null","279769","685c6ca90f751d3aae6b1794","685c6e136ff56d5e822b6abf","6405feae7d6321bfaaf793e8","false","false","Cup","https://kisumu-drawings.s3-us-west-1.amazonaws.com/25-012.png","6","Cup","25-012.png"
"","2646","image-button-response","55","null","282920","685c6ca90f751d3aae6b1794","685c6e136ff56d5e822b6abf","6405feae7d6321bfaaf793e8","false","false","Tree","https://kisumu-drawings.s3-us-west-1.amazonaws.com/106-012.png","10","Tree","106-012.png"
"","3877","image-button-response","56","null","287298","685c6ca90f751d3aae6b1794","685c6e136ff56d5e822b6abf","6405feae7d6321bfaaf793e8","false","false","Hat","https://kisumu-drawings.s3-us-west-1.amazonaws.com/106-011.png","5","Chair","106-011.png"
"","3644","image-button-response","57","null","291453","685c6ca90f751d3aae6b1794","685c6e136ff56d5e822b6abf","6405feae7d6321bfaaf793e8","false","false","Rabbit","https://kisumu-drawings.s3-us-west-1.amazonaws.com/34-008.png","9","Rabbit","34-008.png"
"","4134","image-button-response","58","null","296088","685c6ca90f751d3aae6b1794","685c6e136ff56d5e822b6abf","6405feae7d6321bfaaf793e8","false","false","Car","https://kisumu-drawings.s3-us-west-1.amazonaws.com/5-006.png","3","Car","5-006.png"
"","5231","image-button-response","59","null","301826","685c6ca90f751d3aae6b1794","685c6e136ff56d5e822b6abf","6405feae7d6321bfaaf793e8","false","false","Car","https://kisumu-drawings.s3-us-west-1.amazonaws.com/60-012.png","3","Car","60-012.png"
"","3352","image-button-response","60","null","305682","685c6ca90f751d3aae6b1794","685c6e136ff56d5e822b6abf","6405feae7d6321bfaaf793e8","false","false","Chair","https://kisumu-drawings.s3-us-west-1.amazonaws.com/67-010.png","5","Chair","67-010.png"
"","2083","image-button-response","61","null","308267","685c6ca90f751d3aae6b1794","685c6e136ff56d5e822b6abf","6405feae7d6321bfaaf793e8","false","false","Bird","https://kisumu-drawings.s3-us-west-1.amazonaws.com/34-012.png","0","Airplane","34-012.png"
"","2144","image-button-response","62","null","310924","685c6ca90f751d3aae6b1794","685c6e136ff56d5e822b6abf","6405feae7d6321bfaaf793e8","false","false","Cup","https://kisumu-drawings.s3-us-west-1.amazonaws.com/92-010.png","6","Cup","92-010.png"
"","4190","image-button-response","63","null","315618","685c6ca90f751d3aae6b1794","685c6e136ff56d5e822b6abf","6405feae7d6321bfaaf793e8","false","false","Bird","https://kisumu-drawings.s3-us-west-1.amazonaws.com/66-013.png","2","Bird","66-013.png"
"","3224","image-button-response","64","null","319343","685c6ca90f751d3aae6b1794","685c6e136ff56d5e822b6abf","6405feae7d6321bfaaf793e8","false","false","Chair","https://kisumu-drawings.s3-us-west-1.amazonaws.com/106-007.png","5","Chair","106-007.png"
"","1774","image-button-response","65","null","321619","685c6ca90f751d3aae6b1794","685c6e136ff56d5e822b6abf","6405feae7d6321bfaaf793e8","false","false","House","https://kisumu-drawings.s3-us-west-1.amazonaws.com/67-009.png","8","House","67-009.png"
"","1961","image-button-response","66","null","324092","685c6ca90f751d3aae6b1794","685c6e136ff56d5e822b6abf","6405feae7d6321bfaaf793e8","false","false","Cup","https://kisumu-drawings.s3-us-west-1.amazonaws.com/105-011.png","6","Cup","105-011.png"
"","1839","image-button-response","67","null","326435","685c6ca90f751d3aae6b1794","685c6e136ff56d5e822b6abf","6405feae7d6321bfaaf793e8","false","false","Car","https://kisumu-drawings.s3-us-west-1.amazonaws.com/106-016.png","3","Car","106-016.png"
"","3850","image-button-response","68","null","330788","685c6ca90f751d3aae6b1794","685c6e136ff56d5e822b6abf","6405feae7d6321bfaaf793e8","false","false","Cat","https://kisumu-drawings.s3-us-west-1.amazonaws.com/34-016.png","2","Bird","34-016.png"
"","2603","image-button-response","69","null","333893","685c6ca90f751d3aae6b1794","685c6e136ff56d5e822b6abf","6405feae7d6321bfaaf793e8","false","false","Hat","https://kisumu-drawings.s3-us-west-1.amazonaws.com/92-011.png","7","Hat","92-011.png"
"","3450","image-button-response","70","null","337844","685c6ca90f751d3aae6b1794","685c6e136ff56d5e822b6abf","6405feae7d6321bfaaf793e8","false","false","Bicycle","https://kisumu-drawings.s3-us-west-1.amazonaws.com/25-005.png","3","Car","25-005.png"
"","1805","image-button-response","71","null","340156","685c6ca90f751d3aae6b1794","685c6e136ff56d5e822b6abf","6405feae7d6321bfaaf793e8","false","false","Watch","https://kisumu-drawings.s3-us-west-1.amazonaws.com/67-006.png","11","Watch","67-006.png"
"","4888","image-button-response","72","null","345545","685c6ca90f751d3aae6b1794","685c6e136ff56d5e822b6abf","6405feae7d6321bfaaf793e8","false","false","Bicycle","https://kisumu-drawings.s3-us-west-1.amazonaws.com/92-005.png","3","Car","92-005.png"
"","2488","image-button-response","73","null","348536","685c6ca90f751d3aae6b1794","685c6e136ff56d5e822b6abf","6405feae7d6321bfaaf793e8","false","false","Bird","https://kisumu-drawings.s3-us-west-1.amazonaws.com/106-015.png","2","Bird","106-015.png"
"","1767","image-button-response","74","null","350817","685c6ca90f751d3aae6b1794","685c6e136ff56d5e822b6abf","6405feae7d6321bfaaf793e8","false","false","Bird","https://kisumu-drawings.s3-us-west-1.amazonaws.com/91-011.png","0","Airplane","91-011.png"
"","4491","image-button-response","75","null","355809","685c6ca90f751d3aae6b1794","685c6e136ff56d5e822b6abf","6405feae7d6321bfaaf793e8","false","false","Rabbit","https://kisumu-drawings.s3-us-west-1.amazonaws.com/5-005.png","4","Cat","5-005.png"
