"view_history","rt","trial_type","trial_index","plugin_version","time_elapsed","study_id","session_id","participant_id","catch_trial","prep_trial","sketcher_category","stimulus","response","response_category","sketch_id"
"[{""page_index"":0,""viewing_time"":93216},{""page_index"":1,""viewing_time"":6405},{""page_index"":2,""viewing_time"":1993},{""page_index"":3,""viewing_time"":2738}]","104352","instructions","0","null","104358","685c6ca90f751d3aae6b1794","685c76bff9438b9132e976d2","64a826f6220bf56dca731156","","","","","","",""
"","2890","image-button-response","1","null","108268","685c6ca90f751d3aae6b1794","685c76bff9438b9132e976d2","64a826f6220bf56dca731156","false","true","car","stimuli/prep_trials/1_car_prep.png","3","Car",""
"","1907","image-button-response","2","null","110685","685c6ca90f751d3aae6b1794","685c76bff9438b9132e976d2","64a826f6220bf56dca731156","false","true","cat","stimuli/prep_trials/0_cat_prep.jpg","4","Cat",""
"","6895","image-button-response","3","null","118082","685c6ca90f751d3aae6b1794","685c76bff9438b9132e976d2","64a826f6220bf56dca731156","false","false","Airplane","https://kisumu-drawings.s3-us-west-1.amazonaws.com/73-005.png","0","Airplane","73-005.png"
"","15203","image-button-response","4","null","133790","685c6ca90f751d3aae6b1794","685c76bff9438b9132e976d2","64a826f6220bf56dca731156","false","false","Watch","https://kisumu-drawings.s3-us-west-1.amazonaws.com/70-016.png","11","Watch","70-016.png"
"","29748","image-button-response","5","null","164041","685c6ca90f751d3aae6b1794","685c76bff9438b9132e976d2","64a826f6220bf56dca731156","false","false","Hat","https://kisumu-drawings.s3-us-west-1.amazonaws.com/39-016.png","5","Chair","39-016.png"
"","4781","image-button-response","6","null","169329","685c6ca90f751d3aae6b1794","685c76bff9438b9132e976d2","64a826f6220bf56dca731156","false","false","Cat","https://kisumu-drawings.s3-us-west-1.amazonaws.com/90-013.png","4","Cat","90-013.png"
"","18319","image-button-response","7","null","188165","685c6ca90f751d3aae6b1794","685c76bff9438b9132e976d2","64a826f6220bf56dca731156","false","false","Cat","https://kisumu-drawings.s3-us-west-1.amazonaws.com/3-009.png","4","Cat","3-009.png"
"","7614","image-button-response","8","null","196294","685c6ca90f751d3aae6b1794","685c76bff9438b9132e976d2","64a826f6220bf56dca731156","false","false","Chair","https://kisumu-drawings.s3-us-west-1.amazonaws.com/71-011.png","5","Chair","71-011.png"
"","10331","image-button-response","9","null","207135","685c6ca90f751d3aae6b1794","685c76bff9438b9132e976d2","64a826f6220bf56dca731156","false","false","Rabbit","https://kisumu-drawings.s3-us-west-1.amazonaws.com/97-012.png","9","Rabbit","97-012.png"
"","23573","image-button-response","10","null","231219","685c6ca90f751d3aae6b1794","685c76bff9438b9132e976d2","64a826f6220bf56dca731156","false","false","Bird","https://kisumu-drawings.s3-us-west-1.amazonaws.com/79-005.png","4","Cat","79-005.png"
"","10824","image-button-response","11","null","242558","685c6ca90f751d3aae6b1794","685c76bff9438b9132e976d2","64a826f6220bf56dca731156","false","false","Rabbit","https://kisumu-drawings.s3-us-west-1.amazonaws.com/48-014.png","5","Chair","48-014.png"
"","10647","image-button-response","12","null","253717","685c6ca90f751d3aae6b1794","685c76bff9438b9132e976d2","64a826f6220bf56dca731156","false","false","Tree","https://kisumu-drawings.s3-us-west-1.amazonaws.com/80-014.png","10","Tree","80-014.png"
"","10614","image-button-response","13","null","264842","685c6ca90f751d3aae6b1794","685c76bff9438b9132e976d2","64a826f6220bf56dca731156","false","false","Tree","https://kisumu-drawings.s3-us-west-1.amazonaws.com/48-006.png","10","Tree","48-006.png"
"","12396","image-button-response","14","null","277749","685c6ca90f751d3aae6b1794","685c76bff9438b9132e976d2","64a826f6220bf56dca731156","false","false","House","https://kisumu-drawings.s3-us-west-1.amazonaws.com/112-007.png","8","House","112-007.png"
"","14756","image-button-response","15","null","293022","685c6ca90f751d3aae6b1794","685c76bff9438b9132e976d2","64a826f6220bf56dca731156","false","false","Bicycle","https://kisumu-drawings.s3-us-west-1.amazonaws.com/77-014.png","4","Cat","77-014.png"
"","3086","image-button-response","16","null","296610","685c6ca90f751d3aae6b1794","685c76bff9438b9132e976d2","64a826f6220bf56dca731156","false","false","Car","https://kisumu-drawings.s3-us-west-1.amazonaws.com/27-016.png","3","Car","27-016.png"
"","5628","image-button-response","17","null","302747","685c6ca90f751d3aae6b1794","685c76bff9438b9132e976d2","64a826f6220bf56dca731156","false","false","Tree","https://kisumu-drawings.s3-us-west-1.amazonaws.com/117-012.png","10","Tree","117-012.png"
"","6388","image-button-response","18","null","309642","685c6ca90f751d3aae6b1794","685c76bff9438b9132e976d2","64a826f6220bf56dca731156","false","false","Bird","https://kisumu-drawings.s3-us-west-1.amazonaws.com/46-008.png","0","Airplane","46-008.png"
"","6299","image-button-response","19","null","316444","685c6ca90f751d3aae6b1794","685c76bff9438b9132e976d2","64a826f6220bf56dca731156","false","false","Car","https://kisumu-drawings.s3-us-west-1.amazonaws.com/67-005.png","3","Car","67-005.png"
"","10638","image-button-response","20","null","327587","685c6ca90f751d3aae6b1794","685c76bff9438b9132e976d2","64a826f6220bf56dca731156","false","false","Tree","https://kisumu-drawings.s3-us-west-1.amazonaws.com/35-015.png","10","Tree","35-015.png"
"","5212","image-button-response","21","null","333303","685c6ca90f751d3aae6b1794","685c76bff9438b9132e976d2","64a826f6220bf56dca731156","false","false","Watch","https://kisumu-drawings.s3-us-west-1.amazonaws.com/60-010.png","11","Watch","60-010.png"
"","9107","image-button-response","22","null","342925","685c6ca90f751d3aae6b1794","685c76bff9438b9132e976d2","64a826f6220bf56dca731156","false","false","Hat","https://kisumu-drawings.s3-us-west-1.amazonaws.com/44-015.png","5","Chair","44-015.png"
"","11788","image-button-response","23","null","355227","685c6ca90f751d3aae6b1794","685c76bff9438b9132e976d2","64a826f6220bf56dca731156","false","false","Rabbit","https://kisumu-drawings.s3-us-west-1.amazonaws.com/76-005.png","4","Cat","76-005.png"
"","18508","image-button-response","24","null","374243","685c6ca90f751d3aae6b1794","685c76bff9438b9132e976d2","64a826f6220bf56dca731156","false","false","Car","https://kisumu-drawings.s3-us-west-1.amazonaws.com/109-014.png","3","Car","109-014.png"
"","12575","image-button-response","25","null","387321","685c6ca90f751d3aae6b1794","685c76bff9438b9132e976d2","64a826f6220bf56dca731156","false","false","House","https://kisumu-drawings.s3-us-west-1.amazonaws.com/97-011.png","8","House","97-011.png"
"","8386","image-button-response","26","null","396216","685c6ca90f751d3aae6b1794","685c76bff9438b9132e976d2","64a826f6220bf56dca731156","false","false","Hat","https://kisumu-drawings.s3-us-west-1.amazonaws.com/76-011.png","7","Hat","76-011.png"
"","6615","image-button-response","27","null","403334","685c6ca90f751d3aae6b1794","685c76bff9438b9132e976d2","64a826f6220bf56dca731156","false","false","Cat","https://kisumu-drawings.s3-us-west-1.amazonaws.com/69-005.png","4","Cat","69-005.png"
"","6715","image-button-response","28","null","410553","685c6ca90f751d3aae6b1794","685c76bff9438b9132e976d2","64a826f6220bf56dca731156","false","false","Bird","https://kisumu-drawings.s3-us-west-1.amazonaws.com/101-012.png","2","Bird","101-012.png"
"","5817","image-button-response","29","null","416871","685c6ca90f751d3aae6b1794","685c76bff9438b9132e976d2","64a826f6220bf56dca731156","false","false","Cup","https://kisumu-drawings.s3-us-west-1.amazonaws.com/92-010.png","6","Cup","92-010.png"
"","4919","image-button-response","30","null","422307","685c6ca90f751d3aae6b1794","685c76bff9438b9132e976d2","64a826f6220bf56dca731156","false","false","Rabbit","https://kisumu-drawings.s3-us-west-1.amazonaws.com/120-012.png","4","Cat","120-012.png"
"","16013","image-button-response","31","null","438834","685c6ca90f751d3aae6b1794","685c76bff9438b9132e976d2","64a826f6220bf56dca731156","false","false","Watch","https://kisumu-drawings.s3-us-west-1.amazonaws.com/103-012.png","7","Hat","103-012.png"
"","3905","image-button-response","32","null","443241","685c6ca90f751d3aae6b1794","685c76bff9438b9132e976d2","64a826f6220bf56dca731156","false","false","Tree","https://kisumu-drawings.s3-us-west-1.amazonaws.com/17-010.png","10","Tree","17-010.png"
"","31471","image-button-response","33","null","475224","685c6ca90f751d3aae6b1794","685c76bff9438b9132e976d2","64a826f6220bf56dca731156","false","false","Bicycle","https://kisumu-drawings.s3-us-west-1.amazonaws.com/118-007.png","1","Bicycle","118-007.png"
"","17755","image-button-response","34","null","493496","685c6ca90f751d3aae6b1794","685c76bff9438b9132e976d2","64a826f6220bf56dca731156","false","false","Hat","https://kisumu-drawings.s3-us-west-1.amazonaws.com/103-009.png","7","Hat","103-009.png"
"","41479","image-button-response","35","null","535478","685c6ca90f751d3aae6b1794","685c76bff9438b9132e976d2","64a826f6220bf56dca731156","false","false","Cup","https://kisumu-drawings.s3-us-west-1.amazonaws.com/58-011.png","6","Cup","58-011.png"
"","24273","image-button-response","36","null","560261","685c6ca90f751d3aae6b1794","685c76bff9438b9132e976d2","64a826f6220bf56dca731156","false","false","Watch","https://kisumu-drawings.s3-us-west-1.amazonaws.com/1-006.png","10","Tree","1-006.png"
"","10479","image-button-response","37","null","571257","685c6ca90f751d3aae6b1794","685c76bff9438b9132e976d2","64a826f6220bf56dca731156","false","false","Chair","https://kisumu-drawings.s3-us-west-1.amazonaws.com/111-005.png","5","Chair","111-005.png"
"","26092","image-button-response","38","null","597854","685c6ca90f751d3aae6b1794","685c76bff9438b9132e976d2","64a826f6220bf56dca731156","false","false","Bicycle","https://kisumu-drawings.s3-us-west-1.amazonaws.com/15-012.png","7","Hat","15-012.png"
"","17060","image-button-response","39","null","615419","685c6ca90f751d3aae6b1794","685c76bff9438b9132e976d2","64a826f6220bf56dca731156","false","false","Hat","https://kisumu-drawings.s3-us-west-1.amazonaws.com/84-008.png","7","Hat","84-008.png"
"","38906","image-button-response","40","null","654829","685c6ca90f751d3aae6b1794","685c76bff9438b9132e976d2","64a826f6220bf56dca731156","false","false","Bird","https://kisumu-drawings.s3-us-west-1.amazonaws.com/24-009.png","10","Tree","24-009.png"
"","21114","image-button-response","41","null","676451","685c6ca90f751d3aae6b1794","685c76bff9438b9132e976d2","64a826f6220bf56dca731156","false","false","Bicycle","https://kisumu-drawings.s3-us-west-1.amazonaws.com/88-007.png","1","Bicycle","88-007.png"
"","10227","image-button-response","42","null","687193","685c6ca90f751d3aae6b1794","685c76bff9438b9132e976d2","64a826f6220bf56dca731156","false","false","Car","https://kisumu-drawings.s3-us-west-1.amazonaws.com/9-010.png","8","House","9-010.png"
"","8764","image-button-response","43","null","696459","685c6ca90f751d3aae6b1794","685c76bff9438b9132e976d2","64a826f6220bf56dca731156","false","false","Watch","https://kisumu-drawings.s3-us-west-1.amazonaws.com/38-013.png","0","Airplane","38-013.png"
"","8642","image-button-response","44","null","705603","685c6ca90f751d3aae6b1794","685c76bff9438b9132e976d2","64a826f6220bf56dca731156","false","false","Watch","https://kisumu-drawings.s3-us-west-1.amazonaws.com/86-013.png","0","Airplane","86-013.png"
"","12946","image-button-response","45","null","719067","685c6ca90f751d3aae6b1794","685c76bff9438b9132e976d2","64a826f6220bf56dca731156","false","false","Car","https://kisumu-drawings.s3-us-west-1.amazonaws.com/42-006.png","3","Car","42-006.png"
"","15303","image-button-response","46","null","734885","685c6ca90f751d3aae6b1794","685c76bff9438b9132e976d2","64a826f6220bf56dca731156","false","false","Airplane","https://kisumu-drawings.s3-us-west-1.amazonaws.com/114-011.png","3","Car","114-011.png"
"","7865","image-button-response","47","null","743255","685c6ca90f751d3aae6b1794","685c76bff9438b9132e976d2","64a826f6220bf56dca731156","false","false","House","https://kisumu-drawings.s3-us-west-1.amazonaws.com/32-006.png","2","Bird","32-006.png"
"","23703","image-button-response","48","null","767467","685c6ca90f751d3aae6b1794","685c76bff9438b9132e976d2","64a826f6220bf56dca731156","false","false","Hat","https://kisumu-drawings.s3-us-west-1.amazonaws.com/1-016.png","2","Bird","1-016.png"
"","48029","image-button-response","49","null","816007","685c6ca90f751d3aae6b1794","685c76bff9438b9132e976d2","64a826f6220bf56dca731156","false","false","Bird","https://kisumu-drawings.s3-us-west-1.amazonaws.com/95-008.png","8","House","95-008.png"
"","6767","image-button-response","50","null","823281","685c6ca90f751d3aae6b1794","685c76bff9438b9132e976d2","64a826f6220bf56dca731156","false","false","Bicycle","https://kisumu-drawings.s3-us-west-1.amazonaws.com/40-006.png","1","Bicycle","40-006.png"
"","18658","image-button-response","51","null","842445","685c6ca90f751d3aae6b1794","685c76bff9438b9132e976d2","64a826f6220bf56dca731156","false","false","Chair","https://kisumu-drawings.s3-us-west-1.amazonaws.com/39-010.png","8","House","39-010.png"
"","17749","image-button-response","52","null","860699","685c6ca90f751d3aae6b1794","685c76bff9438b9132e976d2","64a826f6220bf56dca731156","false","false","Rabbit","https://kisumu-drawings.s3-us-west-1.amazonaws.com/9-014.png","8","House","9-014.png"
"","19861","image-button-response","53","null","881063","685c6ca90f751d3aae6b1794","685c76bff9438b9132e976d2","64a826f6220bf56dca731156","false","false","Cat","https://kisumu-drawings.s3-us-west-1.amazonaws.com/50-016.png","4","Cat","50-016.png"
"","8949","image-button-response","54","null","890518","685c6ca90f751d3aae6b1794","685c76bff9438b9132e976d2","64a826f6220bf56dca731156","false","false","Airplane","https://kisumu-drawings.s3-us-west-1.amazonaws.com/37-008.png","0","Airplane","37-008.png"
"","8599","image-button-response","55","null","899625","685c6ca90f751d3aae6b1794","685c76bff9438b9132e976d2","64a826f6220bf56dca731156","false","false","House","https://kisumu-drawings.s3-us-west-1.amazonaws.com/70-005.png","8","House","70-005.png"
"","30847","image-button-response","56","null","930982","685c6ca90f751d3aae6b1794","685c76bff9438b9132e976d2","64a826f6220bf56dca731156","true","false","airplane","stimuli/catch_trials/0_airplane_catch.jpg","0","Airplane",""
"","25648","image-button-response","57","null","957141","685c6ca90f751d3aae6b1794","685c76bff9438b9132e976d2","64a826f6220bf56dca731156","false","false","Chair","https://kisumu-drawings.s3-us-west-1.amazonaws.com/1-008.png","2","Bird","1-008.png"
"","25599","image-button-response","58","null","983257","685c6ca90f751d3aae6b1794","685c76bff9438b9132e976d2","64a826f6220bf56dca731156","false","false","Cup","https://kisumu-drawings.s3-us-west-1.amazonaws.com/101-010.png","6","Cup","101-010.png"
"","25667","image-button-response","59","null","1009425","685c6ca90f751d3aae6b1794","685c76bff9438b9132e976d2","64a826f6220bf56dca731156","false","false","House","https://kisumu-drawings.s3-us-west-1.amazonaws.com/52-010.png","8","House","52-010.png"
"","38873","image-button-response","60","null","1048800","685c6ca90f751d3aae6b1794","685c76bff9438b9132e976d2","64a826f6220bf56dca731156","false","false","House","https://kisumu-drawings.s3-us-west-1.amazonaws.com/20-010.png","2","Bird","20-010.png"
"","9732","image-button-response","61","null","1059039","685c6ca90f751d3aae6b1794","685c76bff9438b9132e976d2","64a826f6220bf56dca731156","false","false","Tree","https://kisumu-drawings.s3-us-west-1.amazonaws.com/91-009.png","10","Tree","91-009.png"
"","50092","image-button-response","62","null","1109632","685c6ca90f751d3aae6b1794","685c76bff9438b9132e976d2","64a826f6220bf56dca731156","false","false","Cup","https://kisumu-drawings.s3-us-west-1.amazonaws.com/4-011.png","4","Cat","4-011.png"
"","3347","image-button-response","63","null","1113495","685c6ca90f751d3aae6b1794","685c76bff9438b9132e976d2","64a826f6220bf56dca731156","false","false","Airplane","https://kisumu-drawings.s3-us-west-1.amazonaws.com/44-008.png","0","Airplane","44-008.png"
"","32208","image-button-response","64","null","1146205","685c6ca90f751d3aae6b1794","685c76bff9438b9132e976d2","64a826f6220bf56dca731156","false","false","Airplane","https://kisumu-drawings.s3-us-west-1.amazonaws.com/88-006.png","0","Airplane","88-006.png"
"","32996","image-button-response","65","null","1179703","685c6ca90f751d3aae6b1794","685c76bff9438b9132e976d2","64a826f6220bf56dca731156","false","false","Cat","https://kisumu-drawings.s3-us-west-1.amazonaws.com/36-012.png","9","Rabbit","36-012.png"
"","46379","image-button-response","66","null","1226591","685c6ca90f751d3aae6b1794","685c76bff9438b9132e976d2","64a826f6220bf56dca731156","false","false","Airplane","https://kisumu-drawings.s3-us-west-1.amazonaws.com/6-007.png","0","Airplane","6-007.png"
"","3877","image-button-response","67","null","1230969","685c6ca90f751d3aae6b1794","685c76bff9438b9132e976d2","64a826f6220bf56dca731156","false","false","Chair","https://kisumu-drawings.s3-us-west-1.amazonaws.com/52-016.png","5","Chair","52-016.png"
"","8462","image-button-response","68","null","1239943","685c6ca90f751d3aae6b1794","685c76bff9438b9132e976d2","64a826f6220bf56dca731156","false","false","Cat","https://kisumu-drawings.s3-us-west-1.amazonaws.com/116-012.png","4","Cat","116-012.png"
"","8831","image-button-response","69","null","1249287","685c6ca90f751d3aae6b1794","685c76bff9438b9132e976d2","64a826f6220bf56dca731156","false","false","Cup","https://kisumu-drawings.s3-us-west-1.amazonaws.com/78-011.png","6","Cup","78-011.png"
"","18520","image-button-response","70","null","1268309","685c6ca90f751d3aae6b1794","685c76bff9438b9132e976d2","64a826f6220bf56dca731156","false","false","Cup","https://kisumu-drawings.s3-us-west-1.amazonaws.com/32-016.png","0","Airplane","32-016.png"
"","67029","image-button-response","71","null","1335853","685c6ca90f751d3aae6b1794","685c76bff9438b9132e976d2","64a826f6220bf56dca731156","false","false","Rabbit","https://kisumu-drawings.s3-us-west-1.amazonaws.com/37-015.png","9","Rabbit","37-015.png"
"","15619","image-button-response","72","null","1351985","685c6ca90f751d3aae6b1794","685c76bff9438b9132e976d2","64a826f6220bf56dca731156","false","false","Car","https://kisumu-drawings.s3-us-west-1.amazonaws.com/91-006.png","3","Car","91-006.png"
"","15869","image-button-response","73","null","1368355","685c6ca90f751d3aae6b1794","685c76bff9438b9132e976d2","64a826f6220bf56dca731156","false","false","Chair","https://kisumu-drawings.s3-us-west-1.amazonaws.com/83-014.png","5","Chair","83-014.png"
"","18255","image-button-response","74","null","1387112","685c6ca90f751d3aae6b1794","685c76bff9438b9132e976d2","64a826f6220bf56dca731156","false","false","Bird","https://kisumu-drawings.s3-us-west-1.amazonaws.com/15-010.png","0","Airplane","15-010.png"
"","20727","image-button-response","75","null","1408345","685c6ca90f751d3aae6b1794","685c76bff9438b9132e976d2","64a826f6220bf56dca731156","false","false","Bicycle","https://kisumu-drawings.s3-us-west-1.amazonaws.com/43-007.png","3","Car","43-007.png"
