"view_history","rt","trial_type","trial_index","plugin_version","time_elapsed","study_id","session_id","participant_id","catch_trial","prep_trial","sketcher_category","stimulus","response","response_category","sketch_id"
"[{""page_index"":0,""viewing_time"":98954},{""page_index"":1,""viewing_time"":3392},{""page_index"":2,""viewing_time"":4994},{""page_index"":3,""viewing_time"":12019}]","119358","instructions","0","null","119367","685c6ca90f751d3aae6b1794","685c6dfcb99f63a1ffdfc8cf","651c4484ba17050f6b716614","","","","","","",""
"","6277","image-button-response","1","null","126650","685c6ca90f751d3aae6b1794","685c6dfcb99f63a1ffdfc8cf","651c4484ba17050f6b716614","false","true","car","stimuli/prep_trials/1_car_prep.png","3","Car",""
"","6991","image-button-response","2","null","134144","685c6ca90f751d3aae6b1794","685c6dfcb99f63a1ffdfc8cf","651c4484ba17050f6b716614","false","true","cat","stimuli/prep_trials/0_cat_prep.jpg","4","Cat",""
"","8132","image-button-response","3","null","142778","685c6ca90f751d3aae6b1794","685c6dfcb99f63a1ffdfc8cf","651c4484ba17050f6b716614","false","false","Bicycle","https://kisumu-drawings.s3-us-west-1.amazonaws.com/117-016.png","1","Bicycle","117-016.png"
"","3577","image-button-response","4","null","146858","685c6ca90f751d3aae6b1794","685c6dfcb99f63a1ffdfc8cf","651c4484ba17050f6b716614","false","false","Bicycle","https://kisumu-drawings.s3-us-west-1.amazonaws.com/81-011.png","1","Bicycle","81-011.png"
"","14175","image-button-response","5","null","161535","685c6ca90f751d3aae6b1794","685c6dfcb99f63a1ffdfc8cf","651c4484ba17050f6b716614","false","false","Bicycle","https://kisumu-drawings.s3-us-west-1.amazonaws.com/15-012.png","7","Hat","15-012.png"
"","15367","image-button-response","6","null","177404","685c6ca90f751d3aae6b1794","685c6dfcb99f63a1ffdfc8cf","651c4484ba17050f6b716614","false","false","Airplane","https://kisumu-drawings.s3-us-west-1.amazonaws.com/90-014.png","0","Airplane","90-014.png"
"","9360","image-button-response","7","null","187267","685c6ca90f751d3aae6b1794","685c6dfcb99f63a1ffdfc8cf","651c4484ba17050f6b716614","false","false","Cat","https://kisumu-drawings.s3-us-west-1.amazonaws.com/81-013.png","4","Cat","81-013.png"
"","15694","image-button-response","8","null","203463","685c6ca90f751d3aae6b1794","685c6dfcb99f63a1ffdfc8cf","651c4484ba17050f6b716614","false","false","Bird","https://kisumu-drawings.s3-us-west-1.amazonaws.com/106-015.png","0","Airplane","106-015.png"
"","25957","image-button-response","9","null","229923","685c6ca90f751d3aae6b1794","685c6dfcb99f63a1ffdfc8cf","651c4484ba17050f6b716614","false","false","Watch","https://kisumu-drawings.s3-us-west-1.amazonaws.com/120-014.png","7","Hat","120-014.png"
"","3229","image-button-response","10","null","233655","685c6ca90f751d3aae6b1794","685c6dfcb99f63a1ffdfc8cf","651c4484ba17050f6b716614","false","false","Cup","https://kisumu-drawings.s3-us-west-1.amazonaws.com/17-014.png","6","Cup","17-014.png"
"","4371","image-button-response","11","null","238529","685c6ca90f751d3aae6b1794","685c6dfcb99f63a1ffdfc8cf","651c4484ba17050f6b716614","false","false","Car","https://kisumu-drawings.s3-us-west-1.amazonaws.com/74-016.png","3","Car","74-016.png"
"","11193","image-button-response","12","null","250224","685c6ca90f751d3aae6b1794","685c6dfcb99f63a1ffdfc8cf","651c4484ba17050f6b716614","false","false","Cat","https://kisumu-drawings.s3-us-west-1.amazonaws.com/54-006.png","2","Bird","54-006.png"
"","4891","image-button-response","13","null","255617","685c6ca90f751d3aae6b1794","685c6dfcb99f63a1ffdfc8cf","651c4484ba17050f6b716614","false","false","Tree","https://kisumu-drawings.s3-us-west-1.amazonaws.com/49-014.png","10","Tree","49-014.png"
"","5911","image-button-response","14","null","262031","685c6ca90f751d3aae6b1794","685c6dfcb99f63a1ffdfc8cf","651c4484ba17050f6b716614","true","false","airplane","stimuli/catch_trials/0_airplane_catch.jpg","0","Airplane",""
"","19707","image-button-response","15","null","282241","685c6ca90f751d3aae6b1794","685c6dfcb99f63a1ffdfc8cf","651c4484ba17050f6b716614","false","false","Hat","https://kisumu-drawings.s3-us-west-1.amazonaws.com/44-015.png","7","Hat","44-015.png"
"","5020","image-button-response","16","null","287763","685c6ca90f751d3aae6b1794","685c6dfcb99f63a1ffdfc8cf","651c4484ba17050f6b716614","false","false","Tree","https://kisumu-drawings.s3-us-west-1.amazonaws.com/61-010.png","10","Tree","61-010.png"
"","7180","image-button-response","17","null","295445","685c6ca90f751d3aae6b1794","685c6dfcb99f63a1ffdfc8cf","651c4484ba17050f6b716614","false","false","Bird","https://kisumu-drawings.s3-us-west-1.amazonaws.com/2-014.png","0","Airplane","2-014.png"
"","8344","image-button-response","18","null","304292","685c6ca90f751d3aae6b1794","685c6dfcb99f63a1ffdfc8cf","651c4484ba17050f6b716614","false","false","Car","https://kisumu-drawings.s3-us-west-1.amazonaws.com/112-013.png","3","Car","112-013.png"
"","5681","image-button-response","19","null","310475","685c6ca90f751d3aae6b1794","685c6dfcb99f63a1ffdfc8cf","651c4484ba17050f6b716614","false","false","Tree","https://kisumu-drawings.s3-us-west-1.amazonaws.com/35-015.png","10","Tree","35-015.png"
"","5990","image-button-response","20","null","316968","685c6ca90f751d3aae6b1794","685c6dfcb99f63a1ffdfc8cf","651c4484ba17050f6b716614","false","false","Watch","https://kisumu-drawings.s3-us-west-1.amazonaws.com/80-015.png","11","Watch","80-015.png"
"","12097","image-button-response","21","null","329567","685c6ca90f751d3aae6b1794","685c6dfcb99f63a1ffdfc8cf","651c4484ba17050f6b716614","false","false","Cat","https://kisumu-drawings.s3-us-west-1.amazonaws.com/26-010.png","2","Bird","26-010.png"
"","7202","image-button-response","22","null","337272","685c6ca90f751d3aae6b1794","685c6dfcb99f63a1ffdfc8cf","651c4484ba17050f6b716614","false","false","Chair","https://kisumu-drawings.s3-us-west-1.amazonaws.com/89-007.png","5","Chair","89-007.png"
"","8362","image-button-response","23","null","346137","685c6ca90f751d3aae6b1794","685c6dfcb99f63a1ffdfc8cf","651c4484ba17050f6b716614","false","false","Chair","https://kisumu-drawings.s3-us-west-1.amazonaws.com/33-013.png","6","Cup","33-013.png"
"","9015","image-button-response","24","null","355653","685c6ca90f751d3aae6b1794","685c6dfcb99f63a1ffdfc8cf","651c4484ba17050f6b716614","false","false","Rabbit","https://kisumu-drawings.s3-us-west-1.amazonaws.com/42-010.png","2","Bird","42-010.png"
"","21149","image-button-response","25","null","377305","685c6ca90f751d3aae6b1794","685c6dfcb99f63a1ffdfc8cf","651c4484ba17050f6b716614","false","false","Rabbit","https://kisumu-drawings.s3-us-west-1.amazonaws.com/10-010.png","7","Hat","10-010.png"
"","35203","image-button-response","26","null","413010","685c6ca90f751d3aae6b1794","685c6dfcb99f63a1ffdfc8cf","651c4484ba17050f6b716614","false","false","Bicycle","https://kisumu-drawings.s3-us-west-1.amazonaws.com/29-005.png","1","Bicycle","29-005.png"
"","5713","image-button-response","27","null","419226","685c6ca90f751d3aae6b1794","685c6dfcb99f63a1ffdfc8cf","651c4484ba17050f6b716614","false","false","Rabbit","https://kisumu-drawings.s3-us-west-1.amazonaws.com/39-012.png","3","Car","39-012.png"
"","22667","image-button-response","28","null","442395","685c6ca90f751d3aae6b1794","685c6dfcb99f63a1ffdfc8cf","651c4484ba17050f6b716614","false","false","Car","https://kisumu-drawings.s3-us-west-1.amazonaws.com/19-015.png","10","Tree","19-015.png"
"","9654","image-button-response","29","null","452551","685c6ca90f751d3aae6b1794","685c6dfcb99f63a1ffdfc8cf","651c4484ba17050f6b716614","false","false","Rabbit","https://kisumu-drawings.s3-us-west-1.amazonaws.com/79-014.png","0","Airplane","79-014.png"
"","13338","image-button-response","30","null","466391","685c6ca90f751d3aae6b1794","685c6dfcb99f63a1ffdfc8cf","651c4484ba17050f6b716614","false","false","House","https://kisumu-drawings.s3-us-west-1.amazonaws.com/47-007.png","8","House","47-007.png"
"","6780","image-button-response","31","null","473674","685c6ca90f751d3aae6b1794","685c6dfcb99f63a1ffdfc8cf","651c4484ba17050f6b716614","false","false","Watch","https://kisumu-drawings.s3-us-west-1.amazonaws.com/86-013.png","11","Watch","86-013.png"
"","5844","image-button-response","32","null","480020","685c6ca90f751d3aae6b1794","685c6dfcb99f63a1ffdfc8cf","651c4484ba17050f6b716614","false","false","House","https://kisumu-drawings.s3-us-west-1.amazonaws.com/64-008.png","8","House","64-008.png"
"","5242","image-button-response","33","null","485765","685c6ca90f751d3aae6b1794","685c6dfcb99f63a1ffdfc8cf","651c4484ba17050f6b716614","false","false","Airplane","https://kisumu-drawings.s3-us-west-1.amazonaws.com/57-014.png","0","Airplane","57-014.png"
"","25508","image-button-response","34","null","511775","685c6ca90f751d3aae6b1794","685c6dfcb99f63a1ffdfc8cf","651c4484ba17050f6b716614","false","false","Rabbit","https://kisumu-drawings.s3-us-west-1.amazonaws.com/117-005.png","9","Rabbit","117-005.png"
"","8793","image-button-response","35","null","521070","685c6ca90f751d3aae6b1794","685c6dfcb99f63a1ffdfc8cf","651c4484ba17050f6b716614","false","false","Cat","https://kisumu-drawings.s3-us-west-1.amazonaws.com/62-011.png","4","Cat","62-011.png"
"","26868","image-button-response","36","null","548441","685c6ca90f751d3aae6b1794","685c6dfcb99f63a1ffdfc8cf","651c4484ba17050f6b716614","false","false","Watch","https://kisumu-drawings.s3-us-west-1.amazonaws.com/19-009.png","10","Tree","19-009.png"
"","6402","image-button-response","37","null","555345","685c6ca90f751d3aae6b1794","685c6dfcb99f63a1ffdfc8cf","651c4484ba17050f6b716614","false","false","Tree","https://kisumu-drawings.s3-us-west-1.amazonaws.com/88-009.png","10","Tree","88-009.png"
"","5020","image-button-response","38","null","560867","685c6ca90f751d3aae6b1794","685c6dfcb99f63a1ffdfc8cf","651c4484ba17050f6b716614","false","false","Car","https://kisumu-drawings.s3-us-west-1.amazonaws.com/21-014.png","11","Watch","21-014.png"
"","3199","image-button-response","39","null","564568","685c6ca90f751d3aae6b1794","685c6dfcb99f63a1ffdfc8cf","651c4484ba17050f6b716614","false","false","Airplane","https://kisumu-drawings.s3-us-west-1.amazonaws.com/104-006.png","0","Airplane","104-006.png"
"","13225","image-button-response","40","null","578295","685c6ca90f751d3aae6b1794","685c6dfcb99f63a1ffdfc8cf","651c4484ba17050f6b716614","false","false","Bicycle","https://kisumu-drawings.s3-us-west-1.amazonaws.com/73-007.png","0","Airplane","73-007.png"
"","10274","image-button-response","41","null","589072","685c6ca90f751d3aae6b1794","685c6dfcb99f63a1ffdfc8cf","651c4484ba17050f6b716614","false","false","House","https://kisumu-drawings.s3-us-west-1.amazonaws.com/97-011.png","8","House","97-011.png"
"","2780","image-button-response","42","null","592354","685c6ca90f751d3aae6b1794","685c6dfcb99f63a1ffdfc8cf","651c4484ba17050f6b716614","false","false","Cup","https://kisumu-drawings.s3-us-west-1.amazonaws.com/24-014.png","6","Cup","24-014.png"
"","8735","image-button-response","43","null","601591","685c6ca90f751d3aae6b1794","685c6dfcb99f63a1ffdfc8cf","651c4484ba17050f6b716614","false","false","Car","https://kisumu-drawings.s3-us-west-1.amazonaws.com/99-016.png","3","Car","99-016.png"
"","4761","image-button-response","44","null","606854","685c6ca90f751d3aae6b1794","685c6dfcb99f63a1ffdfc8cf","651c4484ba17050f6b716614","false","false","Tree","https://kisumu-drawings.s3-us-west-1.amazonaws.com/119-014.png","10","Tree","119-014.png"
"","4122","image-button-response","45","null","611477","685c6ca90f751d3aae6b1794","685c6dfcb99f63a1ffdfc8cf","651c4484ba17050f6b716614","false","false","Chair","https://kisumu-drawings.s3-us-west-1.amazonaws.com/118-006.png","5","Chair","118-006.png"
"","8124","image-button-response","46","null","620103","685c6ca90f751d3aae6b1794","685c6dfcb99f63a1ffdfc8cf","651c4484ba17050f6b716614","false","false","Airplane","https://kisumu-drawings.s3-us-west-1.amazonaws.com/76-008.png","0","Airplane","76-008.png"
"","15566","image-button-response","47","null","636172","685c6ca90f751d3aae6b1794","685c6dfcb99f63a1ffdfc8cf","651c4484ba17050f6b716614","false","false","Hat","https://kisumu-drawings.s3-us-west-1.amazonaws.com/71-006.png","7","Hat","71-006.png"
"","4202","image-button-response","48","null","640876","685c6ca90f751d3aae6b1794","685c6dfcb99f63a1ffdfc8cf","651c4484ba17050f6b716614","false","false","House","https://kisumu-drawings.s3-us-west-1.amazonaws.com/39-005.png","7","Hat","39-005.png"
"","3779","image-button-response","49","null","645158","685c6ca90f751d3aae6b1794","685c6dfcb99f63a1ffdfc8cf","651c4484ba17050f6b716614","false","false","Cup","https://kisumu-drawings.s3-us-west-1.amazonaws.com/117-006.png","6","Cup","117-006.png"
"","5125","image-button-response","50","null","650785","685c6ca90f751d3aae6b1794","685c6dfcb99f63a1ffdfc8cf","651c4484ba17050f6b716614","false","false","Cat","https://kisumu-drawings.s3-us-west-1.amazonaws.com/7-005.png","10","Tree","7-005.png"
"","9263","image-button-response","51","null","660551","685c6ca90f751d3aae6b1794","685c6dfcb99f63a1ffdfc8cf","651c4484ba17050f6b716614","false","false","House","https://kisumu-drawings.s3-us-west-1.amazonaws.com/8-012.png","7","Hat","8-012.png"
"","10165","image-button-response","52","null","671218","685c6ca90f751d3aae6b1794","685c6dfcb99f63a1ffdfc8cf","651c4484ba17050f6b716614","false","false","Cat","https://kisumu-drawings.s3-us-west-1.amazonaws.com/116-012.png","4","Cat","116-012.png"
"","8122","image-button-response","53","null","679842","685c6ca90f751d3aae6b1794","685c6dfcb99f63a1ffdfc8cf","651c4484ba17050f6b716614","false","false","Airplane","https://kisumu-drawings.s3-us-west-1.amazonaws.com/31-005.png","0","Airplane","31-005.png"
"","28031","image-button-response","54","null","708375","685c6ca90f751d3aae6b1794","685c6dfcb99f63a1ffdfc8cf","651c4484ba17050f6b716614","false","false","Cup","https://kisumu-drawings.s3-us-west-1.amazonaws.com/78-011.png","6","Cup","78-011.png"
"","15283","image-button-response","55","null","724160","685c6ca90f751d3aae6b1794","685c6dfcb99f63a1ffdfc8cf","651c4484ba17050f6b716614","false","false","Bird","https://kisumu-drawings.s3-us-west-1.amazonaws.com/72-016.png","10","Tree","72-016.png"
"","4541","image-button-response","56","null","729203","685c6ca90f751d3aae6b1794","685c6dfcb99f63a1ffdfc8cf","651c4484ba17050f6b716614","false","false","Cup","https://kisumu-drawings.s3-us-west-1.amazonaws.com/87-014.png","6","Cup","87-014.png"
"","6851","image-button-response","57","null","736557","685c6ca90f751d3aae6b1794","685c6dfcb99f63a1ffdfc8cf","651c4484ba17050f6b716614","false","false","Chair","https://kisumu-drawings.s3-us-west-1.amazonaws.com/53-008.png","7","Hat","53-008.png"
"","10854","image-button-response","58","null","747913","685c6ca90f751d3aae6b1794","685c6dfcb99f63a1ffdfc8cf","651c4484ba17050f6b716614","false","false","Bicycle","https://kisumu-drawings.s3-us-west-1.amazonaws.com/42-009.png","1","Bicycle","42-009.png"
"","5742","image-button-response","59","null","754157","685c6ca90f751d3aae6b1794","685c6dfcb99f63a1ffdfc8cf","651c4484ba17050f6b716614","false","false","Hat","https://kisumu-drawings.s3-us-west-1.amazonaws.com/114-016.png","7","Hat","114-016.png"
"","7463","image-button-response","60","null","762121","685c6ca90f751d3aae6b1794","685c6dfcb99f63a1ffdfc8cf","651c4484ba17050f6b716614","false","false","House","https://kisumu-drawings.s3-us-west-1.amazonaws.com/114-007.png","8","House","114-007.png"
"","3281","image-button-response","61","null","765904","685c6ca90f751d3aae6b1794","685c6dfcb99f63a1ffdfc8cf","651c4484ba17050f6b716614","false","false","Bird","https://kisumu-drawings.s3-us-west-1.amazonaws.com/56-008.png","0","Airplane","56-008.png"
"","2059","image-button-response","62","null","768466","685c6ca90f751d3aae6b1794","685c6dfcb99f63a1ffdfc8cf","651c4484ba17050f6b716614","false","false","Hat","https://kisumu-drawings.s3-us-west-1.amazonaws.com/12-013.png","7","Hat","12-013.png"
"","5394","image-button-response","63","null","774362","685c6ca90f751d3aae6b1794","685c6dfcb99f63a1ffdfc8cf","651c4484ba17050f6b716614","false","false","Bird","https://kisumu-drawings.s3-us-west-1.amazonaws.com/31-007.png","2","Bird","31-007.png"
"","3691","image-button-response","64","null","778555","685c6ca90f751d3aae6b1794","685c6dfcb99f63a1ffdfc8cf","651c4484ba17050f6b716614","false","false","Tree","https://kisumu-drawings.s3-us-west-1.amazonaws.com/1-005.png","11","Watch","1-005.png"
"","10615","image-button-response","65","null","789672","685c6ca90f751d3aae6b1794","685c6dfcb99f63a1ffdfc8cf","651c4484ba17050f6b716614","false","false","Watch","https://kisumu-drawings.s3-us-west-1.amazonaws.com/48-012.png","0","Airplane","48-012.png"
"","5372","image-button-response","66","null","795547","685c6ca90f751d3aae6b1794","685c6dfcb99f63a1ffdfc8cf","651c4484ba17050f6b716614","false","false","Cup","https://kisumu-drawings.s3-us-west-1.amazonaws.com/54-013.png","6","Cup","54-013.png"
"","6903","image-button-response","67","null","802951","685c6ca90f751d3aae6b1794","685c6dfcb99f63a1ffdfc8cf","651c4484ba17050f6b716614","false","false","Airplane","https://kisumu-drawings.s3-us-west-1.amazonaws.com/5-010.png","7","Hat","5-010.png"
"","2900","image-button-response","68","null","806354","685c6ca90f751d3aae6b1794","685c6dfcb99f63a1ffdfc8cf","651c4484ba17050f6b716614","false","false","Hat","https://kisumu-drawings.s3-us-west-1.amazonaws.com/38-011.png","7","Hat","38-011.png"
"","12679","image-button-response","69","null","819535","685c6ca90f751d3aae6b1794","685c6dfcb99f63a1ffdfc8cf","651c4484ba17050f6b716614","false","false","Chair","https://kisumu-drawings.s3-us-west-1.amazonaws.com/6-012.png","10","Tree","6-012.png"
"","10515","image-button-response","70","null","830553","685c6ca90f751d3aae6b1794","685c6dfcb99f63a1ffdfc8cf","651c4484ba17050f6b716614","false","false","Hat","https://kisumu-drawings.s3-us-west-1.amazonaws.com/90-009.png","5","Chair","90-009.png"
"","12448","image-button-response","71","null","843502","685c6ca90f751d3aae6b1794","685c6dfcb99f63a1ffdfc8cf","651c4484ba17050f6b716614","false","false","Watch","https://kisumu-drawings.s3-us-west-1.amazonaws.com/40-015.png","11","Watch","40-015.png"
"","3849","image-button-response","72","null","847854","685c6ca90f751d3aae6b1794","685c6dfcb99f63a1ffdfc8cf","651c4484ba17050f6b716614","false","false","Chair","https://kisumu-drawings.s3-us-west-1.amazonaws.com/67-010.png","5","Chair","67-010.png"
"","44687","image-button-response","73","null","893042","685c6ca90f751d3aae6b1794","685c6dfcb99f63a1ffdfc8cf","651c4484ba17050f6b716614","false","false","Bird","https://kisumu-drawings.s3-us-west-1.amazonaws.com/95-008.png","9","Rabbit","95-008.png"
"","5692","image-button-response","74","null","899237","685c6ca90f751d3aae6b1794","685c6dfcb99f63a1ffdfc8cf","651c4484ba17050f6b716614","false","false","Car","https://kisumu-drawings.s3-us-west-1.amazonaws.com/48-005.png","3","Car","48-005.png"
"","9858","image-button-response","75","null","909597","685c6ca90f751d3aae6b1794","685c6dfcb99f63a1ffdfc8cf","651c4484ba17050f6b716614","false","false","Rabbit","https://kisumu-drawings.s3-us-west-1.amazonaws.com/94-008.png","9","Rabbit","94-008.png"
