"view_history","rt","trial_type","trial_index","plugin_version","time_elapsed","study_id","session_id","participant_id","catch_trial","prep_trial","sketcher_category","stimulus","response","response_category","sketch_id"
"[{""page_index"":0,""viewing_time"":13889},{""page_index"":1,""viewing_time"":6422},{""page_index"":2,""viewing_time"":9457},{""page_index"":3,""viewing_time"":13720}]","43488","instructions","0","null","43501","685c6ca90f751d3aae6b1794","685c6e009bf4eaa071559c0a","65524ce2443c9df5aba5960c","","","","","","",""
"","7282","image-button-response","1","null","51790","685c6ca90f751d3aae6b1794","685c6e009bf4eaa071559c0a","65524ce2443c9df5aba5960c","false","true","car","stimuli/prep_trials/1_car_prep.png","3","Car",""
"","3139","image-button-response","2","null","55433","685c6ca90f751d3aae6b1794","685c6e009bf4eaa071559c0a","65524ce2443c9df5aba5960c","false","true","cat","stimuli/prep_trials/0_cat_prep.jpg","4","Cat",""
"","3665","image-button-response","3","null","59609","685c6ca90f751d3aae6b1794","685c6e009bf4eaa071559c0a","65524ce2443c9df5aba5960c","false","false","Bird","https://kisumu-drawings.s3-us-west-1.amazonaws.com/104-015.png","2","Bird","104-015.png"
"","62157","image-button-response","4","null","122269","685c6ca90f751d3aae6b1794","685c6e009bf4eaa071559c0a","65524ce2443c9df5aba5960c","false","false","Bird","https://kisumu-drawings.s3-us-west-1.amazonaws.com/3-007.png","8","House","3-007.png"
"","46265","image-button-response","5","null","169037","685c6ca90f751d3aae6b1794","685c6e009bf4eaa071559c0a","65524ce2443c9df5aba5960c","false","false","Watch","https://kisumu-drawings.s3-us-west-1.amazonaws.com/4-016.png","10","Tree","4-016.png"
"","36438","image-button-response","6","null","205979","685c6ca90f751d3aae6b1794","685c6e009bf4eaa071559c0a","65524ce2443c9df5aba5960c","false","false","Bicycle","https://kisumu-drawings.s3-us-west-1.amazonaws.com/58-014.png","0","Airplane","58-014.png"
"","5812","image-button-response","7","null","212295","685c6ca90f751d3aae6b1794","685c6e009bf4eaa071559c0a","65524ce2443c9df5aba5960c","false","false","Car","https://kisumu-drawings.s3-us-west-1.amazonaws.com/104-014.png","3","Car","104-014.png"
"","59002","image-button-response","8","null","271800","685c6ca90f751d3aae6b1794","685c6e009bf4eaa071559c0a","65524ce2443c9df5aba5960c","false","false","Bird","https://kisumu-drawings.s3-us-west-1.amazonaws.com/24-009.png","2","Bird","24-009.png"
"","3892","image-button-response","9","null","276195","685c6ca90f751d3aae6b1794","685c6e009bf4eaa071559c0a","65524ce2443c9df5aba5960c","false","false","Tree","https://kisumu-drawings.s3-us-west-1.amazonaws.com/59-005.png","10","Tree","59-005.png"
"","2629","image-button-response","10","null","279327","685c6ca90f751d3aae6b1794","685c6e009bf4eaa071559c0a","65524ce2443c9df5aba5960c","false","false","Bicycle","https://kisumu-drawings.s3-us-west-1.amazonaws.com/90-015.png","1","Bicycle","90-015.png"
"","13043","image-button-response","11","null","292874","685c6ca90f751d3aae6b1794","685c6e009bf4eaa071559c0a","65524ce2443c9df5aba5960c","false","false","Chair","https://kisumu-drawings.s3-us-west-1.amazonaws.com/58-008.png","5","Chair","58-008.png"
"","5008","image-button-response","12","null","298385","685c6ca90f751d3aae6b1794","685c6e009bf4eaa071559c0a","65524ce2443c9df5aba5960c","false","false","Car","https://kisumu-drawings.s3-us-west-1.amazonaws.com/90-012.png","3","Car","90-012.png"
"","2655","image-button-response","13","null","301544","685c6ca90f751d3aae6b1794","685c6e009bf4eaa071559c0a","65524ce2443c9df5aba5960c","false","false","House","https://kisumu-drawings.s3-us-west-1.amazonaws.com/34-006.png","8","House","34-006.png"
"","19539","image-button-response","14","null","321586","685c6ca90f751d3aae6b1794","685c6e009bf4eaa071559c0a","65524ce2443c9df5aba5960c","false","false","Tree","https://kisumu-drawings.s3-us-west-1.amazonaws.com/4-014.png","10","Tree","4-014.png"
"","5766","image-button-response","15","null","327856","685c6ca90f751d3aae6b1794","685c6e009bf4eaa071559c0a","65524ce2443c9df5aba5960c","false","false","Hat","https://kisumu-drawings.s3-us-west-1.amazonaws.com/91-013.png","7","Hat","91-013.png"
"","19614","image-button-response","16","null","347971","685c6ca90f751d3aae6b1794","685c6e009bf4eaa071559c0a","65524ce2443c9df5aba5960c","false","false","Airplane","https://kisumu-drawings.s3-us-west-1.amazonaws.com/3-005.png","0","Airplane","3-005.png"
"","3428","image-button-response","17","null","351903","685c6ca90f751d3aae6b1794","685c6e009bf4eaa071559c0a","65524ce2443c9df5aba5960c","false","false","House","https://kisumu-drawings.s3-us-west-1.amazonaws.com/91-014.png","8","House","91-014.png"
"","16863","image-button-response","18","null","369268","685c6ca90f751d3aae6b1794","685c6e009bf4eaa071559c0a","65524ce2443c9df5aba5960c","false","false","Watch","https://kisumu-drawings.s3-us-west-1.amazonaws.com/91-010.png","11","Watch","91-010.png"
"","14444","image-button-response","19","null","384215","685c6ca90f751d3aae6b1794","685c6e009bf4eaa071559c0a","65524ce2443c9df5aba5960c","false","false","Cat","https://kisumu-drawings.s3-us-west-1.amazonaws.com/104-013.png","4","Cat","104-013.png"
"","17466","image-button-response","20","null","402185","685c6ca90f751d3aae6b1794","685c6e009bf4eaa071559c0a","65524ce2443c9df5aba5960c","false","false","Airplane","https://kisumu-drawings.s3-us-west-1.amazonaws.com/65-006.png","5","Chair","65-006.png"
"","3386","image-button-response","21","null","406074","685c6ca90f751d3aae6b1794","685c6e009bf4eaa071559c0a","65524ce2443c9df5aba5960c","false","false","Watch","https://kisumu-drawings.s3-us-west-1.amazonaws.com/34-009.png","11","Watch","34-009.png"
"","12344","image-button-response","22","null","418920","685c6ca90f751d3aae6b1794","685c6e009bf4eaa071559c0a","65524ce2443c9df5aba5960c","false","false","Car","https://kisumu-drawings.s3-us-west-1.amazonaws.com/24-005.png","7","Hat","24-005.png"
"","9770","image-button-response","23","null","429193","685c6ca90f751d3aae6b1794","685c6e009bf4eaa071559c0a","65524ce2443c9df5aba5960c","false","false","Watch","https://kisumu-drawings.s3-us-west-1.amazonaws.com/59-014.png","0","Airplane","59-014.png"
"","3140","image-button-response","24","null","432836","685c6ca90f751d3aae6b1794","685c6e009bf4eaa071559c0a","65524ce2443c9df5aba5960c","false","false","Cup","https://kisumu-drawings.s3-us-west-1.amazonaws.com/58-011.png","6","Cup","58-011.png"
"","18518","image-button-response","25","null","451856","685c6ca90f751d3aae6b1794","685c6e009bf4eaa071559c0a","65524ce2443c9df5aba5960c","false","false","Chair","https://kisumu-drawings.s3-us-west-1.amazonaws.com/24-006.png","8","House","24-006.png"
"","3680","image-button-response","26","null","456039","685c6ca90f751d3aae6b1794","685c6e009bf4eaa071559c0a","65524ce2443c9df5aba5960c","false","false","House","https://kisumu-drawings.s3-us-west-1.amazonaws.com/105-016.png","8","House","105-016.png"
"","3441","image-button-response","27","null","459984","685c6ca90f751d3aae6b1794","685c6e009bf4eaa071559c0a","65524ce2443c9df5aba5960c","false","false","Chair","https://kisumu-drawings.s3-us-west-1.amazonaws.com/65-012.png","5","Chair","65-012.png"
"","2507","image-button-response","28","null","462994","685c6ca90f751d3aae6b1794","685c6e009bf4eaa071559c0a","65524ce2443c9df5aba5960c","false","false","Chair","https://kisumu-drawings.s3-us-west-1.amazonaws.com/104-009.png","5","Chair","104-009.png"
"","27995","image-button-response","29","null","491491","685c6ca90f751d3aae6b1794","685c6e009bf4eaa071559c0a","65524ce2443c9df5aba5960c","false","false","Chair","https://kisumu-drawings.s3-us-west-1.amazonaws.com/3-010.png","2","Bird","3-010.png"
"","7943","image-button-response","30","null","499937","685c6ca90f751d3aae6b1794","685c6e009bf4eaa071559c0a","65524ce2443c9df5aba5960c","false","false","Bird","https://kisumu-drawings.s3-us-west-1.amazonaws.com/65-005.png","8","House","65-005.png"
"","14008","image-button-response","31","null","514448","685c6ca90f751d3aae6b1794","685c6e009bf4eaa071559c0a","65524ce2443c9df5aba5960c","false","false","Watch","https://kisumu-drawings.s3-us-west-1.amazonaws.com/105-005.png","11","Watch","105-005.png"
"","27160","image-button-response","32","null","542111","685c6ca90f751d3aae6b1794","685c6e009bf4eaa071559c0a","65524ce2443c9df5aba5960c","false","false","Cat","https://kisumu-drawings.s3-us-west-1.amazonaws.com/3-009.png","4","Cat","3-009.png"
"","3557","image-button-response","33","null","546171","685c6ca90f751d3aae6b1794","685c6e009bf4eaa071559c0a","65524ce2443c9df5aba5960c","false","false","House","https://kisumu-drawings.s3-us-west-1.amazonaws.com/66-007.png","8","House","66-007.png"
"","3434","image-button-response","34","null","550108","685c6ca90f751d3aae6b1794","685c6e009bf4eaa071559c0a","65524ce2443c9df5aba5960c","false","false","Airplane","https://kisumu-drawings.s3-us-west-1.amazonaws.com/90-014.png","0","Airplane","90-014.png"
"","2314","image-button-response","35","null","552925","685c6ca90f751d3aae6b1794","685c6e009bf4eaa071559c0a","65524ce2443c9df5aba5960c","false","false","Cat","https://kisumu-drawings.s3-us-west-1.amazonaws.com/24-007.png","4","Cat","24-007.png"
"","2854","image-button-response","36","null","556282","685c6ca90f751d3aae6b1794","685c6e009bf4eaa071559c0a","65524ce2443c9df5aba5960c","false","false","Cat","https://kisumu-drawings.s3-us-west-1.amazonaws.com/65-015.png","4","Cat","65-015.png"
"","27104","image-button-response","37","null","583887","685c6ca90f751d3aae6b1794","685c6e009bf4eaa071559c0a","65524ce2443c9df5aba5960c","false","false","House","https://kisumu-drawings.s3-us-west-1.amazonaws.com/4-012.png","10","Tree","4-012.png"
"","3192","image-button-response","38","null","587582","685c6ca90f751d3aae6b1794","685c6e009bf4eaa071559c0a","65524ce2443c9df5aba5960c","false","false","Cat","https://kisumu-drawings.s3-us-west-1.amazonaws.com/57-008.png","4","Cat","57-008.png"
"","2824","image-button-response","39","null","590909","685c6ca90f751d3aae6b1794","685c6e009bf4eaa071559c0a","65524ce2443c9df5aba5960c","false","false","Airplane","https://kisumu-drawings.s3-us-west-1.amazonaws.com/58-013.png","0","Airplane","58-013.png"
"","2454","image-button-response","40","null","593866","685c6ca90f751d3aae6b1794","685c6e009bf4eaa071559c0a","65524ce2443c9df5aba5960c","false","false","House","https://kisumu-drawings.s3-us-west-1.amazonaws.com/59-013.png","8","House","59-013.png"
"","31636","image-button-response","41","null","626004","685c6ca90f751d3aae6b1794","685c6e009bf4eaa071559c0a","65524ce2443c9df5aba5960c","false","false","Bicycle","https://kisumu-drawings.s3-us-west-1.amazonaws.com/24-010.png","10","Tree","24-010.png"
"","20125","image-button-response","42","null","646632","685c6ca90f751d3aae6b1794","685c6e009bf4eaa071559c0a","65524ce2443c9df5aba5960c","false","false","Rabbit","https://kisumu-drawings.s3-us-west-1.amazonaws.com/66-008.png","9","Rabbit","66-008.png"
"","3673","image-button-response","43","null","650808","685c6ca90f751d3aae6b1794","685c6e009bf4eaa071559c0a","65524ce2443c9df5aba5960c","false","false","Bird","https://kisumu-drawings.s3-us-west-1.amazonaws.com/90-010.png","0","Airplane","90-010.png"
"","6645","image-button-response","44","null","657956","685c6ca90f751d3aae6b1794","685c6e009bf4eaa071559c0a","65524ce2443c9df5aba5960c","false","false","Hat","https://kisumu-drawings.s3-us-west-1.amazonaws.com/65-014.png","7","Hat","65-014.png"
"","31940","image-button-response","45","null","690398","685c6ca90f751d3aae6b1794","685c6e009bf4eaa071559c0a","65524ce2443c9df5aba5960c","false","false","Rabbit","https://kisumu-drawings.s3-us-west-1.amazonaws.com/91-005.png","4","Cat","91-005.png"
"","30734","image-button-response","46","null","721634","685c6ca90f751d3aae6b1794","685c6e009bf4eaa071559c0a","65524ce2443c9df5aba5960c","false","false","Rabbit","https://kisumu-drawings.s3-us-west-1.amazonaws.com/4-015.png","2","Bird","4-015.png"
"","23919","image-button-response","47","null","746054","685c6ca90f751d3aae6b1794","685c6e009bf4eaa071559c0a","65524ce2443c9df5aba5960c","false","false","Hat","https://kisumu-drawings.s3-us-west-1.amazonaws.com/24-016.png","11","Watch","24-016.png"
"","8145","image-button-response","48","null","754702","685c6ca90f751d3aae6b1794","685c6e009bf4eaa071559c0a","65524ce2443c9df5aba5960c","false","false","Airplane","https://kisumu-drawings.s3-us-west-1.amazonaws.com/24-008.png","10","Tree","24-008.png"
"","37104","image-button-response","49","null","792308","685c6ca90f751d3aae6b1794","685c6e009bf4eaa071559c0a","65524ce2443c9df5aba5960c","false","false","Bicycle","https://kisumu-drawings.s3-us-west-1.amazonaws.com/3-006.png","1","Bicycle","3-006.png"
"","1927","image-button-response","50","null","794738","685c6ca90f751d3aae6b1794","685c6e009bf4eaa071559c0a","65524ce2443c9df5aba5960c","true","false","airplane","stimuli/catch_trials/0_airplane_catch.jpg","0","Airplane",""
"","9912","image-button-response","51","null","805152","685c6ca90f751d3aae6b1794","685c6e009bf4eaa071559c0a","65524ce2443c9df5aba5960c","false","false","Bicycle","https://kisumu-drawings.s3-us-west-1.amazonaws.com/65-007.png","1","Bicycle","65-007.png"
"","3333","image-button-response","52","null","808989","685c6ca90f751d3aae6b1794","685c6e009bf4eaa071559c0a","65524ce2443c9df5aba5960c","false","false","Cat","https://kisumu-drawings.s3-us-west-1.amazonaws.com/90-013.png","4","Cat","90-013.png"
"","4469","image-button-response","53","null","813961","685c6ca90f751d3aae6b1794","685c6e009bf4eaa071559c0a","65524ce2443c9df5aba5960c","false","false","Cup","https://kisumu-drawings.s3-us-west-1.amazonaws.com/3-011.png","6","Cup","3-011.png"
"","4051","image-button-response","54","null","818514","685c6ca90f751d3aae6b1794","685c6e009bf4eaa071559c0a","65524ce2443c9df5aba5960c","false","false","Rabbit","https://kisumu-drawings.s3-us-west-1.amazonaws.com/105-012.png","9","Rabbit","105-012.png"
"","3866","image-button-response","55","null","822884","685c6ca90f751d3aae6b1794","685c6e009bf4eaa071559c0a","65524ce2443c9df5aba5960c","false","false","Tree","https://kisumu-drawings.s3-us-west-1.amazonaws.com/34-010.png","10","Tree","34-010.png"
"","3087","image-button-response","56","null","826474","685c6ca90f751d3aae6b1794","685c6e009bf4eaa071559c0a","65524ce2443c9df5aba5960c","false","false","Cup","https://kisumu-drawings.s3-us-west-1.amazonaws.com/90-008.png","6","Cup","90-008.png"
"","3109","image-button-response","57","null","830086","685c6ca90f751d3aae6b1794","685c6e009bf4eaa071559c0a","65524ce2443c9df5aba5960c","false","false","Bicycle","https://kisumu-drawings.s3-us-west-1.amazonaws.com/104-016.png","1","Bicycle","104-016.png"
"","2847","image-button-response","58","null","833436","685c6ca90f751d3aae6b1794","685c6e009bf4eaa071559c0a","65524ce2443c9df5aba5960c","false","false","Watch","https://kisumu-drawings.s3-us-west-1.amazonaws.com/66-006.png","11","Watch","66-006.png"
"","3324","image-button-response","59","null","837264","685c6ca90f751d3aae6b1794","685c6e009bf4eaa071559c0a","65524ce2443c9df5aba5960c","false","false","Tree","https://kisumu-drawings.s3-us-west-1.amazonaws.com/66-005.png","10","Tree","66-005.png"
"","4654","image-button-response","60","null","842421","685c6ca90f751d3aae6b1794","685c6e009bf4eaa071559c0a","65524ce2443c9df5aba5960c","false","false","Car","https://kisumu-drawings.s3-us-west-1.amazonaws.com/65-013.png","1","Bicycle","65-013.png"
"","2206","image-button-response","61","null","845131","685c6ca90f751d3aae6b1794","685c6e009bf4eaa071559c0a","65524ce2443c9df5aba5960c","false","false","Cup","https://kisumu-drawings.s3-us-west-1.amazonaws.com/24-014.png","6","Cup","24-014.png"
"","16894","image-button-response","62","null","862529","685c6ca90f751d3aae6b1794","685c6e009bf4eaa071559c0a","65524ce2443c9df5aba5960c","false","false","Tree","https://kisumu-drawings.s3-us-west-1.amazonaws.com/91-009.png","10","Tree","91-009.png"
"","3310","image-button-response","63","null","866342","685c6ca90f751d3aae6b1794","685c6e009bf4eaa071559c0a","65524ce2443c9df5aba5960c","false","false","Chair","https://kisumu-drawings.s3-us-west-1.amazonaws.com/90-011.png","5","Chair","90-011.png"
"","2329","image-button-response","64","null","869174","685c6ca90f751d3aae6b1794","685c6e009bf4eaa071559c0a","65524ce2443c9df5aba5960c","false","false","Hat","https://kisumu-drawings.s3-us-west-1.amazonaws.com/58-012.png","7","Hat","58-012.png"
"","2431","image-button-response","65","null","872108","685c6ca90f751d3aae6b1794","685c6e009bf4eaa071559c0a","65524ce2443c9df5aba5960c","false","false","Tree","https://kisumu-drawings.s3-us-west-1.amazonaws.com/105-013.png","10","Tree","105-013.png"
"","2234","image-button-response","66","null","874846","685c6ca90f751d3aae6b1794","685c6e009bf4eaa071559c0a","65524ce2443c9df5aba5960c","false","false","Airplane","https://kisumu-drawings.s3-us-west-1.amazonaws.com/104-006.png","0","Airplane","104-006.png"
"","13273","image-button-response","67","null","888620","685c6ca90f751d3aae6b1794","685c6e009bf4eaa071559c0a","65524ce2443c9df5aba5960c","false","false","Hat","https://kisumu-drawings.s3-us-west-1.amazonaws.com/3-012.png","6","Cup","3-012.png"
"","3774","image-button-response","68","null","892897","685c6ca90f751d3aae6b1794","685c6e009bf4eaa071559c0a","65524ce2443c9df5aba5960c","false","false","Hat","https://kisumu-drawings.s3-us-west-1.amazonaws.com/105-015.png","6","Cup","105-015.png"
"","17639","image-button-response","69","null","911040","685c6ca90f751d3aae6b1794","685c6e009bf4eaa071559c0a","65524ce2443c9df5aba5960c","false","false","Car","https://kisumu-drawings.s3-us-west-1.amazonaws.com/3-008.png","3","Car","3-008.png"
"","3133","image-button-response","70","null","914675","685c6ca90f751d3aae6b1794","685c6e009bf4eaa071559c0a","65524ce2443c9df5aba5960c","false","false","Cup","https://kisumu-drawings.s3-us-west-1.amazonaws.com/104-008.png","6","Cup","104-008.png"
"","2286","image-button-response","71","null","917464","685c6ca90f751d3aae6b1794","685c6e009bf4eaa071559c0a","65524ce2443c9df5aba5960c","false","false","Cup","https://kisumu-drawings.s3-us-west-1.amazonaws.com/66-015.png","6","Cup","66-015.png"
"","18578","image-button-response","72","null","936543","685c6ca90f751d3aae6b1794","685c6e009bf4eaa071559c0a","65524ce2443c9df5aba5960c","false","false","Bird","https://kisumu-drawings.s3-us-west-1.amazonaws.com/58-015.png","0","Airplane","58-015.png"
"","42516","image-button-response","73","null","979561","685c6ca90f751d3aae6b1794","685c6e009bf4eaa071559c0a","65524ce2443c9df5aba5960c","false","false","Rabbit","https://kisumu-drawings.s3-us-west-1.amazonaws.com/59-006.png","5","Chair","59-006.png"
"","11862","image-button-response","74","null","991926","685c6ca90f751d3aae6b1794","685c6e009bf4eaa071559c0a","65524ce2443c9df5aba5960c","false","false","Rabbit","https://kisumu-drawings.s3-us-west-1.amazonaws.com/34-008.png","5","Chair","34-008.png"
"","13279","image-button-response","75","null","1005707","685c6ca90f751d3aae6b1794","685c6e009bf4eaa071559c0a","65524ce2443c9df5aba5960c","false","false","Car","https://kisumu-drawings.s3-us-west-1.amazonaws.com/58-010.png","3","Car","58-010.png"
