"view_history","rt","trial_type","trial_index","plugin_version","time_elapsed","study_id","session_id","participant_id","catch_trial","prep_trial","sketcher_category","stimulus","response","response_category","sketch_id"
"[{""page_index"":0,""viewing_time"":22829},{""page_index"":1,""viewing_time"":11424},{""page_index"":2,""viewing_time"":3056},{""page_index"":3,""viewing_time"":5352}]","42662","instructions","0","null","42672","685c6ca90f751d3aae6b1794","685c6e1613b10b674775b1a8","65c10fa0d6f486db7815b5a2","","","","","","",""
"","5223","image-button-response","1","null","48927","685c6ca90f751d3aae6b1794","685c6e1613b10b674775b1a8","65c10fa0d6f486db7815b5a2","false","true","car","stimuli/prep_trials/1_car_prep.png","3","Car",""
"","2939","image-button-response","2","null","52374","685c6ca90f751d3aae6b1794","685c6e1613b10b674775b1a8","65c10fa0d6f486db7815b5a2","false","true","cat","stimuli/prep_trials/0_cat_prep.jpg","4","Cat",""
"","10033","image-button-response","3","null","62919","685c6ca90f751d3aae6b1794","685c6e1613b10b674775b1a8","65c10fa0d6f486db7815b5a2","false","false","Rabbit","https://kisumu-drawings.s3-us-west-1.amazonaws.com/88-008.png","9","Rabbit","88-008.png"
"","9410","image-button-response","4","null","72839","685c6ca90f751d3aae6b1794","685c6e1613b10b674775b1a8","65c10fa0d6f486db7815b5a2","false","false","Chair","https://kisumu-drawings.s3-us-west-1.amazonaws.com/49-005.png","7","Hat","49-005.png"
"","8992","image-button-response","5","null","82351","685c6ca90f751d3aae6b1794","685c6e1613b10b674775b1a8","65c10fa0d6f486db7815b5a2","false","false","Hat","https://kisumu-drawings.s3-us-west-1.amazonaws.com/95-005.png","7","Hat","95-005.png"
"","25434","image-button-response","6","null","108303","685c6ca90f751d3aae6b1794","685c6e1613b10b674775b1a8","65c10fa0d6f486db7815b5a2","false","false","Hat","https://kisumu-drawings.s3-us-west-1.amazonaws.com/21-008.png","7","Hat","21-008.png"
"","19714","image-button-response","7","null","128519","685c6ca90f751d3aae6b1794","685c6e1613b10b674775b1a8","65c10fa0d6f486db7815b5a2","false","false","Hat","https://kisumu-drawings.s3-us-west-1.amazonaws.com/1-016.png","7","Hat","1-016.png"
"","21841","image-button-response","8","null","150870","685c6ca90f751d3aae6b1794","685c6e1613b10b674775b1a8","65c10fa0d6f486db7815b5a2","false","false","Cat","https://kisumu-drawings.s3-us-west-1.amazonaws.com/50-016.png","9","Rabbit","50-016.png"
"","19169","image-button-response","9","null","170551","685c6ca90f751d3aae6b1794","685c6e1613b10b674775b1a8","65c10fa0d6f486db7815b5a2","false","false","Cup","https://kisumu-drawings.s3-us-west-1.amazonaws.com/1-015.png","10","Tree","1-015.png"
"","13098","image-button-response","10","null","184167","685c6ca90f751d3aae6b1794","685c6e1613b10b674775b1a8","65c10fa0d6f486db7815b5a2","false","false","Bicycle","https://kisumu-drawings.s3-us-west-1.amazonaws.com/119-009.png","1","Bicycle","119-009.png"
"","7125","image-button-response","11","null","191806","685c6ca90f751d3aae6b1794","685c6e1613b10b674775b1a8","65c10fa0d6f486db7815b5a2","false","false","Watch","https://kisumu-drawings.s3-us-west-1.amazonaws.com/86-013.png","11","Watch","86-013.png"
"","3049","image-button-response","12","null","195367","685c6ca90f751d3aae6b1794","685c6e1613b10b674775b1a8","65c10fa0d6f486db7815b5a2","false","false","Bicycle","https://kisumu-drawings.s3-us-west-1.amazonaws.com/61-005.png","1","Bicycle","61-005.png"
"","4465","image-button-response","13","null","200343","685c6ca90f751d3aae6b1794","685c6e1613b10b674775b1a8","65c10fa0d6f486db7815b5a2","false","false","Tree","https://kisumu-drawings.s3-us-west-1.amazonaws.com/80-014.png","10","Tree","80-014.png"
"","18653","image-button-response","14","null","219504","685c6ca90f751d3aae6b1794","685c6e1613b10b674775b1a8","65c10fa0d6f486db7815b5a2","false","false","Airplane","https://kisumu-drawings.s3-us-west-1.amazonaws.com/48-009.png","8","House","48-009.png"
"","18503","image-button-response","15","null","238519","685c6ca90f751d3aae6b1794","685c6e1613b10b674775b1a8","65c10fa0d6f486db7815b5a2","false","false","Cat","https://kisumu-drawings.s3-us-west-1.amazonaws.com/101-011.png","4","Cat","101-011.png"
"","5511","image-button-response","16","null","244535","685c6ca90f751d3aae6b1794","685c6e1613b10b674775b1a8","65c10fa0d6f486db7815b5a2","false","false","Rabbit","https://kisumu-drawings.s3-us-west-1.amazonaws.com/18-006.png","7","Hat","18-006.png"
"","4007","image-button-response","17","null","249046","685c6ca90f751d3aae6b1794","685c6e1613b10b674775b1a8","65c10fa0d6f486db7815b5a2","false","false","Bicycle","https://kisumu-drawings.s3-us-west-1.amazonaws.com/49-012.png","1","Bicycle","49-012.png"
"","16240","image-button-response","18","null","265792","685c6ca90f751d3aae6b1794","685c6e1613b10b674775b1a8","65c10fa0d6f486db7815b5a2","false","false","Bird","https://kisumu-drawings.s3-us-west-1.amazonaws.com/1-014.png","10","Tree","1-014.png"
"","7490","image-button-response","19","null","273798","685c6ca90f751d3aae6b1794","685c6e1613b10b674775b1a8","65c10fa0d6f486db7815b5a2","false","false","Cup","https://kisumu-drawings.s3-us-west-1.amazonaws.com/21-007.png","6","Cup","21-007.png"
"","6203","image-button-response","20","null","280510","685c6ca90f751d3aae6b1794","685c6e1613b10b674775b1a8","65c10fa0d6f486db7815b5a2","false","false","Cat","https://kisumu-drawings.s3-us-west-1.amazonaws.com/1-012.png","10","Tree","1-012.png"
"","9894","image-button-response","21","null","290918","685c6ca90f751d3aae6b1794","685c6e1613b10b674775b1a8","65c10fa0d6f486db7815b5a2","false","false","Airplane","https://kisumu-drawings.s3-us-west-1.amazonaws.com/61-014.png","0","Airplane","61-014.png"
"","11588","image-button-response","22","null","303015","685c6ca90f751d3aae6b1794","685c6e1613b10b674775b1a8","65c10fa0d6f486db7815b5a2","false","false","Car","https://kisumu-drawings.s3-us-west-1.amazonaws.com/98-014.png","8","House","98-014.png"
"","3466","image-button-response","23","null","306990","685c6ca90f751d3aae6b1794","685c6e1613b10b674775b1a8","65c10fa0d6f486db7815b5a2","false","false","House","https://kisumu-drawings.s3-us-west-1.amazonaws.com/101-005.png","8","House","101-005.png"
"","9849","image-button-response","24","null","317358","685c6ca90f751d3aae6b1794","685c6e1613b10b674775b1a8","65c10fa0d6f486db7815b5a2","false","false","Hat","https://kisumu-drawings.s3-us-west-1.amazonaws.com/49-006.png","7","Hat","49-006.png"
"","8512","image-button-response","25","null","326382","685c6ca90f751d3aae6b1794","685c6e1613b10b674775b1a8","65c10fa0d6f486db7815b5a2","false","false","Cup","https://kisumu-drawings.s3-us-west-1.amazonaws.com/101-010.png","6","Cup","101-010.png"
"","9328","image-button-response","26","null","336222","685c6ca90f751d3aae6b1794","685c6e1613b10b674775b1a8","65c10fa0d6f486db7815b5a2","false","false","Cup","https://kisumu-drawings.s3-us-west-1.amazonaws.com/49-013.png","6","Cup","49-013.png"
"","34057","image-button-response","27","null","370790","685c6ca90f751d3aae6b1794","685c6e1613b10b674775b1a8","65c10fa0d6f486db7815b5a2","false","false","Tree","https://kisumu-drawings.s3-us-west-1.amazonaws.com/21-015.png","10","Tree","21-015.png"
"","6681","image-button-response","28","null","377982","685c6ca90f751d3aae6b1794","685c6e1613b10b674775b1a8","65c10fa0d6f486db7815b5a2","false","false","Chair","https://kisumu-drawings.s3-us-west-1.amazonaws.com/12-012.png","5","Chair","12-012.png"
"","2670","image-button-response","29","null","381158","685c6ca90f751d3aae6b1794","685c6e1613b10b674775b1a8","65c10fa0d6f486db7815b5a2","false","false","Bird","https://kisumu-drawings.s3-us-west-1.amazonaws.com/21-013.png","0","Airplane","21-013.png"
"","3116","image-button-response","30","null","384782","685c6ca90f751d3aae6b1794","685c6e1613b10b674775b1a8","65c10fa0d6f486db7815b5a2","false","false","Chair","https://kisumu-drawings.s3-us-west-1.amazonaws.com/23-005.png","5","Chair","23-005.png"
"","4265","image-button-response","31","null","389551","685c6ca90f751d3aae6b1794","685c6e1613b10b674775b1a8","65c10fa0d6f486db7815b5a2","false","false","Car","https://kisumu-drawings.s3-us-west-1.amazonaws.com/101-013.png","3","Car","101-013.png"
"","3294","image-button-response","32","null","393358","685c6ca90f751d3aae6b1794","685c6e1613b10b674775b1a8","65c10fa0d6f486db7815b5a2","false","false","Tree","https://kisumu-drawings.s3-us-west-1.amazonaws.com/119-014.png","10","Tree","119-014.png"
"","8382","image-button-response","33","null","402247","685c6ca90f751d3aae6b1794","685c6e1613b10b674775b1a8","65c10fa0d6f486db7815b5a2","false","false","Bird","https://kisumu-drawings.s3-us-west-1.amazonaws.com/88-015.png","4","Cat","88-015.png"
"","13097","image-button-response","34","null","415855","685c6ca90f751d3aae6b1794","685c6e1613b10b674775b1a8","65c10fa0d6f486db7815b5a2","false","false","Rabbit","https://kisumu-drawings.s3-us-west-1.amazonaws.com/65-016.png","9","Rabbit","65-016.png"
"","15037","image-button-response","35","null","431405","685c6ca90f751d3aae6b1794","685c6e1613b10b674775b1a8","65c10fa0d6f486db7815b5a2","false","false","Chair","https://kisumu-drawings.s3-us-west-1.amazonaws.com/79-010.png","5","Chair","79-010.png"
"","24069","image-button-response","36","null","455982","685c6ca90f751d3aae6b1794","685c6e1613b10b674775b1a8","65c10fa0d6f486db7815b5a2","false","false","Watch","https://kisumu-drawings.s3-us-west-1.amazonaws.com/120-014.png","6","Cup","120-014.png"
"","5760","image-button-response","37","null","462246","685c6ca90f751d3aae6b1794","685c6e1613b10b674775b1a8","65c10fa0d6f486db7815b5a2","false","false","Cup","https://kisumu-drawings.s3-us-west-1.amazonaws.com/61-016.png","6","Cup","61-016.png"
"","2957","image-button-response","38","null","465710","685c6ca90f751d3aae6b1794","685c6e1613b10b674775b1a8","65c10fa0d6f486db7815b5a2","false","false","Airplane","https://kisumu-drawings.s3-us-west-1.amazonaws.com/1-007.png","10","Tree","1-007.png"
"","3251","image-button-response","39","null","469478","685c6ca90f751d3aae6b1794","685c6e1613b10b674775b1a8","65c10fa0d6f486db7815b5a2","false","false","Chair","https://kisumu-drawings.s3-us-west-1.amazonaws.com/105-014.png","5","Chair","105-014.png"
"","6265","image-button-response","40","null","476262","685c6ca90f751d3aae6b1794","685c6e1613b10b674775b1a8","65c10fa0d6f486db7815b5a2","false","false","Watch","https://kisumu-drawings.s3-us-west-1.amazonaws.com/79-007.png","11","Watch","79-007.png"
"","503083","image-button-response","41","null","979857","685c6ca90f751d3aae6b1794","685c6e1613b10b674775b1a8","65c10fa0d6f486db7815b5a2","false","false","Rabbit","https://kisumu-drawings.s3-us-west-1.amazonaws.com/101-006.png","9","Rabbit","101-006.png"
"","22516","image-button-response","42","null","1002888","685c6ca90f751d3aae6b1794","685c6e1613b10b674775b1a8","65c10fa0d6f486db7815b5a2","false","false","Cat","https://kisumu-drawings.s3-us-west-1.amazonaws.com/38-006.png","9","Rabbit","38-006.png"
"","6687","image-button-response","43","null","1010088","685c6ca90f751d3aae6b1794","685c6e1613b10b674775b1a8","65c10fa0d6f486db7815b5a2","false","false","House","https://kisumu-drawings.s3-us-west-1.amazonaws.com/23-015.png","7","Hat","23-015.png"
"","3712","image-button-response","44","null","1014312","685c6ca90f751d3aae6b1794","685c6e1613b10b674775b1a8","65c10fa0d6f486db7815b5a2","false","false","Watch","https://kisumu-drawings.s3-us-west-1.amazonaws.com/40-015.png","11","Watch","40-015.png"
"","2402","image-button-response","45","null","1017218","685c6ca90f751d3aae6b1794","685c6e1613b10b674775b1a8","65c10fa0d6f486db7815b5a2","false","false","Airplane","https://kisumu-drawings.s3-us-west-1.amazonaws.com/101-014.png","0","Airplane","101-014.png"
"","36463","image-button-response","46","null","1054184","685c6ca90f751d3aae6b1794","685c6e1613b10b674775b1a8","65c10fa0d6f486db7815b5a2","false","false","Rabbit","https://kisumu-drawings.s3-us-west-1.amazonaws.com/49-016.png","7","Hat","49-016.png"
"","5492","image-button-response","47","null","1060184","685c6ca90f751d3aae6b1794","685c6e1613b10b674775b1a8","65c10fa0d6f486db7815b5a2","false","false","Watch","https://kisumu-drawings.s3-us-west-1.amazonaws.com/47-012.png","11","Watch","47-012.png"
"","2578","image-button-response","48","null","1063272","685c6ca90f751d3aae6b1794","685c6e1613b10b674775b1a8","65c10fa0d6f486db7815b5a2","false","false","House","https://kisumu-drawings.s3-us-west-1.amazonaws.com/61-008.png","8","House","61-008.png"
"","2396","image-button-response","49","null","1066177","685c6ca90f751d3aae6b1794","685c6e1613b10b674775b1a8","65c10fa0d6f486db7815b5a2","false","false","Car","https://kisumu-drawings.s3-us-west-1.amazonaws.com/61-012.png","3","Car","61-012.png"
"","3128","image-button-response","50","null","1069816","685c6ca90f751d3aae6b1794","685c6e1613b10b674775b1a8","65c10fa0d6f486db7815b5a2","false","false","Airplane","https://kisumu-drawings.s3-us-west-1.amazonaws.com/88-006.png","0","Airplane","88-006.png"
"","2627","image-button-response","51","null","1072952","685c6ca90f751d3aae6b1794","685c6e1613b10b674775b1a8","65c10fa0d6f486db7815b5a2","false","false","Hat","https://kisumu-drawings.s3-us-west-1.amazonaws.com/61-007.png","7","Hat","61-007.png"
"","15454","image-button-response","52","null","1088913","685c6ca90f751d3aae6b1794","685c6e1613b10b674775b1a8","65c10fa0d6f486db7815b5a2","false","false","Bird","https://kisumu-drawings.s3-us-west-1.amazonaws.com/48-008.png","6","Cup","48-008.png"
"","5523","image-button-response","53","null","1094944","685c6ca90f751d3aae6b1794","685c6e1613b10b674775b1a8","65c10fa0d6f486db7815b5a2","false","false","Bicycle","https://kisumu-drawings.s3-us-west-1.amazonaws.com/1-013.png","10","Tree","1-013.png"
"","2609","image-button-response","54","null","1098064","685c6ca90f751d3aae6b1794","685c6e1613b10b674775b1a8","65c10fa0d6f486db7815b5a2","false","false","Car","https://kisumu-drawings.s3-us-west-1.amazonaws.com/1-011.png","10","Tree","1-011.png"
"","9875","image-button-response","55","null","1108456","685c6ca90f751d3aae6b1794","685c6e1613b10b674775b1a8","65c10fa0d6f486db7815b5a2","false","false","Chair","https://kisumu-drawings.s3-us-west-1.amazonaws.com/82-007.png","5","Chair","82-007.png"
"","5792","image-button-response","56","null","1114760","685c6ca90f751d3aae6b1794","685c6e1613b10b674775b1a8","65c10fa0d6f486db7815b5a2","false","false","Tree","https://kisumu-drawings.s3-us-west-1.amazonaws.com/48-006.png","10","Tree","48-006.png"
"","11321","image-button-response","57","null","1126600","685c6ca90f751d3aae6b1794","685c6e1613b10b674775b1a8","65c10fa0d6f486db7815b5a2","false","false","Rabbit","https://kisumu-drawings.s3-us-west-1.amazonaws.com/21-011.png","10","Tree","21-011.png"
"","5747","image-button-response","58","null","1132855","685c6ca90f751d3aae6b1794","685c6e1613b10b674775b1a8","65c10fa0d6f486db7815b5a2","false","false","Bird","https://kisumu-drawings.s3-us-west-1.amazonaws.com/117-011.png","2","Bird","117-011.png"
"","5315","image-button-response","59","null","1138688","685c6ca90f751d3aae6b1794","685c6e1613b10b674775b1a8","65c10fa0d6f486db7815b5a2","true","false","airplane","stimuli/catch_trials/0_airplane_catch.jpg","0","Airplane",""
"","6248","image-button-response","60","null","1145448","685c6ca90f751d3aae6b1794","685c6e1613b10b674775b1a8","65c10fa0d6f486db7815b5a2","false","false","Watch","https://kisumu-drawings.s3-us-west-1.amazonaws.com/19-009.png","10","Tree","19-009.png"
"","4416","image-button-response","61","null","1150383","685c6ca90f751d3aae6b1794","685c6e1613b10b674775b1a8","65c10fa0d6f486db7815b5a2","false","false","House","https://kisumu-drawings.s3-us-west-1.amazonaws.com/49-007.png","8","House","49-007.png"
"","4527","image-button-response","62","null","1155423","685c6ca90f751d3aae6b1794","685c6e1613b10b674775b1a8","65c10fa0d6f486db7815b5a2","false","false","Cup","https://kisumu-drawings.s3-us-west-1.amazonaws.com/88-012.png","6","Cup","88-012.png"
"","6192","image-button-response","63","null","1162120","685c6ca90f751d3aae6b1794","685c6e1613b10b674775b1a8","65c10fa0d6f486db7815b5a2","false","false","Car","https://kisumu-drawings.s3-us-west-1.amazonaws.com/49-009.png","5","Chair","49-009.png"
"","137713","image-button-response","64","null","1300336","685c6ca90f751d3aae6b1794","685c6e1613b10b674775b1a8","65c10fa0d6f486db7815b5a2","false","false","Bicycle","https://kisumu-drawings.s3-us-west-1.amazonaws.com/87-015.png","1","Bicycle","87-015.png"
"","6147","image-button-response","65","null","1307000","685c6ca90f751d3aae6b1794","685c6e1613b10b674775b1a8","65c10fa0d6f486db7815b5a2","false","false","Airplane","https://kisumu-drawings.s3-us-west-1.amazonaws.com/40-012.png","0","Airplane","40-012.png"
"","21146","image-button-response","66","null","1328663","685c6ca90f751d3aae6b1794","685c6e1613b10b674775b1a8","65c10fa0d6f486db7815b5a2","false","false","House","https://kisumu-drawings.s3-us-west-1.amazonaws.com/10-009.png","8","House","10-009.png"
"","9523","image-button-response","67","null","1338696","685c6ca90f751d3aae6b1794","685c6e1613b10b674775b1a8","65c10fa0d6f486db7815b5a2","false","false","Cat","https://kisumu-drawings.s3-us-west-1.amazonaws.com/61-013.png","9","Rabbit","61-013.png"
"","13960","image-button-response","68","null","1353160","685c6ca90f751d3aae6b1794","685c6e1613b10b674775b1a8","65c10fa0d6f486db7815b5a2","false","false","Car","https://kisumu-drawings.s3-us-west-1.amazonaws.com/21-014.png","11","Watch","21-014.png"
"","6312","image-button-response","69","null","1359976","685c6ca90f751d3aae6b1794","685c6e1613b10b674775b1a8","65c10fa0d6f486db7815b5a2","false","false","Bicycle","https://kisumu-drawings.s3-us-west-1.amazonaws.com/21-016.png","0","Airplane","21-016.png"
"","4072","image-button-response","70","null","1364561","685c6ca90f751d3aae6b1794","685c6e1613b10b674775b1a8","65c10fa0d6f486db7815b5a2","false","false","Hat","https://kisumu-drawings.s3-us-west-1.amazonaws.com/120-007.png","6","Cup","120-007.png"
"","5704","image-button-response","71","null","1370776","685c6ca90f751d3aae6b1794","685c6e1613b10b674775b1a8","65c10fa0d6f486db7815b5a2","false","false","Tree","https://kisumu-drawings.s3-us-west-1.amazonaws.com/87-009.png","2","Bird","87-009.png"
"","6210","image-button-response","72","null","1377496","685c6ca90f751d3aae6b1794","685c6e1613b10b674775b1a8","65c10fa0d6f486db7815b5a2","false","false","Bird","https://kisumu-drawings.s3-us-west-1.amazonaws.com/61-006.png","2","Bird","61-006.png"
"","6104","image-button-response","73","null","1384111","685c6ca90f751d3aae6b1794","685c6e1613b10b674775b1a8","65c10fa0d6f486db7815b5a2","false","false","Cat","https://kisumu-drawings.s3-us-west-1.amazonaws.com/88-013.png","4","Cat","88-013.png"
"","3719","image-button-response","74","null","1388343","685c6ca90f751d3aae6b1794","685c6e1613b10b674775b1a8","65c10fa0d6f486db7815b5a2","false","false","House","https://kisumu-drawings.s3-us-west-1.amazonaws.com/85-016.png","8","House","85-016.png"
"","11002","image-button-response","75","null","1399848","685c6ca90f751d3aae6b1794","685c6e1613b10b674775b1a8","65c10fa0d6f486db7815b5a2","false","false","Tree","https://kisumu-drawings.s3-us-west-1.amazonaws.com/1-005.png","11","Watch","1-005.png"
