"view_history","rt","trial_type","trial_index","plugin_version","time_elapsed","study_id","session_id","participant_id","catch_trial","prep_trial","sketcher_category","stimulus","response","response_category","sketch_id"
"[{""page_index"":0,""viewing_time"":51611},{""page_index"":1,""viewing_time"":33499},{""page_index"":2,""viewing_time"":15300},{""page_index"":3,""viewing_time"":137784}]","238195","instructions","0","null","238218","685c6ca90f751d3aae6b1794","685c6e230b6ac654916713d5","65c6bbe7f9428763522fa244","","","","","","",""
"","15289","image-button-response","1","null","254534","685c6ca90f751d3aae6b1794","685c6e230b6ac654916713d5","65c6bbe7f9428763522fa244","false","true","car","stimuli/prep_trials/1_car_prep.png","3","Car",""
"","2527","image-button-response","2","null","257566","685c6ca90f751d3aae6b1794","685c6e230b6ac654916713d5","65c6bbe7f9428763522fa244","false","true","cat","stimuli/prep_trials/0_cat_prep.jpg","4","Cat",""
"","36024","image-button-response","3","null","294097","685c6ca90f751d3aae6b1794","685c6e230b6ac654916713d5","65c6bbe7f9428763522fa244","false","false","House","https://kisumu-drawings.s3-us-west-1.amazonaws.com/94-016.png","8","House","94-016.png"
"","31692","image-button-response","4","null","326298","685c6ca90f751d3aae6b1794","685c6e230b6ac654916713d5","65c6bbe7f9428763522fa244","false","false","Bicycle","https://kisumu-drawings.s3-us-west-1.amazonaws.com/108-016.png","1","Bicycle","108-016.png"
"","29029","image-button-response","5","null","355833","685c6ca90f751d3aae6b1794","685c6e230b6ac654916713d5","65c6bbe7f9428763522fa244","false","false","Car","https://kisumu-drawings.s3-us-west-1.amazonaws.com/95-007.png","6","Cup","95-007.png"
"","16556","image-button-response","6","null","372900","685c6ca90f751d3aae6b1794","685c6e230b6ac654916713d5","65c6bbe7f9428763522fa244","false","false","Chair","https://kisumu-drawings.s3-us-west-1.amazonaws.com/63-013.png","5","Chair","63-013.png"
"","19646","image-button-response","7","null","393051","685c6ca90f751d3aae6b1794","685c6e230b6ac654916713d5","65c6bbe7f9428763522fa244","false","false","Hat","https://kisumu-drawings.s3-us-west-1.amazonaws.com/95-005.png","7","Hat","95-005.png"
"","40554","image-button-response","8","null","434127","685c6ca90f751d3aae6b1794","685c6e230b6ac654916713d5","65c6bbe7f9428763522fa244","false","false","House","https://kisumu-drawings.s3-us-west-1.amazonaws.com/27-009.png","8","House","27-009.png"
"","38851","image-button-response","9","null","473487","685c6ca90f751d3aae6b1794","685c6e230b6ac654916713d5","65c6bbe7f9428763522fa244","false","false","Cat","https://kisumu-drawings.s3-us-west-1.amazonaws.com/7-005.png","1","Bicycle","7-005.png"
"","9151","image-button-response","10","null","483144","685c6ca90f751d3aae6b1794","685c6e230b6ac654916713d5","65c6bbe7f9428763522fa244","false","false","Cup","https://kisumu-drawings.s3-us-west-1.amazonaws.com/63-015.png","6","Cup","63-015.png"
"","11944","image-button-response","11","null","495597","685c6ca90f751d3aae6b1794","685c6e230b6ac654916713d5","65c6bbe7f9428763522fa244","false","false","Bird","https://kisumu-drawings.s3-us-west-1.amazonaws.com/108-011.png","2","Bird","108-011.png"
"","10820","image-button-response","12","null","506922","685c6ca90f751d3aae6b1794","685c6e230b6ac654916713d5","65c6bbe7f9428763522fa244","false","false","Tree","https://kisumu-drawings.s3-us-west-1.amazonaws.com/109-009.png","10","Tree","109-009.png"
"","7200","image-button-response","13","null","514627","685c6ca90f751d3aae6b1794","685c6e230b6ac654916713d5","65c6bbe7f9428763522fa244","false","false","Bird","https://kisumu-drawings.s3-us-west-1.amazonaws.com/63-011.png","2","Bird","63-011.png"
"","24238","image-button-response","14","null","539373","685c6ca90f751d3aae6b1794","685c6e230b6ac654916713d5","65c6bbe7f9428763522fa244","false","false","Bicycle","https://kisumu-drawings.s3-us-west-1.amazonaws.com/7-008.png","3","Car","7-008.png"
"","18422","image-button-response","15","null","558302","685c6ca90f751d3aae6b1794","685c6e230b6ac654916713d5","65c6bbe7f9428763522fa244","false","false","Watch","https://kisumu-drawings.s3-us-west-1.amazonaws.com/28-014.png","11","Watch","28-014.png"
"","8385","image-button-response","16","null","567196","685c6ca90f751d3aae6b1794","685c6e230b6ac654916713d5","65c6bbe7f9428763522fa244","false","false","Bicycle","https://kisumu-drawings.s3-us-west-1.amazonaws.com/63-012.png","1","Bicycle","63-012.png"
"","118461","image-button-response","17","null","686163","685c6ca90f751d3aae6b1794","685c6e230b6ac654916713d5","65c6bbe7f9428763522fa244","false","false","Watch","https://kisumu-drawings.s3-us-west-1.amazonaws.com/51-014.png","10","Tree","51-014.png"
"","20158","image-button-response","18","null","706826","685c6ca90f751d3aae6b1794","685c6e230b6ac654916713d5","65c6bbe7f9428763522fa244","false","false","Cat","https://kisumu-drawings.s3-us-west-1.amazonaws.com/51-016.png","4","Cat","51-016.png"
"","21873","image-button-response","19","null","729205","685c6ca90f751d3aae6b1794","685c6e230b6ac654916713d5","65c6bbe7f9428763522fa244","false","false","Car","https://kisumu-drawings.s3-us-west-1.amazonaws.com/27-016.png","3","Car","27-016.png"
"","176956","image-button-response","20","null","906682","685c6ca90f751d3aae6b1794","685c6e230b6ac654916713d5","65c6bbe7f9428763522fa244","false","false","Bird","https://kisumu-drawings.s3-us-west-1.amazonaws.com/7-010.png","10","Tree","7-010.png"
"","27032","image-button-response","21","null","934218","685c6ca90f751d3aae6b1794","685c6e230b6ac654916713d5","65c6bbe7f9428763522fa244","false","false","Hat","https://kisumu-drawings.s3-us-west-1.amazonaws.com/109-011.png","7","Hat","109-011.png"
"","15628","image-button-response","22","null","950355","685c6ca90f751d3aae6b1794","685c6e230b6ac654916713d5","65c6bbe7f9428763522fa244","false","false","Tree","https://kisumu-drawings.s3-us-west-1.amazonaws.com/28-015.png","10","Tree","28-015.png"
"","13645","image-button-response","23","null","964506","685c6ca90f751d3aae6b1794","685c6e230b6ac654916713d5","65c6bbe7f9428763522fa244","false","false","Rabbit","https://kisumu-drawings.s3-us-west-1.amazonaws.com/63-010.png","4","Cat","63-010.png"
"","3557","image-button-response","24","null","968569","685c6ca90f751d3aae6b1794","685c6e230b6ac654916713d5","65c6bbe7f9428763522fa244","true","false","airplane","stimuli/catch_trials/0_airplane_catch.jpg","0","Airplane",""
"","11019","image-button-response","25","null","980108","685c6ca90f751d3aae6b1794","685c6e230b6ac654916713d5","65c6bbe7f9428763522fa244","false","false","Rabbit","https://kisumu-drawings.s3-us-west-1.amazonaws.com/94-008.png","4","Cat","94-008.png"
"","19024","image-button-response","26","null","999640","685c6ca90f751d3aae6b1794","685c6e230b6ac654916713d5","65c6bbe7f9428763522fa244","false","false","Watch","https://kisumu-drawings.s3-us-west-1.amazonaws.com/7-016.png","4","Cat","7-016.png"
"","16808","image-button-response","27","null","1016953","685c6ca90f751d3aae6b1794","685c6e230b6ac654916713d5","65c6bbe7f9428763522fa244","false","false","Cup","https://kisumu-drawings.s3-us-west-1.amazonaws.com/7-012.png","6","Cup","7-012.png"
"","40198","image-button-response","28","null","1057667","685c6ca90f751d3aae6b1794","685c6e230b6ac654916713d5","65c6bbe7f9428763522fa244","false","false","Airplane","https://kisumu-drawings.s3-us-west-1.amazonaws.com/107-012.png","0","Airplane","107-012.png"
"","6135","image-button-response","29","null","1064321","685c6ca90f751d3aae6b1794","685c6e230b6ac654916713d5","65c6bbe7f9428763522fa244","false","false","Bird","https://kisumu-drawings.s3-us-west-1.amazonaws.com/94-013.png","4","Cat","94-013.png"
"","52169","image-button-response","30","null","1117013","685c6ca90f751d3aae6b1794","685c6e230b6ac654916713d5","65c6bbe7f9428763522fa244","false","false","Rabbit","https://kisumu-drawings.s3-us-west-1.amazonaws.com/7-011.png","10","Tree","7-011.png"
"","3924","image-button-response","31","null","1121456","685c6ca90f751d3aae6b1794","685c6e230b6ac654916713d5","65c6bbe7f9428763522fa244","false","false","Rabbit","https://kisumu-drawings.s3-us-west-1.amazonaws.com/27-010.png","2","Bird","27-010.png"
"","40324","image-button-response","32","null","1162302","685c6ca90f751d3aae6b1794","685c6e230b6ac654916713d5","65c6bbe7f9428763522fa244","false","false","Car","https://kisumu-drawings.s3-us-west-1.amazonaws.com/108-013.png","3","Car","108-013.png"
"","7561","image-button-response","33","null","1170376","685c6ca90f751d3aae6b1794","685c6e230b6ac654916713d5","65c6bbe7f9428763522fa244","false","false","Watch","https://kisumu-drawings.s3-us-west-1.amazonaws.com/63-005.png","11","Watch","63-005.png"
"","9499","image-button-response","34","null","1180393","685c6ca90f751d3aae6b1794","685c6e230b6ac654916713d5","65c6bbe7f9428763522fa244","false","false","Hat","https://kisumu-drawings.s3-us-west-1.amazonaws.com/51-011.png","0","Airplane","51-011.png"
"","11324","image-button-response","35","null","1192235","685c6ca90f751d3aae6b1794","685c6e230b6ac654916713d5","65c6bbe7f9428763522fa244","false","false","Tree","https://kisumu-drawings.s3-us-west-1.amazonaws.com/69-011.png","10","Tree","69-011.png"
"","29714","image-button-response","36","null","1222473","685c6ca90f751d3aae6b1794","685c6e230b6ac654916713d5","65c6bbe7f9428763522fa244","false","false","Bicycle","https://kisumu-drawings.s3-us-west-1.amazonaws.com/51-007.png","1","Bicycle","51-007.png"
"","11329","image-button-response","37","null","1234308","685c6ca90f751d3aae6b1794","685c6e230b6ac654916713d5","65c6bbe7f9428763522fa244","false","false","House","https://kisumu-drawings.s3-us-west-1.amazonaws.com/108-008.png","8","House","108-008.png"
"","6121","image-button-response","38","null","1240937","685c6ca90f751d3aae6b1794","685c6e230b6ac654916713d5","65c6bbe7f9428763522fa244","false","false","Watch","https://kisumu-drawings.s3-us-west-1.amazonaws.com/94-006.png","11","Watch","94-006.png"
"","49027","image-button-response","39","null","1290471","685c6ca90f751d3aae6b1794","685c6e230b6ac654916713d5","65c6bbe7f9428763522fa244","false","false","Hat","https://kisumu-drawings.s3-us-west-1.amazonaws.com/27-015.png","2","Bird","27-015.png"
"","5853","image-button-response","40","null","1296833","685c6ca90f751d3aae6b1794","685c6e230b6ac654916713d5","65c6bbe7f9428763522fa244","false","false","Watch","https://kisumu-drawings.s3-us-west-1.amazonaws.com/109-006.png","11","Watch","109-006.png"
"","4290","image-button-response","41","null","1301644","685c6ca90f751d3aae6b1794","685c6e230b6ac654916713d5","65c6bbe7f9428763522fa244","false","false","Cup","https://kisumu-drawings.s3-us-west-1.amazonaws.com/51-010.png","6","Cup","51-010.png"
"","10984","image-button-response","42","null","1313133","685c6ca90f751d3aae6b1794","685c6e230b6ac654916713d5","65c6bbe7f9428763522fa244","false","false","Cat","https://kisumu-drawings.s3-us-west-1.amazonaws.com/63-008.png","4","Cat","63-008.png"
"","23702","image-button-response","43","null","1337343","685c6ca90f751d3aae6b1794","685c6e230b6ac654916713d5","65c6bbe7f9428763522fa244","false","false","Airplane","https://kisumu-drawings.s3-us-west-1.amazonaws.com/7-009.png","7","Hat","7-009.png"
"","15076","image-button-response","44","null","1352931","685c6ca90f751d3aae6b1794","685c6e230b6ac654916713d5","65c6bbe7f9428763522fa244","false","false","Airplane","https://kisumu-drawings.s3-us-west-1.amazonaws.com/27-005.png","0","Airplane","27-005.png"
"","57825","image-button-response","45","null","1411269","685c6ca90f751d3aae6b1794","685c6e230b6ac654916713d5","65c6bbe7f9428763522fa244","false","false","Bird","https://kisumu-drawings.s3-us-west-1.amazonaws.com/51-008.png","10","Tree","51-008.png"
"","15034","image-button-response","46","null","1426822","685c6ca90f751d3aae6b1794","685c6e230b6ac654916713d5","65c6bbe7f9428763522fa244","false","false","Hat","https://kisumu-drawings.s3-us-west-1.amazonaws.com/7-014.png","8","House","7-014.png"
"","9186","image-button-response","47","null","1436528","685c6ca90f751d3aae6b1794","685c6e230b6ac654916713d5","65c6bbe7f9428763522fa244","false","false","Tree","https://kisumu-drawings.s3-us-west-1.amazonaws.com/51-013.png","10","Tree","51-013.png"
"","19059","image-button-response","48","null","1456108","685c6ca90f751d3aae6b1794","685c6e230b6ac654916713d5","65c6bbe7f9428763522fa244","false","false","Bird","https://kisumu-drawings.s3-us-west-1.amazonaws.com/26-008.png","2","Bird","26-008.png"
"","23591","image-button-response","49","null","1480205","685c6ca90f751d3aae6b1794","685c6e230b6ac654916713d5","65c6bbe7f9428763522fa244","false","false","Cat","https://kisumu-drawings.s3-us-west-1.amazonaws.com/94-009.png","2","Bird","94-009.png"
"","40131","image-button-response","50","null","1520844","685c6ca90f751d3aae6b1794","685c6e230b6ac654916713d5","65c6bbe7f9428763522fa244","false","false","Airplane","https://kisumu-drawings.s3-us-west-1.amazonaws.com/51-006.png","10","Tree","51-006.png"
"","9009","image-button-response","51","null","1530377","685c6ca90f751d3aae6b1794","685c6e230b6ac654916713d5","65c6bbe7f9428763522fa244","false","false","House","https://kisumu-drawings.s3-us-west-1.amazonaws.com/7-013.png","8","House","7-013.png"
"","8102","image-button-response","52","null","1538993","685c6ca90f751d3aae6b1794","685c6e230b6ac654916713d5","65c6bbe7f9428763522fa244","false","false","Cat","https://kisumu-drawings.s3-us-west-1.amazonaws.com/108-015.png","4","Cat","108-015.png"
"","4807","image-button-response","53","null","1544308","685c6ca90f751d3aae6b1794","685c6e230b6ac654916713d5","65c6bbe7f9428763522fa244","false","false","House","https://kisumu-drawings.s3-us-west-1.amazonaws.com/63-006.png","8","House","63-006.png"
"","11217","image-button-response","54","null","1556038","685c6ca90f751d3aae6b1794","685c6e230b6ac654916713d5","65c6bbe7f9428763522fa244","false","false","Chair","https://kisumu-drawings.s3-us-west-1.amazonaws.com/27-011.png","5","Chair","27-011.png"
"","15504","image-button-response","55","null","1572061","685c6ca90f751d3aae6b1794","685c6e230b6ac654916713d5","65c6bbe7f9428763522fa244","false","false","Bicycle","https://kisumu-drawings.s3-us-west-1.amazonaws.com/94-012.png","1","Bicycle","94-012.png"
"","10000","image-button-response","56","null","1582569","685c6ca90f751d3aae6b1794","685c6e230b6ac654916713d5","65c6bbe7f9428763522fa244","false","false","Car","https://kisumu-drawings.s3-us-west-1.amazonaws.com/63-007.png","3","Car","63-007.png"
"","8693","image-button-response","57","null","1591769","685c6ca90f751d3aae6b1794","685c6e230b6ac654916713d5","65c6bbe7f9428763522fa244","false","false","Cat","https://kisumu-drawings.s3-us-west-1.amazonaws.com/27-008.png","2","Bird","27-008.png"
"","13155","image-button-response","58","null","1605441","685c6ca90f751d3aae6b1794","685c6e230b6ac654916713d5","65c6bbe7f9428763522fa244","false","false","Chair","https://kisumu-drawings.s3-us-west-1.amazonaws.com/51-009.png","5","Chair","51-009.png"
"","96249","image-button-response","59","null","1702202","685c6ca90f751d3aae6b1794","685c6e230b6ac654916713d5","65c6bbe7f9428763522fa244","false","false","Rabbit","https://kisumu-drawings.s3-us-west-1.amazonaws.com/108-009.png","4","Cat","108-009.png"
"","20953","image-button-response","60","null","1723659","685c6ca90f751d3aae6b1794","685c6e230b6ac654916713d5","65c6bbe7f9428763522fa244","false","false","Chair","https://kisumu-drawings.s3-us-west-1.amazonaws.com/7-007.png","5","Chair","7-007.png"
"","10121","image-button-response","61","null","1734290","685c6ca90f751d3aae6b1794","685c6e230b6ac654916713d5","65c6bbe7f9428763522fa244","false","false","Tree","https://kisumu-drawings.s3-us-west-1.amazonaws.com/94-007.png","10","Tree","94-007.png"
"","3800","image-button-response","62","null","1738601","685c6ca90f751d3aae6b1794","685c6e230b6ac654916713d5","65c6bbe7f9428763522fa244","false","false","Chair","https://kisumu-drawings.s3-us-west-1.amazonaws.com/108-007.png","5","Chair","108-007.png"
"","37751","image-button-response","63","null","1776862","685c6ca90f751d3aae6b1794","685c6e230b6ac654916713d5","65c6bbe7f9428763522fa244","false","false","Cup","https://kisumu-drawings.s3-us-west-1.amazonaws.com/28-010.png","6","Cup","28-010.png"
"","4547","image-button-response","64","null","1781923","685c6ca90f751d3aae6b1794","685c6e230b6ac654916713d5","65c6bbe7f9428763522fa244","false","false","Cup","https://kisumu-drawings.s3-us-west-1.amazonaws.com/94-005.png","6","Cup","94-005.png"
"","11249","image-button-response","65","null","1793678","685c6ca90f751d3aae6b1794","685c6e230b6ac654916713d5","65c6bbe7f9428763522fa244","false","false","Hat","https://kisumu-drawings.s3-us-west-1.amazonaws.com/63-014.png","7","Hat","63-014.png"
"","12013","image-button-response","66","null","1806210","685c6ca90f751d3aae6b1794","685c6e230b6ac654916713d5","65c6bbe7f9428763522fa244","false","false","Rabbit","https://kisumu-drawings.s3-us-west-1.amazonaws.com/51-012.png","4","Cat","51-012.png"
"","11326","image-button-response","67","null","1818051","685c6ca90f751d3aae6b1794","685c6e230b6ac654916713d5","65c6bbe7f9428763522fa244","false","false","Cup","https://kisumu-drawings.s3-us-west-1.amazonaws.com/108-005.png","6","Cup","108-005.png"
"","47570","image-button-response","68","null","1866140","685c6ca90f751d3aae6b1794","685c6e230b6ac654916713d5","65c6bbe7f9428763522fa244","false","false","Airplane","https://kisumu-drawings.s3-us-west-1.amazonaws.com/63-009.png","3","Car","63-009.png"
"","24467","image-button-response","69","null","1891117","685c6ca90f751d3aae6b1794","685c6e230b6ac654916713d5","65c6bbe7f9428763522fa244","false","false","Car","https://kisumu-drawings.s3-us-west-1.amazonaws.com/7-006.png","3","Car","7-006.png"
"","12730","image-button-response","70","null","1904358","685c6ca90f751d3aae6b1794","685c6e230b6ac654916713d5","65c6bbe7f9428763522fa244","false","false","Chair","https://kisumu-drawings.s3-us-west-1.amazonaws.com/94-010.png","5","Chair","94-010.png"
"","33535","image-button-response","71","null","1938401","685c6ca90f751d3aae6b1794","685c6e230b6ac654916713d5","65c6bbe7f9428763522fa244","false","false","Bicycle","https://kisumu-drawings.s3-us-west-1.amazonaws.com/27-006.png","6","Cup","27-006.png"
"","5606","image-button-response","72","null","1944525","685c6ca90f751d3aae6b1794","685c6e230b6ac654916713d5","65c6bbe7f9428763522fa244","false","false","Tree","https://kisumu-drawings.s3-us-west-1.amazonaws.com/8-014.png","10","Tree","8-014.png"
"","2814","image-button-response","73","null","1947846","685c6ca90f751d3aae6b1794","685c6e230b6ac654916713d5","65c6bbe7f9428763522fa244","false","false","Car","https://kisumu-drawings.s3-us-west-1.amazonaws.com/51-015.png","3","Car","51-015.png"
"","2765","image-button-response","74","null","1951129","685c6ca90f751d3aae6b1794","685c6e230b6ac654916713d5","65c6bbe7f9428763522fa244","false","false","House","https://kisumu-drawings.s3-us-west-1.amazonaws.com/51-005.png","8","House","51-005.png"
"","5336","image-button-response","75","null","1956971","685c6ca90f751d3aae6b1794","685c6e230b6ac654916713d5","65c6bbe7f9428763522fa244","false","false","Airplane","https://kisumu-drawings.s3-us-west-1.amazonaws.com/94-011.png","0","Airplane","94-011.png"
