"view_history","rt","trial_type","trial_index","plugin_version","time_elapsed","study_id","session_id","participant_id","catch_trial","prep_trial","sketcher_category","stimulus","response","response_category","sketch_id"
"[{""page_index"":0,""viewing_time"":1496634},{""page_index"":1,""viewing_time"":3343},{""page_index"":2,""viewing_time"":3970},{""page_index"":3,""viewing_time"":5997}]","1509944","instructions","0","null","1509960","685c6ca90f751d3aae6b1794","685c6ea1880c25fd500ad127","65cb586a1166caf7eb546dda","","","","","","",""
"","3924","image-button-response","1","null","1514905","685c6ca90f751d3aae6b1794","685c6ea1880c25fd500ad127","65cb586a1166caf7eb546dda","false","true","car","stimuli/prep_trials/1_car_prep.png","3","Car",""
"","2737","image-button-response","2","null","1518154","685c6ca90f751d3aae6b1794","685c6ea1880c25fd500ad127","65cb586a1166caf7eb546dda","false","true","cat","stimuli/prep_trials/0_cat_prep.jpg","4","Cat",""
"","11581","image-button-response","3","null","1530257","685c6ca90f751d3aae6b1794","685c6ea1880c25fd500ad127","65cb586a1166caf7eb546dda","false","false","Bicycle","https://kisumu-drawings.s3-us-west-1.amazonaws.com/16-011.png","5","Chair","16-011.png"
"","8141","image-button-response","4","null","1538915","685c6ca90f751d3aae6b1794","685c6ea1880c25fd500ad127","65cb586a1166caf7eb546dda","false","false","Rabbit","https://kisumu-drawings.s3-us-west-1.amazonaws.com/41-012.png","4","Cat","41-012.png"
"","6178","image-button-response","5","null","1545603","685c6ca90f751d3aae6b1794","685c6ea1880c25fd500ad127","65cb586a1166caf7eb546dda","false","false","Cup","https://kisumu-drawings.s3-us-west-1.amazonaws.com/113-013.png","6","Cup","113-013.png"
"","4908","image-button-response","6","null","1551029","685c6ca90f751d3aae6b1794","685c6ea1880c25fd500ad127","65cb586a1166caf7eb546dda","false","false","Hat","https://kisumu-drawings.s3-us-west-1.amazonaws.com/73-011.png","6","Cup","73-011.png"
"","3373","image-button-response","7","null","1554916","685c6ca90f751d3aae6b1794","685c6ea1880c25fd500ad127","65cb586a1166caf7eb546dda","false","false","Hat","https://kisumu-drawings.s3-us-west-1.amazonaws.com/113-008.png","7","Hat","113-008.png"
"","5790","image-button-response","8","null","1561220","685c6ca90f751d3aae6b1794","685c6ea1880c25fd500ad127","65cb586a1166caf7eb546dda","false","false","Rabbit","https://kisumu-drawings.s3-us-west-1.amazonaws.com/32-005.png","2","Bird","32-005.png"
"","7503","image-button-response","9","null","1569231","685c6ca90f751d3aae6b1794","685c6ea1880c25fd500ad127","65cb586a1166caf7eb546dda","false","false","Bird","https://kisumu-drawings.s3-us-west-1.amazonaws.com/36-016.png","9","Rabbit","36-016.png"
"","2762","image-button-response","10","null","1572511","685c6ca90f751d3aae6b1794","685c6ea1880c25fd500ad127","65cb586a1166caf7eb546dda","true","false","airplane","stimuli/catch_trials/0_airplane_catch.jpg","0","Airplane",""
"","8815","image-button-response","11","null","1581831","685c6ca90f751d3aae6b1794","685c6ea1880c25fd500ad127","65cb586a1166caf7eb546dda","false","false","Watch","https://kisumu-drawings.s3-us-west-1.amazonaws.com/11-016.png","2","Bird","11-016.png"
"","2863","image-button-response","12","null","1585203","685c6ca90f751d3aae6b1794","685c6ea1880c25fd500ad127","65cb586a1166caf7eb546dda","false","false","Airplane","https://kisumu-drawings.s3-us-west-1.amazonaws.com/44-008.png","0","Airplane","44-008.png"
"","2583","image-button-response","13","null","1588292","685c6ca90f751d3aae6b1794","685c6ea1880c25fd500ad127","65cb586a1166caf7eb546dda","false","false","Chair","https://kisumu-drawings.s3-us-west-1.amazonaws.com/100-009.png","5","Chair","100-009.png"
"","3230","image-button-response","14","null","1592034","685c6ca90f751d3aae6b1794","685c6ea1880c25fd500ad127","65cb586a1166caf7eb546dda","false","false","Cup","https://kisumu-drawings.s3-us-west-1.amazonaws.com/12-005.png","6","Cup","12-005.png"
"","4549","image-button-response","15","null","1597092","685c6ca90f751d3aae6b1794","685c6ea1880c25fd500ad127","65cb586a1166caf7eb546dda","false","false","Airplane","https://kisumu-drawings.s3-us-west-1.amazonaws.com/77-006.png","0","Airplane","77-006.png"
"","4404","image-button-response","16","null","1602009","685c6ca90f751d3aae6b1794","685c6ea1880c25fd500ad127","65cb586a1166caf7eb546dda","false","false","Tree","https://kisumu-drawings.s3-us-west-1.amazonaws.com/11-007.png","2","Bird","11-007.png"
"","3902","image-button-response","17","null","1606427","685c6ca90f751d3aae6b1794","685c6ea1880c25fd500ad127","65cb586a1166caf7eb546dda","false","false","Car","https://kisumu-drawings.s3-us-west-1.amazonaws.com/43-016.png","3","Car","43-016.png"
"","5454","image-button-response","18","null","1612389","685c6ca90f751d3aae6b1794","685c6ea1880c25fd500ad127","65cb586a1166caf7eb546dda","false","false","Cup","https://kisumu-drawings.s3-us-west-1.amazonaws.com/32-016.png","2","Bird","32-016.png"
"","3510","image-button-response","19","null","1616415","685c6ca90f751d3aae6b1794","685c6ea1880c25fd500ad127","65cb586a1166caf7eb546dda","false","false","Watch","https://kisumu-drawings.s3-us-west-1.amazonaws.com/98-011.png","8","House","98-011.png"
"","2620","image-button-response","20","null","1619546","685c6ca90f751d3aae6b1794","685c6ea1880c25fd500ad127","65cb586a1166caf7eb546dda","false","false","Tree","https://kisumu-drawings.s3-us-west-1.amazonaws.com/72-006.png","10","Tree","72-006.png"
"","4421","image-button-response","21","null","1624483","685c6ca90f751d3aae6b1794","685c6ea1880c25fd500ad127","65cb586a1166caf7eb546dda","false","false","Car","https://kisumu-drawings.s3-us-west-1.amazonaws.com/82-014.png","3","Car","82-014.png"
"","4041","image-button-response","22","null","1629030","685c6ca90f751d3aae6b1794","685c6ea1880c25fd500ad127","65cb586a1166caf7eb546dda","false","false","House","https://kisumu-drawings.s3-us-west-1.amazonaws.com/113-007.png","8","House","113-007.png"
"","2760","image-button-response","23","null","1632303","685c6ca90f751d3aae6b1794","685c6ea1880c25fd500ad127","65cb586a1166caf7eb546dda","false","false","Car","https://kisumu-drawings.s3-us-west-1.amazonaws.com/35-009.png","3","Car","35-009.png"
"","2350","image-button-response","24","null","1635163","685c6ca90f751d3aae6b1794","685c6ea1880c25fd500ad127","65cb586a1166caf7eb546dda","false","false","Car","https://kisumu-drawings.s3-us-west-1.amazonaws.com/115-015.png","3","Car","115-015.png"
"","3640","image-button-response","25","null","1639317","685c6ca90f751d3aae6b1794","685c6ea1880c25fd500ad127","65cb586a1166caf7eb546dda","false","false","Bicycle","https://kisumu-drawings.s3-us-west-1.amazonaws.com/44-007.png","0","Airplane","44-007.png"
"","5165","image-button-response","26","null","1644989","685c6ca90f751d3aae6b1794","685c6ea1880c25fd500ad127","65cb586a1166caf7eb546dda","false","false","Chair","https://kisumu-drawings.s3-us-west-1.amazonaws.com/74-005.png","5","Chair","74-005.png"
"","6581","image-button-response","27","null","1652074","685c6ca90f751d3aae6b1794","685c6ea1880c25fd500ad127","65cb586a1166caf7eb546dda","false","false","Rabbit","https://kisumu-drawings.s3-us-west-1.amazonaws.com/98-007.png","9","Rabbit","98-007.png"
"","4675","image-button-response","28","null","1657261","685c6ca90f751d3aae6b1794","685c6ea1880c25fd500ad127","65cb586a1166caf7eb546dda","false","false","Chair","https://kisumu-drawings.s3-us-west-1.amazonaws.com/33-013.png","10","Tree","33-013.png"
"","2883","image-button-response","29","null","1660662","685c6ca90f751d3aae6b1794","685c6ea1880c25fd500ad127","65cb586a1166caf7eb546dda","false","false","Chair","https://kisumu-drawings.s3-us-west-1.amazonaws.com/114-010.png","5","Chair","114-010.png"
"","6139","image-button-response","30","null","1667314","685c6ca90f751d3aae6b1794","685c6ea1880c25fd500ad127","65cb586a1166caf7eb546dda","false","false","Hat","https://kisumu-drawings.s3-us-west-1.amazonaws.com/11-005.png","10","Tree","11-005.png"
"","5405","image-button-response","31","null","1673226","685c6ca90f751d3aae6b1794","685c6ea1880c25fd500ad127","65cb586a1166caf7eb546dda","false","false","Tree","https://kisumu-drawings.s3-us-west-1.amazonaws.com/98-010.png","2","Bird","98-010.png"
"","4967","image-button-response","32","null","1678712","685c6ca90f751d3aae6b1794","685c6ea1880c25fd500ad127","65cb586a1166caf7eb546dda","false","false","Airplane","https://kisumu-drawings.s3-us-west-1.amazonaws.com/83-015.png","0","Airplane","83-015.png"
"","2756","image-button-response","33","null","1681984","685c6ca90f751d3aae6b1794","685c6ea1880c25fd500ad127","65cb586a1166caf7eb546dda","false","false","Cat","https://kisumu-drawings.s3-us-west-1.amazonaws.com/100-011.png","4","Cat","100-011.png"
"","11522","image-button-response","34","null","1694016","685c6ca90f751d3aae6b1794","685c6ea1880c25fd500ad127","65cb586a1166caf7eb546dda","false","false","Airplane","https://kisumu-drawings.s3-us-west-1.amazonaws.com/16-010.png","1","Bicycle","16-010.png"
"","4825","image-button-response","35","null","1699352","685c6ca90f751d3aae6b1794","685c6ea1880c25fd500ad127","65cb586a1166caf7eb546dda","false","false","Cat","https://kisumu-drawings.s3-us-west-1.amazonaws.com/74-009.png","9","Rabbit","74-009.png"
"","2200","image-button-response","36","null","1702063","685c6ca90f751d3aae6b1794","685c6ea1880c25fd500ad127","65cb586a1166caf7eb546dda","false","false","House","https://kisumu-drawings.s3-us-west-1.amazonaws.com/99-010.png","8","House","99-010.png"
"","6490","image-button-response","37","null","1709071","685c6ca90f751d3aae6b1794","685c6ea1880c25fd500ad127","65cb586a1166caf7eb546dda","false","false","Bird","https://kisumu-drawings.s3-us-west-1.amazonaws.com/14-013.png","6","Cup","14-013.png"
"","7272","image-button-response","38","null","1716861","685c6ca90f751d3aae6b1794","685c6ea1880c25fd500ad127","65cb586a1166caf7eb546dda","false","false","Bicycle","https://kisumu-drawings.s3-us-west-1.amazonaws.com/36-015.png","8","House","36-015.png"
"","5821","image-button-response","39","null","1723193","685c6ca90f751d3aae6b1794","685c6ea1880c25fd500ad127","65cb586a1166caf7eb546dda","false","false","Watch","https://kisumu-drawings.s3-us-west-1.amazonaws.com/31-016.png","2","Bird","31-016.png"
"","4770","image-button-response","40","null","1728473","685c6ca90f751d3aae6b1794","685c6ea1880c25fd500ad127","65cb586a1166caf7eb546dda","false","false","Car","https://kisumu-drawings.s3-us-west-1.amazonaws.com/75-009.png","3","Car","75-009.png"
"","3750","image-button-response","41","null","1732734","685c6ca90f751d3aae6b1794","685c6ea1880c25fd500ad127","65cb586a1166caf7eb546dda","false","false","Airplane","https://kisumu-drawings.s3-us-west-1.amazonaws.com/36-014.png","0","Airplane","36-014.png"
"","7172","image-button-response","42","null","1740418","685c6ca90f751d3aae6b1794","685c6ea1880c25fd500ad127","65cb586a1166caf7eb546dda","false","false","Car","https://kisumu-drawings.s3-us-west-1.amazonaws.com/14-010.png","6","Cup","14-010.png"
"","3675","image-button-response","43","null","1744602","685c6ca90f751d3aae6b1794","685c6ea1880c25fd500ad127","65cb586a1166caf7eb546dda","false","false","House","https://kisumu-drawings.s3-us-west-1.amazonaws.com/72-012.png","8","House","72-012.png"
"","3611","image-button-response","44","null","1748725","685c6ca90f751d3aae6b1794","685c6ea1880c25fd500ad127","65cb586a1166caf7eb546dda","false","false","Cat","https://kisumu-drawings.s3-us-west-1.amazonaws.com/14-014.png","6","Cup","14-014.png"
"","3952","image-button-response","45","null","1753181","685c6ca90f751d3aae6b1794","685c6ea1880c25fd500ad127","65cb586a1166caf7eb546dda","false","false","Bird","https://kisumu-drawings.s3-us-west-1.amazonaws.com/81-007.png","2","Bird","81-007.png"
"","4159","image-button-response","46","null","1757848","685c6ca90f751d3aae6b1794","685c6ea1880c25fd500ad127","65cb586a1166caf7eb546dda","false","false","Cat","https://kisumu-drawings.s3-us-west-1.amazonaws.com/35-012.png","9","Rabbit","35-012.png"
"","6235","image-button-response","47","null","1764593","685c6ca90f751d3aae6b1794","685c6ea1880c25fd500ad127","65cb586a1166caf7eb546dda","false","false","Rabbit","https://kisumu-drawings.s3-us-west-1.amazonaws.com/12-015.png","0","Airplane","12-015.png"
"","4214","image-button-response","48","null","1769325","685c6ca90f751d3aae6b1794","685c6ea1880c25fd500ad127","65cb586a1166caf7eb546dda","false","false","Watch","https://kisumu-drawings.s3-us-west-1.amazonaws.com/55-010.png","2","Bird","55-010.png"
"","2092","image-button-response","49","null","1771936","685c6ca90f751d3aae6b1794","685c6ea1880c25fd500ad127","65cb586a1166caf7eb546dda","false","false","Cup","https://kisumu-drawings.s3-us-west-1.amazonaws.com/41-007.png","6","Cup","41-007.png"
"","2545","image-button-response","50","null","1774996","685c6ca90f751d3aae6b1794","685c6ea1880c25fd500ad127","65cb586a1166caf7eb546dda","false","false","House","https://kisumu-drawings.s3-us-west-1.amazonaws.com/12-014.png","8","House","12-014.png"
"","3269","image-button-response","51","null","1778773","685c6ca90f751d3aae6b1794","685c6ea1880c25fd500ad127","65cb586a1166caf7eb546dda","false","false","Bicycle","https://kisumu-drawings.s3-us-west-1.amazonaws.com/76-012.png","0","Airplane","76-012.png"
"","3047","image-button-response","52","null","1782331","685c6ca90f751d3aae6b1794","685c6ea1880c25fd500ad127","65cb586a1166caf7eb546dda","false","false","Bicycle","https://kisumu-drawings.s3-us-west-1.amazonaws.com/82-006.png","0","Airplane","82-006.png"
"","3417","image-button-response","53","null","1786264","685c6ca90f751d3aae6b1794","685c6ea1880c25fd500ad127","65cb586a1166caf7eb546dda","false","false","House","https://kisumu-drawings.s3-us-west-1.amazonaws.com/41-015.png","8","House","41-015.png"
"","5957","image-button-response","54","null","1792739","685c6ca90f751d3aae6b1794","685c6ea1880c25fd500ad127","65cb586a1166caf7eb546dda","false","false","Cat","https://kisumu-drawings.s3-us-west-1.amazonaws.com/114-013.png","9","Rabbit","114-013.png"
"","7028","image-button-response","55","null","1800275","685c6ca90f751d3aae6b1794","685c6ea1880c25fd500ad127","65cb586a1166caf7eb546dda","false","false","Tree","https://kisumu-drawings.s3-us-west-1.amazonaws.com/32-008.png","10","Tree","32-008.png"
"","4344","image-button-response","56","null","1805126","685c6ca90f751d3aae6b1794","685c6ea1880c25fd500ad127","65cb586a1166caf7eb546dda","false","false","Watch","https://kisumu-drawings.s3-us-west-1.amazonaws.com/72-007.png","2","Bird","72-007.png"
"","10886","image-button-response","57","null","1816531","685c6ca90f751d3aae6b1794","685c6ea1880c25fd500ad127","65cb586a1166caf7eb546dda","false","false","Watch","https://kisumu-drawings.s3-us-west-1.amazonaws.com/112-012.png","2","Bird","112-012.png"
"","4243","image-button-response","58","null","1821290","685c6ca90f751d3aae6b1794","685c6ea1880c25fd500ad127","65cb586a1166caf7eb546dda","false","false","Rabbit","https://kisumu-drawings.s3-us-west-1.amazonaws.com/73-016.png","4","Cat","73-016.png"
"","3680","image-button-response","59","null","1825480","685c6ca90f751d3aae6b1794","685c6ea1880c25fd500ad127","65cb586a1166caf7eb546dda","false","false","Cup","https://kisumu-drawings.s3-us-west-1.amazonaws.com/99-009.png","6","Cup","99-009.png"
"","3872","image-button-response","60","null","1829871","685c6ca90f751d3aae6b1794","685c6ea1880c25fd500ad127","65cb586a1166caf7eb546dda","false","false","Tree","https://kisumu-drawings.s3-us-west-1.amazonaws.com/112-005.png","4","Cat","112-005.png"
"","3744","image-button-response","61","null","1834125","685c6ca90f751d3aae6b1794","685c6ea1880c25fd500ad127","65cb586a1166caf7eb546dda","false","false","Chair","https://kisumu-drawings.s3-us-west-1.amazonaws.com/13-012.png","2","Bird","13-012.png"
"","3572","image-button-response","62","null","1838209","685c6ca90f751d3aae6b1794","685c6ea1880c25fd500ad127","65cb586a1166caf7eb546dda","false","false","Rabbit","https://kisumu-drawings.s3-us-west-1.amazonaws.com/112-006.png","4","Cat","112-006.png"
"","6400","image-button-response","63","null","1845118","685c6ca90f751d3aae6b1794","685c6ea1880c25fd500ad127","65cb586a1166caf7eb546dda","false","false","Bicycle","https://kisumu-drawings.s3-us-west-1.amazonaws.com/116-005.png","3","Car","116-005.png"
"","3672","image-button-response","64","null","1849301","685c6ca90f751d3aae6b1794","685c6ea1880c25fd500ad127","65cb586a1166caf7eb546dda","false","false","Hat","https://kisumu-drawings.s3-us-west-1.amazonaws.com/99-007.png","7","Hat","99-007.png"
"","2816","image-button-response","65","null","1852630","685c6ca90f751d3aae6b1794","685c6ea1880c25fd500ad127","65cb586a1166caf7eb546dda","false","false","Chair","https://kisumu-drawings.s3-us-west-1.amazonaws.com/42-007.png","5","Chair","42-007.png"
"","2680","image-button-response","66","null","1855817","685c6ca90f751d3aae6b1794","685c6ea1880c25fd500ad127","65cb586a1166caf7eb546dda","false","false","Hat","https://kisumu-drawings.s3-us-west-1.amazonaws.com/41-016.png","2","Bird","41-016.png"
"","2108","image-button-response","67","null","1858441","685c6ca90f751d3aae6b1794","685c6ea1880c25fd500ad127","65cb586a1166caf7eb546dda","false","false","Cat","https://kisumu-drawings.s3-us-west-1.amazonaws.com/43-010.png","4","Cat","43-010.png"
"","2330","image-button-response","68","null","1861288","685c6ca90f751d3aae6b1794","685c6ea1880c25fd500ad127","65cb586a1166caf7eb546dda","false","false","Bird","https://kisumu-drawings.s3-us-west-1.amazonaws.com/43-009.png","4","Cat","43-009.png"
"","3736","image-button-response","69","null","1865543","685c6ca90f751d3aae6b1794","685c6ea1880c25fd500ad127","65cb586a1166caf7eb546dda","false","false","Bird","https://kisumu-drawings.s3-us-west-1.amazonaws.com/75-005.png","2","Bird","75-005.png"
"","5197","image-button-response","70","null","1871249","685c6ca90f751d3aae6b1794","685c6ea1880c25fd500ad127","65cb586a1166caf7eb546dda","false","false","Airplane","https://kisumu-drawings.s3-us-west-1.amazonaws.com/116-014.png","2","Bird","116-014.png"
"","3541","image-button-response","71","null","1875304","685c6ca90f751d3aae6b1794","685c6ea1880c25fd500ad127","65cb586a1166caf7eb546dda","false","false","Cup","https://kisumu-drawings.s3-us-west-1.amazonaws.com/73-015.png","6","Cup","73-015.png"
"","2570","image-button-response","72","null","1878385","685c6ca90f751d3aae6b1794","685c6ea1880c25fd500ad127","65cb586a1166caf7eb546dda","false","false","Hat","https://kisumu-drawings.s3-us-west-1.amazonaws.com/31-012.png","5","Chair","31-012.png"
"","6821","image-button-response","73","null","1885720","685c6ca90f751d3aae6b1794","685c6ea1880c25fd500ad127","65cb586a1166caf7eb546dda","false","false","Bird","https://kisumu-drawings.s3-us-west-1.amazonaws.com/116-010.png","5","Chair","116-010.png"
"","5822","image-button-response","74","null","1892051","685c6ca90f751d3aae6b1794","685c6ea1880c25fd500ad127","65cb586a1166caf7eb546dda","false","false","Tree","https://kisumu-drawings.s3-us-west-1.amazonaws.com/55-009.png","2","Bird","55-009.png"
"","4294","image-button-response","75","null","1896854","685c6ca90f751d3aae6b1794","685c6ea1880c25fd500ad127","65cb586a1166caf7eb546dda","false","false","House","https://kisumu-drawings.s3-us-west-1.amazonaws.com/32-006.png","8","House","32-006.png"
