"view_history","rt","trial_type","trial_index","plugin_version","time_elapsed","study_id","session_id","participant_id","catch_trial","prep_trial","sketcher_category","stimulus","response","response_category","sketch_id"
"[{""page_index"":0,""viewing_time"":14164},{""page_index"":1,""viewing_time"":6148},{""page_index"":2,""viewing_time"":6486},{""page_index"":3,""viewing_time"":13384}]","40184","instructions","0","null","40229","685c6ca90f751d3aae6b1794","685c6e0e8a959c95f091e708","65fb580ab7fbb2d518ee8eaa","","","","","","",""
"","8840","image-button-response","1","null","50089","685c6ca90f751d3aae6b1794","685c6e0e8a959c95f091e708","65fb580ab7fbb2d518ee8eaa","false","true","car","stimuli/prep_trials/1_car_prep.png","3","Car",""
"","2317","image-button-response","2","null","52927","685c6ca90f751d3aae6b1794","685c6e0e8a959c95f091e708","65fb580ab7fbb2d518ee8eaa","false","true","cat","stimuli/prep_trials/0_cat_prep.jpg","4","Cat",""
"","9704","image-button-response","3","null","63146","685c6ca90f751d3aae6b1794","685c6e0e8a959c95f091e708","65fb580ab7fbb2d518ee8eaa","false","false","Cat","https://kisumu-drawings.s3-us-west-1.amazonaws.com/92-014.png","4","Cat","92-014.png"
"","13051","image-button-response","4","null","76713","685c6ca90f751d3aae6b1794","685c6e0e8a959c95f091e708","65fb580ab7fbb2d518ee8eaa","false","false","Bicycle","https://kisumu-drawings.s3-us-west-1.amazonaws.com/60-015.png","1","Bicycle","60-015.png"
"","9953","image-button-response","5","null","87181","685c6ca90f751d3aae6b1794","685c6e0e8a959c95f091e708","65fb580ab7fbb2d518ee8eaa","false","false","Watch","https://kisumu-drawings.s3-us-west-1.amazonaws.com/25-015.png","11","Watch","25-015.png"
"","4454","image-button-response","6","null","92149","685c6ca90f751d3aae6b1794","685c6e0e8a959c95f091e708","65fb580ab7fbb2d518ee8eaa","false","false","Tree","https://kisumu-drawings.s3-us-west-1.amazonaws.com/67-008.png","10","Tree","67-008.png"
"","2003","image-button-response","7","null","94665","685c6ca90f751d3aae6b1794","685c6e0e8a959c95f091e708","65fb580ab7fbb2d518ee8eaa","false","false","Tree","https://kisumu-drawings.s3-us-west-1.amazonaws.com/106-012.png","10","Tree","106-012.png"
"","2050","image-button-response","8","null","97232","685c6ca90f751d3aae6b1794","685c6e0e8a959c95f091e708","65fb580ab7fbb2d518ee8eaa","false","false","Watch","https://kisumu-drawings.s3-us-west-1.amazonaws.com/67-006.png","11","Watch","67-006.png"
"","4422","image-button-response","9","null","102166","685c6ca90f751d3aae6b1794","685c6e0e8a959c95f091e708","65fb580ab7fbb2d518ee8eaa","false","false","Bicycle","https://kisumu-drawings.s3-us-west-1.amazonaws.com/67-015.png","1","Bicycle","67-015.png"
"","4269","image-button-response","10","null","106948","685c6ca90f751d3aae6b1794","685c6e0e8a959c95f091e708","65fb580ab7fbb2d518ee8eaa","false","false","Airplane","https://kisumu-drawings.s3-us-west-1.amazonaws.com/60-016.png","0","Airplane","60-016.png"
"","3654","image-button-response","11","null","111116","685c6ca90f751d3aae6b1794","685c6e0e8a959c95f091e708","65fb580ab7fbb2d518ee8eaa","false","false","House","https://kisumu-drawings.s3-us-west-1.amazonaws.com/60-006.png","8","House","60-006.png"
"","3269","image-button-response","12","null","114898","685c6ca90f751d3aae6b1794","685c6e0e8a959c95f091e708","65fb580ab7fbb2d518ee8eaa","false","false","Watch","https://kisumu-drawings.s3-us-west-1.amazonaws.com/60-010.png","11","Watch","60-010.png"
"","15103","image-button-response","13","null","130518","685c6ca90f751d3aae6b1794","685c6e0e8a959c95f091e708","65fb580ab7fbb2d518ee8eaa","false","false","Cup","https://kisumu-drawings.s3-us-west-1.amazonaws.com/5-012.png","6","Cup","5-012.png"
"","6320","image-button-response","14","null","137352","685c6ca90f751d3aae6b1794","685c6e0e8a959c95f091e708","65fb580ab7fbb2d518ee8eaa","false","false","Car","https://kisumu-drawings.s3-us-west-1.amazonaws.com/92-007.png","3","Car","92-007.png"
"","5753","image-button-response","15","null","143619","685c6ca90f751d3aae6b1794","685c6e0e8a959c95f091e708","65fb580ab7fbb2d518ee8eaa","false","false","Chair","https://kisumu-drawings.s3-us-west-1.amazonaws.com/5-014.png","5","Chair","5-014.png"
"","7569","image-button-response","16","null","151703","685c6ca90f751d3aae6b1794","685c6e0e8a959c95f091e708","65fb580ab7fbb2d518ee8eaa","false","false","Chair","https://kisumu-drawings.s3-us-west-1.amazonaws.com/25-009.png","5","Chair","25-009.png"
"","3786","image-button-response","17","null","156004","685c6ca90f751d3aae6b1794","685c6e0e8a959c95f091e708","65fb580ab7fbb2d518ee8eaa","false","false","Cup","https://kisumu-drawings.s3-us-west-1.amazonaws.com/25-012.png","6","Cup","25-012.png"
"","3367","image-button-response","18","null","159888","685c6ca90f751d3aae6b1794","685c6e0e8a959c95f091e708","65fb580ab7fbb2d518ee8eaa","false","false","Chair","https://kisumu-drawings.s3-us-west-1.amazonaws.com/106-007.png","5","Chair","106-007.png"
"","9567","image-button-response","19","null","169972","685c6ca90f751d3aae6b1794","685c6e0e8a959c95f091e708","65fb580ab7fbb2d518ee8eaa","false","false","Tree","https://kisumu-drawings.s3-us-west-1.amazonaws.com/5-008.png","10","Tree","5-008.png"
"","3103","image-button-response","20","null","173589","685c6ca90f751d3aae6b1794","685c6e0e8a959c95f091e708","65fb580ab7fbb2d518ee8eaa","false","false","House","https://kisumu-drawings.s3-us-west-1.amazonaws.com/25-014.png","8","House","25-014.png"
"","3335","image-button-response","21","null","177439","685c6ca90f751d3aae6b1794","685c6e0e8a959c95f091e708","65fb580ab7fbb2d518ee8eaa","false","false","Tree","https://kisumu-drawings.s3-us-west-1.amazonaws.com/92-015.png","10","Tree","92-015.png"
"","4868","image-button-response","22","null","182824","685c6ca90f751d3aae6b1794","685c6e0e8a959c95f091e708","65fb580ab7fbb2d518ee8eaa","false","false","Chair","https://kisumu-drawings.s3-us-west-1.amazonaws.com/60-011.png","5","Chair","60-011.png"
"","2669","image-button-response","23","null","186007","685c6ca90f751d3aae6b1794","685c6e0e8a959c95f091e708","65fb580ab7fbb2d518ee8eaa","false","false","Airplane","https://kisumu-drawings.s3-us-west-1.amazonaws.com/25-006.png","0","Airplane","25-006.png"
"","10470","image-button-response","24","null","196991","685c6ca90f751d3aae6b1794","685c6e0e8a959c95f091e708","65fb580ab7fbb2d518ee8eaa","false","false","Hat","https://kisumu-drawings.s3-us-west-1.amazonaws.com/25-011.png","7","Hat","25-011.png"
"","11070","image-button-response","25","null","208575","685c6ca90f751d3aae6b1794","685c6e0e8a959c95f091e708","65fb580ab7fbb2d518ee8eaa","false","false","Car","https://kisumu-drawings.s3-us-west-1.amazonaws.com/5-006.png","7","Hat","5-006.png"
"","3619","image-button-response","26","null","212709","685c6ca90f751d3aae6b1794","685c6e0e8a959c95f091e708","65fb580ab7fbb2d518ee8eaa","false","false","Rabbit","https://kisumu-drawings.s3-us-west-1.amazonaws.com/60-008.png","2","Bird","60-008.png"
"","5650","image-button-response","27","null","218877","685c6ca90f751d3aae6b1794","685c6e0e8a959c95f091e708","65fb580ab7fbb2d518ee8eaa","false","false","Rabbit","https://kisumu-drawings.s3-us-west-1.amazonaws.com/106-014.png","9","Rabbit","106-014.png"
"","7670","image-button-response","28","null","227061","685c6ca90f751d3aae6b1794","685c6e0e8a959c95f091e708","65fb580ab7fbb2d518ee8eaa","false","false","Rabbit","https://kisumu-drawings.s3-us-west-1.amazonaws.com/5-005.png","7","Hat","5-005.png"
"","4750","image-button-response","29","null","232325","685c6ca90f751d3aae6b1794","685c6e0e8a959c95f091e708","65fb580ab7fbb2d518ee8eaa","false","false","Car","https://kisumu-drawings.s3-us-west-1.amazonaws.com/60-012.png","3","Car","60-012.png"
"","4319","image-button-response","30","null","237162","685c6ca90f751d3aae6b1794","685c6e0e8a959c95f091e708","65fb580ab7fbb2d518ee8eaa","false","false","Airplane","https://kisumu-drawings.s3-us-west-1.amazonaws.com/106-008.png","3","Car","106-008.png"
"","2485","image-button-response","31","null","240162","685c6ca90f751d3aae6b1794","685c6e0e8a959c95f091e708","65fb580ab7fbb2d518ee8eaa","true","false","airplane","stimuli/catch_trials/0_airplane_catch.jpg","0","Airplane",""
"","3720","image-button-response","32","null","244397","685c6ca90f751d3aae6b1794","685c6e0e8a959c95f091e708","65fb580ab7fbb2d518ee8eaa","false","false","House","https://kisumu-drawings.s3-us-west-1.amazonaws.com/67-009.png","8","House","67-009.png"
"","3104","image-button-response","33","null","248014","685c6ca90f751d3aae6b1794","685c6e0e8a959c95f091e708","65fb580ab7fbb2d518ee8eaa","false","false","Airplane","https://kisumu-drawings.s3-us-west-1.amazonaws.com/92-006.png","0","Airplane","92-006.png"
"","5203","image-button-response","34","null","253731","685c6ca90f751d3aae6b1794","685c6e0e8a959c95f091e708","65fb580ab7fbb2d518ee8eaa","false","false","Cup","https://kisumu-drawings.s3-us-west-1.amazonaws.com/106-010.png","6","Cup","106-010.png"
"","3619","image-button-response","35","null","257864","685c6ca90f751d3aae6b1794","685c6e0e8a959c95f091e708","65fb580ab7fbb2d518ee8eaa","false","false","Cat","https://kisumu-drawings.s3-us-west-1.amazonaws.com/25-010.png","2","Bird","25-010.png"
"","5969","image-button-response","36","null","264348","685c6ca90f751d3aae6b1794","685c6e0e8a959c95f091e708","65fb580ab7fbb2d518ee8eaa","false","false","Hat","https://kisumu-drawings.s3-us-west-1.amazonaws.com/5-007.png","8","House","5-007.png"
"","4087","image-button-response","37","null","268950","685c6ca90f751d3aae6b1794","685c6e0e8a959c95f091e708","65fb580ab7fbb2d518ee8eaa","false","false","Bicycle","https://kisumu-drawings.s3-us-west-1.amazonaws.com/25-005.png","3","Car","25-005.png"
"","2734","image-button-response","38","null","272199","685c6ca90f751d3aae6b1794","685c6e0e8a959c95f091e708","65fb580ab7fbb2d518ee8eaa","false","false","Cup","https://kisumu-drawings.s3-us-west-1.amazonaws.com/60-007.png","6","Cup","60-007.png"
"","2769","image-button-response","39","null","275483","685c6ca90f751d3aae6b1794","685c6e0e8a959c95f091e708","65fb580ab7fbb2d518ee8eaa","false","false","Hat","https://kisumu-drawings.s3-us-west-1.amazonaws.com/60-005.png","7","Hat","60-005.png"
"","4586","image-button-response","40","null","280582","685c6ca90f751d3aae6b1794","685c6e0e8a959c95f091e708","65fb580ab7fbb2d518ee8eaa","false","false","Bird","https://kisumu-drawings.s3-us-west-1.amazonaws.com/106-015.png","0","Airplane","106-015.png"
"","3219","image-button-response","41","null","284317","685c6ca90f751d3aae6b1794","685c6e0e8a959c95f091e708","65fb580ab7fbb2d518ee8eaa","false","false","Car","https://kisumu-drawings.s3-us-west-1.amazonaws.com/67-005.png","3","Car","67-005.png"
"","1954","image-button-response","42","null","286785","685c6ca90f751d3aae6b1794","685c6e0e8a959c95f091e708","65fb580ab7fbb2d518ee8eaa","false","false","Car","https://kisumu-drawings.s3-us-west-1.amazonaws.com/25-007.png","3","Car","25-007.png"
"","6235","image-button-response","43","null","293535","685c6ca90f751d3aae6b1794","685c6e0e8a959c95f091e708","65fb580ab7fbb2d518ee8eaa","false","false","House","https://kisumu-drawings.s3-us-west-1.amazonaws.com/5-013.png","9","Rabbit","5-013.png"
"","3854","image-button-response","44","null","297903","685c6ca90f751d3aae6b1794","685c6e0e8a959c95f091e708","65fb580ab7fbb2d518ee8eaa","false","false","Bicycle","https://kisumu-drawings.s3-us-west-1.amazonaws.com/5-015.png","9","Rabbit","5-015.png"
"","3050","image-button-response","45","null","301470","685c6ca90f751d3aae6b1794","685c6e0e8a959c95f091e708","65fb580ab7fbb2d518ee8eaa","false","false","Airplane","https://kisumu-drawings.s3-us-west-1.amazonaws.com/67-014.png","0","Airplane","67-014.png"
"","2319","image-button-response","46","null","304304","685c6ca90f751d3aae6b1794","685c6e0e8a959c95f091e708","65fb580ab7fbb2d518ee8eaa","false","false","Cup","https://kisumu-drawings.s3-us-west-1.amazonaws.com/92-010.png","6","Cup","92-010.png"
"","6468","image-button-response","47","null","311286","685c6ca90f751d3aae6b1794","685c6e0e8a959c95f091e708","65fb580ab7fbb2d518ee8eaa","false","false","Chair","https://kisumu-drawings.s3-us-west-1.amazonaws.com/92-009.png","5","Chair","92-009.png"
"","6219","image-button-response","48","null","318021","685c6ca90f751d3aae6b1794","685c6e0e8a959c95f091e708","65fb580ab7fbb2d518ee8eaa","false","false","Cat","https://kisumu-drawings.s3-us-west-1.amazonaws.com/5-011.png","9","Rabbit","5-011.png"
"","12971","image-button-response","49","null","331506","685c6ca90f751d3aae6b1794","685c6e0e8a959c95f091e708","65fb580ab7fbb2d518ee8eaa","false","false","Bird","https://kisumu-drawings.s3-us-west-1.amazonaws.com/25-008.png","8","House","25-008.png"
"","5500","image-button-response","50","null","337522","685c6ca90f751d3aae6b1794","685c6e0e8a959c95f091e708","65fb580ab7fbb2d518ee8eaa","false","false","Rabbit","https://kisumu-drawings.s3-us-west-1.amazonaws.com/92-016.png","4","Cat","92-016.png"
"","2671","image-button-response","51","null","340707","685c6ca90f751d3aae6b1794","685c6e0e8a959c95f091e708","65fb580ab7fbb2d518ee8eaa","false","false","Cat","https://kisumu-drawings.s3-us-west-1.amazonaws.com/67-013.png","4","Cat","67-013.png"
"","2286","image-button-response","52","null","343507","685c6ca90f751d3aae6b1794","685c6e0e8a959c95f091e708","65fb580ab7fbb2d518ee8eaa","false","false","Cup","https://kisumu-drawings.s3-us-west-1.amazonaws.com/67-011.png","6","Cup","67-011.png"
"","4336","image-button-response","53","null","348357","685c6ca90f751d3aae6b1794","685c6e0e8a959c95f091e708","65fb580ab7fbb2d518ee8eaa","false","false","Airplane","https://kisumu-drawings.s3-us-west-1.amazonaws.com/5-010.png","9","Rabbit","5-010.png"
"","2652","image-button-response","54","null","351523","685c6ca90f751d3aae6b1794","685c6e0e8a959c95f091e708","65fb580ab7fbb2d518ee8eaa","false","false","Hat","https://kisumu-drawings.s3-us-west-1.amazonaws.com/67-012.png","9","Rabbit","67-012.png"
"","3269","image-button-response","55","null","355307","685c6ca90f751d3aae6b1794","685c6e0e8a959c95f091e708","65fb580ab7fbb2d518ee8eaa","false","false","Bird","https://kisumu-drawings.s3-us-west-1.amazonaws.com/92-012.png","2","Bird","92-012.png"
"","3070","image-button-response","56","null","358892","685c6ca90f751d3aae6b1794","685c6e0e8a959c95f091e708","65fb580ab7fbb2d518ee8eaa","false","false","Chair","https://kisumu-drawings.s3-us-west-1.amazonaws.com/67-010.png","5","Chair","67-010.png"
"","3536","image-button-response","57","null","362942","685c6ca90f751d3aae6b1794","685c6e0e8a959c95f091e708","65fb580ab7fbb2d518ee8eaa","false","false","House","https://kisumu-drawings.s3-us-west-1.amazonaws.com/92-013.png","8","House","92-013.png"
"","2319","image-button-response","58","null","365775","685c6ca90f751d3aae6b1794","685c6e0e8a959c95f091e708","65fb580ab7fbb2d518ee8eaa","false","false","Car","https://kisumu-drawings.s3-us-west-1.amazonaws.com/106-016.png","3","Car","106-016.png"
"","7487","image-button-response","59","null","373776","685c6ca90f751d3aae6b1794","685c6e0e8a959c95f091e708","65fb580ab7fbb2d518ee8eaa","false","false","Bird","https://kisumu-drawings.s3-us-west-1.amazonaws.com/5-016.png","7","Hat","5-016.png"
"","2950","image-button-response","60","null","377243","685c6ca90f751d3aae6b1794","685c6e0e8a959c95f091e708","65fb580ab7fbb2d518ee8eaa","false","false","Bicycle","https://kisumu-drawings.s3-us-west-1.amazonaws.com/106-009.png","1","Bicycle","106-009.png"
"","3636","image-button-response","61","null","381396","685c6ca90f751d3aae6b1794","685c6e0e8a959c95f091e708","65fb580ab7fbb2d518ee8eaa","false","false","Watch","https://kisumu-drawings.s3-us-west-1.amazonaws.com/5-009.png","7","Hat","5-009.png"
"","2068","image-button-response","62","null","383977","685c6ca90f751d3aae6b1794","685c6e0e8a959c95f091e708","65fb580ab7fbb2d518ee8eaa","false","false","Watch","https://kisumu-drawings.s3-us-west-1.amazonaws.com/106-006.png","11","Watch","106-006.png"
"","2768","image-button-response","63","null","387260","685c6ca90f751d3aae6b1794","685c6e0e8a959c95f091e708","65fb580ab7fbb2d518ee8eaa","false","false","Cat","https://kisumu-drawings.s3-us-west-1.amazonaws.com/106-005.png","9","Rabbit","106-005.png"
"","2618","image-button-response","64","null","390394","685c6ca90f751d3aae6b1794","685c6e0e8a959c95f091e708","65fb580ab7fbb2d518ee8eaa","false","false","Rabbit","https://kisumu-drawings.s3-us-west-1.amazonaws.com/67-007.png","9","Rabbit","67-007.png"
"","2185","image-button-response","65","null","393094","685c6ca90f751d3aae6b1794","685c6e0e8a959c95f091e708","65fb580ab7fbb2d518ee8eaa","false","false","House","https://kisumu-drawings.s3-us-west-1.amazonaws.com/106-013.png","8","House","106-013.png"
"","4237","image-button-response","66","null","397846","685c6ca90f751d3aae6b1794","685c6e0e8a959c95f091e708","65fb580ab7fbb2d518ee8eaa","false","false","Rabbit","https://kisumu-drawings.s3-us-west-1.amazonaws.com/25-013.png","9","Rabbit","25-013.png"
"","3434","image-button-response","67","null","401792","685c6ca90f751d3aae6b1794","685c6e0e8a959c95f091e708","65fb580ab7fbb2d518ee8eaa","false","false","Bird","https://kisumu-drawings.s3-us-west-1.amazonaws.com/60-014.png","2","Bird","60-014.png"
"","1620","image-button-response","68","null","403931","685c6ca90f751d3aae6b1794","685c6e0e8a959c95f091e708","65fb580ab7fbb2d518ee8eaa","false","false","Bird","https://kisumu-drawings.s3-us-west-1.amazonaws.com/67-016.png","2","Bird","67-016.png"
"","2451","image-button-response","69","null","406895","685c6ca90f751d3aae6b1794","685c6e0e8a959c95f091e708","65fb580ab7fbb2d518ee8eaa","false","false","Watch","https://kisumu-drawings.s3-us-west-1.amazonaws.com/92-008.png","11","Watch","92-008.png"
"","3202","image-button-response","70","null","410614","685c6ca90f751d3aae6b1794","685c6e0e8a959c95f091e708","65fb580ab7fbb2d518ee8eaa","false","false","Tree","https://kisumu-drawings.s3-us-west-1.amazonaws.com/60-009.png","10","Tree","60-009.png"
"","4785","image-button-response","71","null","415912","685c6ca90f751d3aae6b1794","685c6e0e8a959c95f091e708","65fb580ab7fbb2d518ee8eaa","false","false","Cat","https://kisumu-drawings.s3-us-west-1.amazonaws.com/59-008.png","4","Cat","59-008.png"
"","4153","image-button-response","72","null","420581","685c6ca90f751d3aae6b1794","685c6e0e8a959c95f091e708","65fb580ab7fbb2d518ee8eaa","false","false","Hat","https://kisumu-drawings.s3-us-west-1.amazonaws.com/106-011.png","8","House","106-011.png"
"","6003","image-button-response","73","null","427098","685c6ca90f751d3aae6b1794","685c6e0e8a959c95f091e708","65fb580ab7fbb2d518ee8eaa","false","false","Tree","https://kisumu-drawings.s3-us-west-1.amazonaws.com/25-016.png","4","Cat","25-016.png"
"","3936","image-button-response","74","null","431549","685c6ca90f751d3aae6b1794","685c6e0e8a959c95f091e708","65fb580ab7fbb2d518ee8eaa","false","false","Bicycle","https://kisumu-drawings.s3-us-west-1.amazonaws.com/92-005.png","1","Bicycle","92-005.png"
"","2553","image-button-response","75","null","434616","685c6ca90f751d3aae6b1794","685c6e0e8a959c95f091e708","65fb580ab7fbb2d518ee8eaa","false","false","Hat","https://kisumu-drawings.s3-us-west-1.amazonaws.com/92-011.png","7","Hat","92-011.png"
