"view_history","rt","trial_type","trial_index","plugin_version","time_elapsed","study_id","session_id","participant_id","catch_trial","prep_trial","sketcher_category","stimulus","response","response_category","sketch_id"
"[{""page_index"":0,""viewing_time"":10328},{""page_index"":1,""viewing_time"":4342},{""page_index"":2,""viewing_time"":5933},{""page_index"":3,""viewing_time"":20429}]","41032","instructions","0","null","41051","685c6ca90f751d3aae6b1794","685c6dcda98e5ddad888077f","66041eef8bb7bb7f12624252","","","","","","",""
"","4182","image-button-response","1","null","46242","685c6ca90f751d3aae6b1794","685c6dcda98e5ddad888077f","66041eef8bb7bb7f12624252","false","true","car","stimuli/prep_trials/1_car_prep.png","3","Car",""
"","3651","image-button-response","2","null","50396","685c6ca90f751d3aae6b1794","685c6dcda98e5ddad888077f","66041eef8bb7bb7f12624252","false","true","cat","stimuli/prep_trials/0_cat_prep.jpg","4","Cat",""
"","17669","image-button-response","3","null","68568","685c6ca90f751d3aae6b1794","685c6dcda98e5ddad888077f","66041eef8bb7bb7f12624252","false","false","House","https://kisumu-drawings.s3-us-west-1.amazonaws.com/56-015.png","6","Cup","56-015.png"
"","6247","image-button-response","4","null","75265","685c6ca90f751d3aae6b1794","685c6dcda98e5ddad888077f","66041eef8bb7bb7f12624252","false","false","Chair","https://kisumu-drawings.s3-us-west-1.amazonaws.com/102-010.png","5","Chair","102-010.png"
"","4995","image-button-response","5","null","80763","685c6ca90f751d3aae6b1794","685c6dcda98e5ddad888077f","66041eef8bb7bb7f12624252","false","false","Tree","https://kisumu-drawings.s3-us-west-1.amazonaws.com/85-011.png","10","Tree","85-011.png"
"","9104","image-button-response","6","null","90371","685c6ca90f751d3aae6b1794","685c6dcda98e5ddad888077f","66041eef8bb7bb7f12624252","false","false","Watch","https://kisumu-drawings.s3-us-west-1.amazonaws.com/102-009.png","11","Watch","102-009.png"
"","5317","image-button-response","7","null","96191","685c6ca90f751d3aae6b1794","685c6dcda98e5ddad888077f","66041eef8bb7bb7f12624252","false","false","Chair","https://kisumu-drawings.s3-us-west-1.amazonaws.com/85-009.png","5","Chair","85-009.png"
"","23273","image-button-response","8","null","119967","685c6ca90f751d3aae6b1794","685c6dcda98e5ddad888077f","66041eef8bb7bb7f12624252","false","false","Car","https://kisumu-drawings.s3-us-west-1.amazonaws.com/85-005.png","3","Car","85-005.png"
"","4702","image-button-response","9","null","125172","685c6ca90f751d3aae6b1794","685c6dcda98e5ddad888077f","66041eef8bb7bb7f12624252","false","false","Airplane","https://kisumu-drawings.s3-us-west-1.amazonaws.com/85-013.png","0","Airplane","85-013.png"
"","3869","image-button-response","10","null","129544","685c6ca90f751d3aae6b1794","685c6dcda98e5ddad888077f","66041eef8bb7bb7f12624252","false","false","Bicycle","https://kisumu-drawings.s3-us-west-1.amazonaws.com/22-007.png","1","Bicycle","22-007.png"
"","4612","image-button-response","11","null","134659","685c6ca90f751d3aae6b1794","685c6dcda98e5ddad888077f","66041eef8bb7bb7f12624252","false","false","Tree","https://kisumu-drawings.s3-us-west-1.amazonaws.com/62-016.png","10","Tree","62-016.png"
"","3502","image-button-response","12","null","138664","685c6ca90f751d3aae6b1794","685c6dcda98e5ddad888077f","66041eef8bb7bb7f12624252","false","false","House","https://kisumu-drawings.s3-us-west-1.amazonaws.com/20-010.png","2","Bird","20-010.png"
"","3337","image-button-response","13","null","142504","685c6ca90f751d3aae6b1794","685c6dcda98e5ddad888077f","66041eef8bb7bb7f12624252","false","false","Cat","https://kisumu-drawings.s3-us-west-1.amazonaws.com/62-011.png","4","Cat","62-011.png"
"","26782","image-button-response","14","null","169789","685c6ca90f751d3aae6b1794","685c6dcda98e5ddad888077f","66041eef8bb7bb7f12624252","false","false","Rabbit","https://kisumu-drawings.s3-us-west-1.amazonaws.com/22-016.png","9","Rabbit","22-016.png"
"","5287","image-button-response","15","null","175579","685c6ca90f751d3aae6b1794","685c6dcda98e5ddad888077f","66041eef8bb7bb7f12624252","false","false","Watch","https://kisumu-drawings.s3-us-west-1.amazonaws.com/85-012.png","11","Watch","85-012.png"
"","2933","image-button-response","16","null","179015","685c6ca90f751d3aae6b1794","685c6dcda98e5ddad888077f","66041eef8bb7bb7f12624252","false","false","Watch","https://kisumu-drawings.s3-us-west-1.amazonaws.com/62-005.png","11","Watch","62-005.png"
"","6307","image-button-response","17","null","185825","685c6ca90f751d3aae6b1794","685c6dcda98e5ddad888077f","66041eef8bb7bb7f12624252","false","false","Chair","https://kisumu-drawings.s3-us-west-1.amazonaws.com/22-006.png","5","Chair","22-006.png"
"","3226","image-button-response","18","null","189553","685c6ca90f751d3aae6b1794","685c6dcda98e5ddad888077f","66041eef8bb7bb7f12624252","false","false","House","https://kisumu-drawings.s3-us-west-1.amazonaws.com/62-014.png","8","House","62-014.png"
"","4027","image-button-response","19","null","194083","685c6ca90f751d3aae6b1794","685c6dcda98e5ddad888077f","66041eef8bb7bb7f12624252","false","false","Hat","https://kisumu-drawings.s3-us-west-1.amazonaws.com/102-007.png","7","Hat","102-007.png"
"","11738","image-button-response","20","null","206323","685c6ca90f751d3aae6b1794","685c6dcda98e5ddad888077f","66041eef8bb7bb7f12624252","false","false","Rabbit","https://kisumu-drawings.s3-us-west-1.amazonaws.com/62-006.png","4","Cat","62-006.png"
"","27599","image-button-response","21","null","234425","685c6ca90f751d3aae6b1794","685c6dcda98e5ddad888077f","66041eef8bb7bb7f12624252","false","false","Bird","https://kisumu-drawings.s3-us-west-1.amazonaws.com/56-008.png","0","Airplane","56-008.png"
"","17482","image-button-response","22","null","252411","685c6ca90f751d3aae6b1794","685c6dcda98e5ddad888077f","66041eef8bb7bb7f12624252","false","false","Rabbit","https://kisumu-drawings.s3-us-west-1.amazonaws.com/56-016.png","9","Rabbit","56-016.png"
"","3945","image-button-response","23","null","256859","685c6ca90f751d3aae6b1794","685c6dcda98e5ddad888077f","66041eef8bb7bb7f12624252","false","false","Cup","https://kisumu-drawings.s3-us-west-1.amazonaws.com/62-012.png","6","Cup","62-012.png"
"","9630","image-button-response","24","null","266991","685c6ca90f751d3aae6b1794","685c6dcda98e5ddad888077f","66041eef8bb7bb7f12624252","false","false","Airplane","https://kisumu-drawings.s3-us-west-1.amazonaws.com/20-016.png","0","Airplane","20-016.png"
"","4606","image-button-response","25","null","272099","685c6ca90f751d3aae6b1794","685c6dcda98e5ddad888077f","66041eef8bb7bb7f12624252","false","false","Bird","https://kisumu-drawings.s3-us-west-1.amazonaws.com/102-013.png","2","Bird","102-013.png"
"","11400","image-button-response","26","null","284001","685c6ca90f751d3aae6b1794","685c6dcda98e5ddad888077f","66041eef8bb7bb7f12624252","false","false","Airplane","https://kisumu-drawings.s3-us-west-1.amazonaws.com/56-009.png","0","Airplane","56-009.png"
"","4071","image-button-response","27","null","288575","685c6ca90f751d3aae6b1794","685c6dcda98e5ddad888077f","66041eef8bb7bb7f12624252","false","false","Car","https://kisumu-drawings.s3-us-west-1.amazonaws.com/102-011.png","3","Car","102-011.png"
"","1590","image-button-response","28","null","290667","685c6ca90f751d3aae6b1794","685c6dcda98e5ddad888077f","66041eef8bb7bb7f12624252","true","false","airplane","stimuli/catch_trials/0_airplane_catch.jpg","0","Airplane",""
"","4345","image-button-response","29","null","295514","685c6ca90f751d3aae6b1794","685c6dcda98e5ddad888077f","66041eef8bb7bb7f12624252","false","false","House","https://kisumu-drawings.s3-us-west-1.amazonaws.com/102-006.png","8","House","102-006.png"
"","13995","image-button-response","30","null","310012","685c6ca90f751d3aae6b1794","685c6dcda98e5ddad888077f","66041eef8bb7bb7f12624252","false","false","Bicycle","https://kisumu-drawings.s3-us-west-1.amazonaws.com/56-007.png","3","Car","56-007.png"
"","5716","image-button-response","31","null","316230","685c6ca90f751d3aae6b1794","685c6dcda98e5ddad888077f","66041eef8bb7bb7f12624252","false","false","Cat","https://kisumu-drawings.s3-us-west-1.amazonaws.com/22-005.png","4","Cat","22-005.png"
"","3765","image-button-response","32","null","320497","685c6ca90f751d3aae6b1794","685c6dcda98e5ddad888077f","66041eef8bb7bb7f12624252","false","false","House","https://kisumu-drawings.s3-us-west-1.amazonaws.com/22-013.png","8","House","22-013.png"
"","4816","image-button-response","33","null","325815","685c6ca90f751d3aae6b1794","685c6dcda98e5ddad888077f","66041eef8bb7bb7f12624252","false","false","Tree","https://kisumu-drawings.s3-us-west-1.amazonaws.com/22-014.png","10","Tree","22-014.png"
"","4283","image-button-response","34","null","330600","685c6ca90f751d3aae6b1794","685c6dcda98e5ddad888077f","66041eef8bb7bb7f12624252","false","false","Tree","https://kisumu-drawings.s3-us-west-1.amazonaws.com/20-012.png","10","Tree","20-012.png"
"","8258","image-button-response","35","null","339361","685c6ca90f751d3aae6b1794","685c6dcda98e5ddad888077f","66041eef8bb7bb7f12624252","false","false","Bird","https://kisumu-drawings.s3-us-west-1.amazonaws.com/22-011.png","10","Tree","22-011.png"
"","11069","image-button-response","36","null","350932","685c6ca90f751d3aae6b1794","685c6dcda98e5ddad888077f","66041eef8bb7bb7f12624252","false","false","Hat","https://kisumu-drawings.s3-us-west-1.amazonaws.com/20-006.png","11","Watch","20-006.png"
"","2987","image-button-response","37","null","354421","685c6ca90f751d3aae6b1794","685c6dcda98e5ddad888077f","66041eef8bb7bb7f12624252","false","false","Airplane","https://kisumu-drawings.s3-us-west-1.amazonaws.com/102-016.png","0","Airplane","102-016.png"
"","17167","image-button-response","38","null","372090","685c6ca90f751d3aae6b1794","685c6dcda98e5ddad888077f","66041eef8bb7bb7f12624252","false","false","Chair","https://kisumu-drawings.s3-us-west-1.amazonaws.com/56-010.png","7","Hat","56-010.png"
"","2641","image-button-response","39","null","375233","685c6ca90f751d3aae6b1794","685c6dcda98e5ddad888077f","66041eef8bb7bb7f12624252","false","false","House","https://kisumu-drawings.s3-us-west-1.amazonaws.com/85-016.png","8","House","85-016.png"
"","1942","image-button-response","40","null","377678","685c6ca90f751d3aae6b1794","685c6dcda98e5ddad888077f","66041eef8bb7bb7f12624252","false","false","Tree","https://kisumu-drawings.s3-us-west-1.amazonaws.com/102-014.png","10","Tree","102-014.png"
"","2566","image-button-response","41","null","380747","685c6ca90f751d3aae6b1794","685c6dcda98e5ddad888077f","66041eef8bb7bb7f12624252","false","false","Bicycle","https://kisumu-drawings.s3-us-west-1.amazonaws.com/102-015.png","1","Bicycle","102-015.png"
"","3712","image-button-response","42","null","384960","685c6ca90f751d3aae6b1794","685c6dcda98e5ddad888077f","66041eef8bb7bb7f12624252","false","false","Car","https://kisumu-drawings.s3-us-west-1.amazonaws.com/56-012.png","3","Car","56-012.png"
"","19170","image-button-response","43","null","404633","685c6ca90f751d3aae6b1794","685c6dcda98e5ddad888077f","66041eef8bb7bb7f12624252","false","false","Cat","https://kisumu-drawings.s3-us-west-1.amazonaws.com/20-008.png","9","Rabbit","20-008.png"
"","6631","image-button-response","44","null","411766","685c6ca90f751d3aae6b1794","685c6dcda98e5ddad888077f","66041eef8bb7bb7f12624252","false","false","Watch","https://kisumu-drawings.s3-us-west-1.amazonaws.com/20-014.png","0","Airplane","20-014.png"
"","3885","image-button-response","45","null","416153","685c6ca90f751d3aae6b1794","685c6dcda98e5ddad888077f","66041eef8bb7bb7f12624252","false","false","Rabbit","https://kisumu-drawings.s3-us-west-1.amazonaws.com/20-011.png","0","Airplane","20-011.png"
"","2647","image-button-response","46","null","419304","685c6ca90f751d3aae6b1794","685c6dcda98e5ddad888077f","66041eef8bb7bb7f12624252","false","false","Car","https://kisumu-drawings.s3-us-west-1.amazonaws.com/22-009.png","3","Car","22-009.png"
"","7141","image-button-response","47","null","426947","685c6ca90f751d3aae6b1794","685c6dcda98e5ddad888077f","66041eef8bb7bb7f12624252","false","false","Hat","https://kisumu-drawings.s3-us-west-1.amazonaws.com/56-014.png","6","Cup","56-014.png"
"","3690","image-button-response","48","null","431139","685c6ca90f751d3aae6b1794","685c6dcda98e5ddad888077f","66041eef8bb7bb7f12624252","false","false","Rabbit","https://kisumu-drawings.s3-us-west-1.amazonaws.com/102-005.png","2","Bird","102-005.png"
"","10756","image-button-response","49","null","442397","685c6ca90f751d3aae6b1794","685c6dcda98e5ddad888077f","66041eef8bb7bb7f12624252","false","false","Airplane","https://kisumu-drawings.s3-us-west-1.amazonaws.com/62-009.png","0","Airplane","62-009.png"
"","19004","image-button-response","50","null","461904","685c6ca90f751d3aae6b1794","685c6dcda98e5ddad888077f","66041eef8bb7bb7f12624252","false","false","Chair","https://kisumu-drawings.s3-us-west-1.amazonaws.com/20-013.png","2","Bird","20-013.png"
"","6772","image-button-response","51","null","469179","685c6ca90f751d3aae6b1794","685c6dcda98e5ddad888077f","66041eef8bb7bb7f12624252","false","false","Bird","https://kisumu-drawings.s3-us-west-1.amazonaws.com/62-010.png","2","Bird","62-010.png"
"","8237","image-button-response","52","null","477918","685c6ca90f751d3aae6b1794","685c6dcda98e5ddad888077f","66041eef8bb7bb7f12624252","false","false","Cat","https://kisumu-drawings.s3-us-west-1.amazonaws.com/85-008.png","2","Bird","85-008.png"
"","4094","image-button-response","53","null","482514","685c6ca90f751d3aae6b1794","685c6dcda98e5ddad888077f","66041eef8bb7bb7f12624252","false","false","Rabbit","https://kisumu-drawings.s3-us-west-1.amazonaws.com/85-010.png","9","Rabbit","85-010.png"
"","2378","image-button-response","54","null","485395","685c6ca90f751d3aae6b1794","685c6dcda98e5ddad888077f","66041eef8bb7bb7f12624252","false","false","Cup","https://kisumu-drawings.s3-us-west-1.amazonaws.com/85-014.png","6","Cup","85-014.png"
"","3136","image-button-response","55","null","489033","685c6ca90f751d3aae6b1794","685c6dcda98e5ddad888077f","66041eef8bb7bb7f12624252","false","false","Cat","https://kisumu-drawings.s3-us-west-1.amazonaws.com/60-013.png","4","Cat","60-013.png"
"","4934","image-button-response","56","null","494470","685c6ca90f751d3aae6b1794","685c6dcda98e5ddad888077f","66041eef8bb7bb7f12624252","false","false","Watch","https://kisumu-drawings.s3-us-west-1.amazonaws.com/22-010.png","9","Rabbit","22-010.png"
"","2303","image-button-response","57","null","497275","685c6ca90f751d3aae6b1794","685c6dcda98e5ddad888077f","66041eef8bb7bb7f12624252","false","false","Bicycle","https://kisumu-drawings.s3-us-west-1.amazonaws.com/62-008.png","1","Bicycle","62-008.png"
"","4427","image-button-response","58","null","502204","685c6ca90f751d3aae6b1794","685c6dcda98e5ddad888077f","66041eef8bb7bb7f12624252","false","false","Airplane","https://kisumu-drawings.s3-us-west-1.amazonaws.com/22-012.png","0","Airplane","22-012.png"
"","14393","image-button-response","59","null","517098","685c6ca90f751d3aae6b1794","685c6dcda98e5ddad888077f","66041eef8bb7bb7f12624252","false","false","Cup","https://kisumu-drawings.s3-us-west-1.amazonaws.com/20-009.png","6","Cup","20-009.png"
"","2999","image-button-response","60","null","520600","685c6ca90f751d3aae6b1794","685c6dcda98e5ddad888077f","66041eef8bb7bb7f12624252","false","false","Hat","https://kisumu-drawings.s3-us-west-1.amazonaws.com/85-015.png","0","Airplane","85-015.png"
"","7097","image-button-response","61","null","528198","685c6ca90f751d3aae6b1794","685c6dcda98e5ddad888077f","66041eef8bb7bb7f12624252","false","false","Hat","https://kisumu-drawings.s3-us-west-1.amazonaws.com/62-015.png","7","Hat","62-015.png"
"","8887","image-button-response","62","null","537594","685c6ca90f751d3aae6b1794","685c6dcda98e5ddad888077f","66041eef8bb7bb7f12624252","false","false","Bicycle","https://kisumu-drawings.s3-us-west-1.amazonaws.com/20-015.png","10","Tree","20-015.png"
"","8056","image-button-response","63","null","546152","685c6ca90f751d3aae6b1794","685c6dcda98e5ddad888077f","66041eef8bb7bb7f12624252","false","false","Cup","https://kisumu-drawings.s3-us-west-1.amazonaws.com/22-015.png","7","Hat","22-015.png"
"","4165","image-button-response","64","null","550819","685c6ca90f751d3aae6b1794","685c6dcda98e5ddad888077f","66041eef8bb7bb7f12624252","false","false","Cup","https://kisumu-drawings.s3-us-west-1.amazonaws.com/102-008.png","6","Cup","102-008.png"
"","7784","image-button-response","65","null","559106","685c6ca90f751d3aae6b1794","685c6dcda98e5ddad888077f","66041eef8bb7bb7f12624252","false","false","Car","https://kisumu-drawings.s3-us-west-1.amazonaws.com/20-007.png","2","Bird","20-007.png"
"","8093","image-button-response","66","null","567701","685c6ca90f751d3aae6b1794","685c6dcda98e5ddad888077f","66041eef8bb7bb7f12624252","false","false","Bicycle","https://kisumu-drawings.s3-us-west-1.amazonaws.com/85-006.png","3","Car","85-006.png"
"","4486","image-button-response","67","null","572689","685c6ca90f751d3aae6b1794","685c6dcda98e5ddad888077f","66041eef8bb7bb7f12624252","false","false","Bird","https://kisumu-drawings.s3-us-west-1.amazonaws.com/20-005.png","0","Airplane","20-005.png"
"","3105","image-button-response","68","null","576297","685c6ca90f751d3aae6b1794","685c6dcda98e5ddad888077f","66041eef8bb7bb7f12624252","false","false","Bird","https://kisumu-drawings.s3-us-west-1.amazonaws.com/85-007.png","2","Bird","85-007.png"
"","6744","image-button-response","69","null","583549","685c6ca90f751d3aae6b1794","685c6dcda98e5ddad888077f","66041eef8bb7bb7f12624252","false","false","Hat","https://kisumu-drawings.s3-us-west-1.amazonaws.com/22-008.png","2","Bird","22-008.png"
"","4694","image-button-response","70","null","588746","685c6ca90f751d3aae6b1794","685c6dcda98e5ddad888077f","66041eef8bb7bb7f12624252","false","false","Chair","https://kisumu-drawings.s3-us-west-1.amazonaws.com/62-013.png","5","Chair","62-013.png"
"","2257","image-button-response","71","null","591506","685c6ca90f751d3aae6b1794","685c6dcda98e5ddad888077f","66041eef8bb7bb7f12624252","false","false","Tree","https://kisumu-drawings.s3-us-west-1.amazonaws.com/56-006.png","10","Tree","56-006.png"
"","7958","image-button-response","72","null","599966","685c6ca90f751d3aae6b1794","685c6dcda98e5ddad888077f","66041eef8bb7bb7f12624252","false","false","Car","https://kisumu-drawings.s3-us-west-1.amazonaws.com/62-007.png","3","Car","62-007.png"
"","2963","image-button-response","73","null","603432","685c6ca90f751d3aae6b1794","685c6dcda98e5ddad888077f","66041eef8bb7bb7f12624252","false","false","Cat","https://kisumu-drawings.s3-us-west-1.amazonaws.com/102-012.png","4","Cat","102-012.png"
"","25957","image-button-response","74","null","629892","685c6ca90f751d3aae6b1794","685c6dcda98e5ddad888077f","66041eef8bb7bb7f12624252","false","false","Cup","https://kisumu-drawings.s3-us-west-1.amazonaws.com/56-011.png","9","Rabbit","56-011.png"
"","4700","image-button-response","75","null","635095","685c6ca90f751d3aae6b1794","685c6dcda98e5ddad888077f","66041eef8bb7bb7f12624252","false","false","Watch","https://kisumu-drawings.s3-us-west-1.amazonaws.com/56-005.png","11","Watch","56-005.png"
