"view_history","rt","trial_type","trial_index","plugin_version","time_elapsed","study_id","session_id","participant_id","catch_trial","prep_trial","sketcher_category","stimulus","response","response_category","sketch_id"
"[{""page_index"":0,""viewing_time"":43933},{""page_index"":1,""viewing_time"":6085},{""page_index"":2,""viewing_time"":7868},{""page_index"":3,""viewing_time"":9686}]","67573","instructions","0","null","67577","685c6ca90f751d3aae6b1794","685c6e075ebd7bcfe64c3da7","660c0f5e2194f64ac63b0930","","","","","","",""
"","2379","image-button-response","1","null","70963","685c6ca90f751d3aae6b1794","685c6e075ebd7bcfe64c3da7","660c0f5e2194f64ac63b0930","false","true","car","stimuli/prep_trials/1_car_prep.png","3","Car",""
"","1796","image-button-response","2","null","73262","685c6ca90f751d3aae6b1794","685c6e075ebd7bcfe64c3da7","660c0f5e2194f64ac63b0930","false","true","cat","stimuli/prep_trials/0_cat_prep.jpg","4","Cat",""
"","4747","image-button-response","3","null","78512","685c6ca90f751d3aae6b1794","685c6e075ebd7bcfe64c3da7","660c0f5e2194f64ac63b0930","false","false","Chair","https://kisumu-drawings.s3-us-west-1.amazonaws.com/2-005.png","5","Chair","2-005.png"
"","4232","image-button-response","4","null","83247","685c6ca90f751d3aae6b1794","685c6e075ebd7bcfe64c3da7","660c0f5e2194f64ac63b0930","false","false","Chair","https://kisumu-drawings.s3-us-west-1.amazonaws.com/57-009.png","5","Chair","57-009.png"
"","6665","image-button-response","5","null","90415","685c6ca90f751d3aae6b1794","685c6e075ebd7bcfe64c3da7","660c0f5e2194f64ac63b0930","false","false","Cat","https://kisumu-drawings.s3-us-west-1.amazonaws.com/2-015.png","2","Bird","2-015.png"
"","9865","image-button-response","6","null","100783","685c6ca90f751d3aae6b1794","685c6e075ebd7bcfe64c3da7","660c0f5e2194f64ac63b0930","false","false","Hat","https://kisumu-drawings.s3-us-west-1.amazonaws.com/23-014.png","6","Cup","23-014.png"
"","2597","image-button-response","7","null","103884","685c6ca90f751d3aae6b1794","685c6e075ebd7bcfe64c3da7","660c0f5e2194f64ac63b0930","false","false","Car","https://kisumu-drawings.s3-us-west-1.amazonaws.com/23-011.png","3","Car","23-011.png"
"","5280","image-button-response","8","null","109668","685c6ca90f751d3aae6b1794","685c6e075ebd7bcfe64c3da7","660c0f5e2194f64ac63b0930","false","false","Rabbit","https://kisumu-drawings.s3-us-west-1.amazonaws.com/64-007.png","2","Bird","64-007.png"
"","3680","image-button-response","9","null","113852","685c6ca90f751d3aae6b1794","685c6e075ebd7bcfe64c3da7","660c0f5e2194f64ac63b0930","false","false","Cup","https://kisumu-drawings.s3-us-west-1.amazonaws.com/2-007.png","6","Cup","2-007.png"
"","5249","image-button-response","10","null","119603","685c6ca90f751d3aae6b1794","685c6e075ebd7bcfe64c3da7","660c0f5e2194f64ac63b0930","false","false","Bicycle","https://kisumu-drawings.s3-us-west-1.amazonaws.com/24-010.png","0","Airplane","24-010.png"
"","10883","image-button-response","11","null","130988","685c6ca90f751d3aae6b1794","685c6e075ebd7bcfe64c3da7","660c0f5e2194f64ac63b0930","false","false","Tree","https://kisumu-drawings.s3-us-west-1.amazonaws.com/2-009.png","10","Tree","2-009.png"
"","11134","image-button-response","12","null","142624","685c6ca90f751d3aae6b1794","685c6e075ebd7bcfe64c3da7","660c0f5e2194f64ac63b0930","false","false","Watch","https://kisumu-drawings.s3-us-west-1.amazonaws.com/103-012.png","11","Watch","103-012.png"
"","3014","image-button-response","13","null","146141","685c6ca90f751d3aae6b1794","685c6e075ebd7bcfe64c3da7","660c0f5e2194f64ac63b0930","false","false","Airplane","https://kisumu-drawings.s3-us-west-1.amazonaws.com/104-006.png","0","Airplane","104-006.png"
"","2164","image-button-response","14","null","148808","685c6ca90f751d3aae6b1794","685c6e075ebd7bcfe64c3da7","660c0f5e2194f64ac63b0930","false","false","Cup","https://kisumu-drawings.s3-us-west-1.amazonaws.com/103-006.png","6","Cup","103-006.png"
"","2515","image-button-response","15","null","151825","685c6ca90f751d3aae6b1794","685c6e075ebd7bcfe64c3da7","660c0f5e2194f64ac63b0930","false","false","Airplane","https://kisumu-drawings.s3-us-west-1.amazonaws.com/57-014.png","3","Car","57-014.png"
"","1731","image-button-response","16","null","154059","685c6ca90f751d3aae6b1794","685c6e075ebd7bcfe64c3da7","660c0f5e2194f64ac63b0930","false","false","Chair","https://kisumu-drawings.s3-us-west-1.amazonaws.com/23-005.png","5","Chair","23-005.png"
"","1998","image-button-response","17","null","156559","685c6ca90f751d3aae6b1794","685c6e075ebd7bcfe64c3da7","660c0f5e2194f64ac63b0930","false","false","Car","https://kisumu-drawings.s3-us-west-1.amazonaws.com/2-016.png","3","Car","2-016.png"
"","2348","image-button-response","18","null","159409","685c6ca90f751d3aae6b1794","685c6e075ebd7bcfe64c3da7","660c0f5e2194f64ac63b0930","false","false","House","https://kisumu-drawings.s3-us-west-1.amazonaws.com/64-008.png","8","House","64-008.png"
"","1415","image-button-response","19","null","161326","685c6ca90f751d3aae6b1794","685c6e075ebd7bcfe64c3da7","660c0f5e2194f64ac63b0930","false","false","Car","https://kisumu-drawings.s3-us-west-1.amazonaws.com/58-010.png","3","Car","58-010.png"
"","1832","image-button-response","20","null","163660","685c6ca90f751d3aae6b1794","685c6e075ebd7bcfe64c3da7","660c0f5e2194f64ac63b0930","false","false","Chair","https://kisumu-drawings.s3-us-west-1.amazonaws.com/89-007.png","5","Chair","89-007.png"
"","2799","image-button-response","21","null","166961","685c6ca90f751d3aae6b1794","685c6e075ebd7bcfe64c3da7","660c0f5e2194f64ac63b0930","false","false","Chair","https://kisumu-drawings.s3-us-west-1.amazonaws.com/64-012.png","11","Watch","64-012.png"
"","2148","image-button-response","22","null","169611","685c6ca90f751d3aae6b1794","685c6e075ebd7bcfe64c3da7","660c0f5e2194f64ac63b0930","false","false","Airplane","https://kisumu-drawings.s3-us-west-1.amazonaws.com/90-014.png","0","Airplane","90-014.png"
"","1565","image-button-response","23","null","171679","685c6ca90f751d3aae6b1794","685c6e075ebd7bcfe64c3da7","660c0f5e2194f64ac63b0930","false","false","Watch","https://kisumu-drawings.s3-us-west-1.amazonaws.com/57-006.png","11","Watch","57-006.png"
"","1664","image-button-response","24","null","173845","685c6ca90f751d3aae6b1794","685c6e075ebd7bcfe64c3da7","660c0f5e2194f64ac63b0930","false","false","Bicycle","https://kisumu-drawings.s3-us-west-1.amazonaws.com/90-015.png","1","Bicycle","90-015.png"
"","7666","image-button-response","25","null","182013","685c6ca90f751d3aae6b1794","685c6e075ebd7bcfe64c3da7","660c0f5e2194f64ac63b0930","false","false","Bird","https://kisumu-drawings.s3-us-west-1.amazonaws.com/89-012.png","4","Cat","89-012.png"
"","6266","image-button-response","26","null","188781","685c6ca90f751d3aae6b1794","685c6e075ebd7bcfe64c3da7","660c0f5e2194f64ac63b0930","false","false","Watch","https://kisumu-drawings.s3-us-west-1.amazonaws.com/23-007.png","8","House","23-007.png"
"","1681","image-button-response","27","null","190965","685c6ca90f751d3aae6b1794","685c6e075ebd7bcfe64c3da7","660c0f5e2194f64ac63b0930","false","false","House","https://kisumu-drawings.s3-us-west-1.amazonaws.com/103-010.png","8","House","103-010.png"
"","2165","image-button-response","28","null","193632","685c6ca90f751d3aae6b1794","685c6e075ebd7bcfe64c3da7","660c0f5e2194f64ac63b0930","false","false","Cat","https://kisumu-drawings.s3-us-west-1.amazonaws.com/103-011.png","4","Cat","103-011.png"
"","1931","image-button-response","29","null","196066","685c6ca90f751d3aae6b1794","685c6e075ebd7bcfe64c3da7","660c0f5e2194f64ac63b0930","false","false","Hat","https://kisumu-drawings.s3-us-west-1.amazonaws.com/89-005.png","11","Watch","89-005.png"
"","2198","image-button-response","30","null","198767","685c6ca90f751d3aae6b1794","685c6e075ebd7bcfe64c3da7","660c0f5e2194f64ac63b0930","false","false","Hat","https://kisumu-drawings.s3-us-west-1.amazonaws.com/57-007.png","6","Cup","57-007.png"
"","1148","image-button-response","31","null","200417","685c6ca90f751d3aae6b1794","685c6e075ebd7bcfe64c3da7","660c0f5e2194f64ac63b0930","true","false","airplane","stimuli/catch_trials/0_airplane_catch.jpg","0","Airplane",""
"","1715","image-button-response","32","null","202634","685c6ca90f751d3aae6b1794","685c6e075ebd7bcfe64c3da7","660c0f5e2194f64ac63b0930","false","false","Tree","https://kisumu-drawings.s3-us-west-1.amazonaws.com/23-009.png","10","Tree","23-009.png"
"","3181","image-button-response","33","null","206318","685c6ca90f751d3aae6b1794","685c6e075ebd7bcfe64c3da7","660c0f5e2194f64ac63b0930","false","false","Chair","https://kisumu-drawings.s3-us-west-1.amazonaws.com/103-013.png","5","Chair","103-013.png"
"","5465","image-button-response","34","null","212285","685c6ca90f751d3aae6b1794","685c6e075ebd7bcfe64c3da7","660c0f5e2194f64ac63b0930","false","false","Bicycle","https://kisumu-drawings.s3-us-west-1.amazonaws.com/58-014.png","1","Bicycle","58-014.png"
"","2582","image-button-response","35","null","215369","685c6ca90f751d3aae6b1794","685c6e075ebd7bcfe64c3da7","660c0f5e2194f64ac63b0930","false","false","Bird","https://kisumu-drawings.s3-us-west-1.amazonaws.com/64-005.png","2","Bird","64-005.png"
"","1315","image-button-response","36","null","217186","685c6ca90f751d3aae6b1794","685c6e075ebd7bcfe64c3da7","660c0f5e2194f64ac63b0930","false","false","Bird","https://kisumu-drawings.s3-us-west-1.amazonaws.com/57-012.png","2","Bird","57-012.png"
"","1698","image-button-response","37","null","219396","685c6ca90f751d3aae6b1794","685c6e075ebd7bcfe64c3da7","660c0f5e2194f64ac63b0930","false","false","Bicycle","https://kisumu-drawings.s3-us-west-1.amazonaws.com/104-016.png","1","Bicycle","104-016.png"
"","5871","image-button-response","38","null","225771","685c6ca90f751d3aae6b1794","685c6e075ebd7bcfe64c3da7","660c0f5e2194f64ac63b0930","false","false","Rabbit","https://kisumu-drawings.s3-us-west-1.amazonaws.com/2-010.png","4","Cat","2-010.png"
"","2048","image-button-response","39","null","228322","685c6ca90f751d3aae6b1794","685c6e075ebd7bcfe64c3da7","660c0f5e2194f64ac63b0930","false","false","House","https://kisumu-drawings.s3-us-west-1.amazonaws.com/89-015.png","8","House","89-015.png"
"","8717","image-button-response","40","null","237541","685c6ca90f751d3aae6b1794","685c6e075ebd7bcfe64c3da7","660c0f5e2194f64ac63b0930","false","false","Rabbit","https://kisumu-drawings.s3-us-west-1.amazonaws.com/57-016.png","4","Cat","57-016.png"
"","1849","image-button-response","41","null","239892","685c6ca90f751d3aae6b1794","685c6e075ebd7bcfe64c3da7","660c0f5e2194f64ac63b0930","false","false","Tree","https://kisumu-drawings.s3-us-west-1.amazonaws.com/57-005.png","10","Tree","57-005.png"
"","1347","image-button-response","42","null","241742","685c6ca90f751d3aae6b1794","685c6e075ebd7bcfe64c3da7","660c0f5e2194f64ac63b0930","false","false","Tree","https://kisumu-drawings.s3-us-west-1.amazonaws.com/89-006.png","10","Tree","89-006.png"
"","1649","image-button-response","43","null","243893","685c6ca90f751d3aae6b1794","685c6e075ebd7bcfe64c3da7","660c0f5e2194f64ac63b0930","false","false","House","https://kisumu-drawings.s3-us-west-1.amazonaws.com/2-008.png","8","House","2-008.png"
"","1370","image-button-response","44","null","245776","685c6ca90f751d3aae6b1794","685c6e075ebd7bcfe64c3da7","660c0f5e2194f64ac63b0930","false","false","Tree","https://kisumu-drawings.s3-us-west-1.amazonaws.com/64-010.png","10","Tree","64-010.png"
"","1631","image-button-response","45","null","247910","685c6ca90f751d3aae6b1794","685c6e075ebd7bcfe64c3da7","660c0f5e2194f64ac63b0930","false","false","Cup","https://kisumu-drawings.s3-us-west-1.amazonaws.com/64-011.png","6","Cup","64-011.png"
"","1831","image-button-response","46","null","250243","685c6ca90f751d3aae6b1794","685c6e075ebd7bcfe64c3da7","660c0f5e2194f64ac63b0930","false","false","Bicycle","https://kisumu-drawings.s3-us-west-1.amazonaws.com/2-012.png","9","Rabbit","2-012.png"
"","5499","image-button-response","47","null","256244","685c6ca90f751d3aae6b1794","685c6e075ebd7bcfe64c3da7","660c0f5e2194f64ac63b0930","false","false","Tree","https://kisumu-drawings.s3-us-west-1.amazonaws.com/103-007.png","10","Tree","103-007.png"
"","4499","image-button-response","48","null","261245","685c6ca90f751d3aae6b1794","685c6e075ebd7bcfe64c3da7","660c0f5e2194f64ac63b0930","false","false","Cat","https://kisumu-drawings.s3-us-west-1.amazonaws.com/23-006.png","4","Cat","23-006.png"
"","1982","image-button-response","49","null","263730","685c6ca90f751d3aae6b1794","685c6e075ebd7bcfe64c3da7","660c0f5e2194f64ac63b0930","false","false","Watch","https://kisumu-drawings.s3-us-west-1.amazonaws.com/64-009.png","11","Watch","64-009.png"
"","3481","image-button-response","50","null","267713","685c6ca90f751d3aae6b1794","685c6e075ebd7bcfe64c3da7","660c0f5e2194f64ac63b0930","false","false","Airplane","https://kisumu-drawings.s3-us-west-1.amazonaws.com/2-013.png","0","Airplane","2-013.png"
"","5032","image-button-response","51","null","273248","685c6ca90f751d3aae6b1794","685c6e075ebd7bcfe64c3da7","660c0f5e2194f64ac63b0930","false","false","Rabbit","https://kisumu-drawings.s3-us-west-1.amazonaws.com/89-016.png","4","Cat","89-016.png"
"","1431","image-button-response","52","null","275182","685c6ca90f751d3aae6b1794","685c6e075ebd7bcfe64c3da7","660c0f5e2194f64ac63b0930","false","false","Watch","https://kisumu-drawings.s3-us-west-1.amazonaws.com/89-009.png","11","Watch","89-009.png"
"","1765","image-button-response","53","null","277449","685c6ca90f751d3aae6b1794","685c6e075ebd7bcfe64c3da7","660c0f5e2194f64ac63b0930","false","false","Cup","https://kisumu-drawings.s3-us-west-1.amazonaws.com/23-013.png","6","Cup","23-013.png"
"","4832","image-button-response","54","null","282783","685c6ca90f751d3aae6b1794","685c6e075ebd7bcfe64c3da7","660c0f5e2194f64ac63b0930","false","false","Cat","https://kisumu-drawings.s3-us-west-1.amazonaws.com/64-006.png","9","Rabbit","64-006.png"
"","1698","image-button-response","55","null","284984","685c6ca90f751d3aae6b1794","685c6e075ebd7bcfe64c3da7","660c0f5e2194f64ac63b0930","false","false","Car","https://kisumu-drawings.s3-us-west-1.amazonaws.com/89-013.png","3","Car","89-013.png"
"","2747","image-button-response","56","null","288234","685c6ca90f751d3aae6b1794","685c6e075ebd7bcfe64c3da7","660c0f5e2194f64ac63b0930","false","false","Hat","https://kisumu-drawings.s3-us-west-1.amazonaws.com/64-013.png","6","Cup","64-013.png"
"","1798","image-button-response","57","null","290534","685c6ca90f751d3aae6b1794","685c6e075ebd7bcfe64c3da7","660c0f5e2194f64ac63b0930","false","false","Car","https://kisumu-drawings.s3-us-west-1.amazonaws.com/103-016.png","3","Car","103-016.png"
"","11351","image-button-response","58","null","302387","685c6ca90f751d3aae6b1794","685c6e075ebd7bcfe64c3da7","660c0f5e2194f64ac63b0930","false","false","Airplane","https://kisumu-drawings.s3-us-west-1.amazonaws.com/23-012.png","8","House","23-012.png"
"","7566","image-button-response","59","null","310455","685c6ca90f751d3aae6b1794","685c6e075ebd7bcfe64c3da7","660c0f5e2194f64ac63b0930","false","false","Car","https://kisumu-drawings.s3-us-west-1.amazonaws.com/64-014.png","7","Hat","64-014.png"
"","2082","image-button-response","60","null","313039","685c6ca90f751d3aae6b1794","685c6e075ebd7bcfe64c3da7","660c0f5e2194f64ac63b0930","false","false","Cup","https://kisumu-drawings.s3-us-west-1.amazonaws.com/89-008.png","6","Cup","89-008.png"
"","3898","image-button-response","61","null","317440","685c6ca90f751d3aae6b1794","685c6e075ebd7bcfe64c3da7","660c0f5e2194f64ac63b0930","false","false","Bird","https://kisumu-drawings.s3-us-west-1.amazonaws.com/3-007.png","8","House","3-007.png"
"","6098","image-button-response","62","null","324041","685c6ca90f751d3aae6b1794","685c6e075ebd7bcfe64c3da7","660c0f5e2194f64ac63b0930","false","false","Bicycle","https://kisumu-drawings.s3-us-west-1.amazonaws.com/65-007.png","1","Bicycle","65-007.png"
"","2448","image-button-response","63","null","326991","685c6ca90f751d3aae6b1794","685c6e075ebd7bcfe64c3da7","660c0f5e2194f64ac63b0930","false","false","Bird","https://kisumu-drawings.s3-us-west-1.amazonaws.com/104-015.png","2","Bird","104-015.png"
"","1698","image-button-response","64","null","329191","685c6ca90f751d3aae6b1794","685c6e075ebd7bcfe64c3da7","660c0f5e2194f64ac63b0930","false","false","Cat","https://kisumu-drawings.s3-us-west-1.amazonaws.com/89-010.png","4","Cat","89-010.png"
"","9116","image-button-response","65","null","338809","685c6ca90f751d3aae6b1794","685c6e075ebd7bcfe64c3da7","660c0f5e2194f64ac63b0930","false","false","Rabbit","https://kisumu-drawings.s3-us-west-1.amazonaws.com/103-008.png","4","Cat","103-008.png"
"","9533","image-button-response","66","null","348845","685c6ca90f751d3aae6b1794","685c6e075ebd7bcfe64c3da7","660c0f5e2194f64ac63b0930","false","false","Bird","https://kisumu-drawings.s3-us-west-1.amazonaws.com/23-010.png","7","Hat","23-010.png"
"","3798","image-button-response","67","null","353145","685c6ca90f751d3aae6b1794","685c6e075ebd7bcfe64c3da7","660c0f5e2194f64ac63b0930","false","false","Rabbit","https://kisumu-drawings.s3-us-west-1.amazonaws.com/23-008.png","9","Rabbit","23-008.png"
"","1398","image-button-response","68","null","355046","685c6ca90f751d3aae6b1794","685c6e075ebd7bcfe64c3da7","660c0f5e2194f64ac63b0930","false","false","House","https://kisumu-drawings.s3-us-west-1.amazonaws.com/57-015.png","8","House","57-015.png"
"","1580","image-button-response","69","null","357130","685c6ca90f751d3aae6b1794","685c6e075ebd7bcfe64c3da7","660c0f5e2194f64ac63b0930","false","false","Hat","https://kisumu-drawings.s3-us-west-1.amazonaws.com/103-009.png","7","Hat","103-009.png"
"","3365","image-button-response","70","null","360997","685c6ca90f751d3aae6b1794","685c6e075ebd7bcfe64c3da7","660c0f5e2194f64ac63b0930","false","false","Hat","https://kisumu-drawings.s3-us-west-1.amazonaws.com/2-006.png","6","Cup","2-006.png"
"","3648","image-button-response","71","null","365148","685c6ca90f751d3aae6b1794","685c6e075ebd7bcfe64c3da7","660c0f5e2194f64ac63b0930","false","false","Cat","https://kisumu-drawings.s3-us-west-1.amazonaws.com/56-013.png","9","Rabbit","56-013.png"
"","4115","image-button-response","72","null","369765","685c6ca90f751d3aae6b1794","685c6e075ebd7bcfe64c3da7","660c0f5e2194f64ac63b0930","false","false","House","https://kisumu-drawings.s3-us-west-1.amazonaws.com/23-015.png","8","House","23-015.png"
"","1681","image-button-response","73","null","371948","685c6ca90f751d3aae6b1794","685c6e075ebd7bcfe64c3da7","660c0f5e2194f64ac63b0930","false","false","Watch","https://kisumu-drawings.s3-us-west-1.amazonaws.com/2-011.png","11","Watch","2-011.png"
"","2365","image-button-response","74","null","374816","685c6ca90f751d3aae6b1794","685c6e075ebd7bcfe64c3da7","660c0f5e2194f64ac63b0930","false","false","Airplane","https://kisumu-drawings.s3-us-west-1.amazonaws.com/64-016.png","0","Airplane","64-016.png"
"","1447","image-button-response","75","null","376766","685c6ca90f751d3aae6b1794","685c6e075ebd7bcfe64c3da7","660c0f5e2194f64ac63b0930","false","false","Cup","https://kisumu-drawings.s3-us-west-1.amazonaws.com/57-010.png","6","Cup","57-010.png"
