"view_history","rt","trial_type","trial_index","plugin_version","time_elapsed","study_id","session_id","participant_id","catch_trial","prep_trial","sketcher_category","stimulus","response","response_category","sketch_id"
"[{""page_index"":0,""viewing_time"":5520},{""page_index"":1,""viewing_time"":6265},{""page_index"":2,""viewing_time"":3859},{""page_index"":3,""viewing_time"":8825}]","24471","instructions","0","null","24492","685c6ca90f751d3aae6b1794","685c6e7855450d6363f431ab","662959b221d6790f5548ba36","","","","","","",""
"","2408","image-button-response","1","null","27908","685c6ca90f751d3aae6b1794","685c6e7855450d6363f431ab","662959b221d6790f5548ba36","false","true","car","stimuli/prep_trials/1_car_prep.png","3","Car",""
"","1978","image-button-response","2","null","30391","685c6ca90f751d3aae6b1794","685c6e7855450d6363f431ab","662959b221d6790f5548ba36","false","true","cat","stimuli/prep_trials/0_cat_prep.jpg","4","Cat",""
"","7164","image-button-response","3","null","38057","685c6ca90f751d3aae6b1794","685c6e7855450d6363f431ab","662959b221d6790f5548ba36","false","false","Watch","https://kisumu-drawings.s3-us-west-1.amazonaws.com/72-007.png","0","Airplane","72-007.png"
"","3913","image-button-response","4","null","42474","685c6ca90f751d3aae6b1794","685c6e7855450d6363f431ab","662959b221d6790f5548ba36","false","false","Rabbit","https://kisumu-drawings.s3-us-west-1.amazonaws.com/72-009.png","3","Car","72-009.png"
"","3663","image-button-response","5","null","46640","685c6ca90f751d3aae6b1794","685c6e7855450d6363f431ab","662959b221d6790f5548ba36","false","false","Rabbit","https://kisumu-drawings.s3-us-west-1.amazonaws.com/98-007.png","4","Cat","98-007.png"
"","3628","image-button-response","6","null","50772","685c6ca90f751d3aae6b1794","685c6e7855450d6363f431ab","662959b221d6790f5548ba36","false","false","Rabbit","https://kisumu-drawings.s3-us-west-1.amazonaws.com/112-006.png","2","Bird","112-006.png"
"","2264","image-button-response","7","null","53540","685c6ca90f751d3aae6b1794","685c6e7855450d6363f431ab","662959b221d6790f5548ba36","false","false","Cup","https://kisumu-drawings.s3-us-west-1.amazonaws.com/98-015.png","6","Cup","98-015.png"
"","3362","image-button-response","8","null","57407","685c6ca90f751d3aae6b1794","685c6e7855450d6363f431ab","662959b221d6790f5548ba36","false","false","Tree","https://kisumu-drawings.s3-us-west-1.amazonaws.com/72-006.png","10","Tree","72-006.png"
"","5929","image-button-response","9","null","63839","685c6ca90f751d3aae6b1794","685c6e7855450d6363f431ab","662959b221d6790f5548ba36","false","false","Car","https://kisumu-drawings.s3-us-west-1.amazonaws.com/74-016.png","3","Car","74-016.png"
"","6965","image-button-response","10","null","71306","685c6ca90f751d3aae6b1794","685c6e7855450d6363f431ab","662959b221d6790f5548ba36","false","false","Hat","https://kisumu-drawings.s3-us-west-1.amazonaws.com/31-012.png","7","Hat","31-012.png"
"","4514","image-button-response","11","null","76323","685c6ca90f751d3aae6b1794","685c6e7855450d6363f431ab","662959b221d6790f5548ba36","false","false","Cat","https://kisumu-drawings.s3-us-west-1.amazonaws.com/74-009.png","4","Cat","74-009.png"
"","2148","image-button-response","12","null","78973","685c6ca90f751d3aae6b1794","685c6e7855450d6363f431ab","662959b221d6790f5548ba36","false","false","Car","https://kisumu-drawings.s3-us-west-1.amazonaws.com/42-006.png","4","Cat","42-006.png"
"","3746","image-button-response","13","null","83222","685c6ca90f751d3aae6b1794","685c6e7855450d6363f431ab","662959b221d6790f5548ba36","false","false","Car","https://kisumu-drawings.s3-us-west-1.amazonaws.com/81-005.png","3","Car","81-005.png"
"","10631","image-button-response","14","null","94356","685c6ca90f751d3aae6b1794","685c6e7855450d6363f431ab","662959b221d6790f5548ba36","false","false","Hat","https://kisumu-drawings.s3-us-west-1.amazonaws.com/113-008.png","7","Hat","113-008.png"
"","4079","image-button-response","15","null","98939","685c6ca90f751d3aae6b1794","685c6e7855450d6363f431ab","662959b221d6790f5548ba36","false","false","Chair","https://kisumu-drawings.s3-us-west-1.amazonaws.com/31-010.png","5","Chair","31-010.png"
"","8697","image-button-response","16","null","108139","685c6ca90f751d3aae6b1794","685c6e7855450d6363f431ab","662959b221d6790f5548ba36","false","false","Bicycle","https://kisumu-drawings.s3-us-west-1.amazonaws.com/14-011.png","11","Watch","14-011.png"
"","5045","image-button-response","17","null","113687","685c6ca90f751d3aae6b1794","685c6e7855450d6363f431ab","662959b221d6790f5548ba36","false","false","Chair","https://kisumu-drawings.s3-us-west-1.amazonaws.com/55-013.png","5","Chair","55-013.png"
"","6049","image-button-response","18","null","120238","685c6ca90f751d3aae6b1794","685c6e7855450d6363f431ab","662959b221d6790f5548ba36","false","false","Airplane","https://kisumu-drawings.s3-us-west-1.amazonaws.com/75-010.png","10","Tree","75-010.png"
"","11598","image-button-response","19","null","132338","685c6ca90f751d3aae6b1794","685c6e7855450d6363f431ab","662959b221d6790f5548ba36","false","false","Tree","https://kisumu-drawings.s3-us-west-1.amazonaws.com/11-007.png","10","Tree","11-007.png"
"","9699","image-button-response","20","null","142539","685c6ca90f751d3aae6b1794","685c6e7855450d6363f431ab","662959b221d6790f5548ba36","false","false","Hat","https://kisumu-drawings.s3-us-west-1.amazonaws.com/98-012.png","6","Cup","98-012.png"
"","3146","image-button-response","21","null","146188","685c6ca90f751d3aae6b1794","685c6e7855450d6363f431ab","662959b221d6790f5548ba36","false","false","Bicycle","https://kisumu-drawings.s3-us-west-1.amazonaws.com/81-011.png","1","Bicycle","81-011.png"
"","8563","image-button-response","22","null","155254","685c6ca90f751d3aae6b1794","685c6e7855450d6363f431ab","662959b221d6790f5548ba36","false","false","Airplane","https://kisumu-drawings.s3-us-west-1.amazonaws.com/35-006.png","4","Cat","35-006.png"
"","5364","image-button-response","23","null","161120","685c6ca90f751d3aae6b1794","685c6e7855450d6363f431ab","662959b221d6790f5548ba36","false","false","Watch","https://kisumu-drawings.s3-us-west-1.amazonaws.com/11-016.png","8","House","11-016.png"
"","2231","image-button-response","24","null","163854","685c6ca90f751d3aae6b1794","685c6e7855450d6363f431ab","662959b221d6790f5548ba36","false","false","Bird","https://kisumu-drawings.s3-us-west-1.amazonaws.com/100-015.png","4","Cat","100-015.png"
"","8364","image-button-response","25","null","172721","685c6ca90f751d3aae6b1794","685c6e7855450d6363f431ab","662959b221d6790f5548ba36","false","false","Cup","https://kisumu-drawings.s3-us-west-1.amazonaws.com/11-014.png","8","House","11-014.png"
"","3963","image-button-response","26","null","177187","685c6ca90f751d3aae6b1794","685c6e7855450d6363f431ab","662959b221d6790f5548ba36","false","false","House","https://kisumu-drawings.s3-us-west-1.amazonaws.com/11-015.png","4","Cat","11-015.png"
"","3063","image-button-response","27","null","180753","685c6ca90f751d3aae6b1794","685c6e7855450d6363f431ab","662959b221d6790f5548ba36","false","false","Bird","https://kisumu-drawings.s3-us-west-1.amazonaws.com/114-015.png","2","Bird","114-015.png"
"","2548","image-button-response","28","null","183804","685c6ca90f751d3aae6b1794","685c6e7855450d6363f431ab","662959b221d6790f5548ba36","false","false","Cup","https://kisumu-drawings.s3-us-west-1.amazonaws.com/55-015.png","6","Cup","55-015.png"
"","3281","image-button-response","29","null","187587","685c6ca90f751d3aae6b1794","685c6e7855450d6363f431ab","662959b221d6790f5548ba36","false","false","Cup","https://kisumu-drawings.s3-us-west-1.amazonaws.com/31-011.png","5","Chair","31-011.png"
"","2329","image-button-response","30","null","190420","685c6ca90f751d3aae6b1794","685c6e7855450d6363f431ab","662959b221d6790f5548ba36","false","false","Cat","https://kisumu-drawings.s3-us-west-1.amazonaws.com/13-013.png","2","Bird","13-013.png"
"","3397","image-button-response","31","null","194320","685c6ca90f751d3aae6b1794","685c6e7855450d6363f431ab","662959b221d6790f5548ba36","false","false","Airplane","https://kisumu-drawings.s3-us-west-1.amazonaws.com/15-011.png","6","Cup","15-011.png"
"","2314","image-button-response","32","null","197137","685c6ca90f751d3aae6b1794","685c6e7855450d6363f431ab","662959b221d6790f5548ba36","false","false","House","https://kisumu-drawings.s3-us-west-1.amazonaws.com/98-005.png","8","House","98-005.png"
"","1713","image-button-response","33","null","199354","685c6ca90f751d3aae6b1794","685c6e7855450d6363f431ab","662959b221d6790f5548ba36","true","false","airplane","stimuli/catch_trials/0_airplane_catch.jpg","0","Airplane",""
"","7881","image-button-response","34","null","207737","685c6ca90f751d3aae6b1794","685c6e7855450d6363f431ab","662959b221d6790f5548ba36","false","false","Watch","https://kisumu-drawings.s3-us-west-1.amazonaws.com/31-016.png","11","Watch","31-016.png"
"","4430","image-button-response","35","null","212670","685c6ca90f751d3aae6b1794","685c6e7855450d6363f431ab","662959b221d6790f5548ba36","false","false","Car","https://kisumu-drawings.s3-us-west-1.amazonaws.com/13-011.png","8","House","13-011.png"
"","4097","image-button-response","36","null","217270","685c6ca90f751d3aae6b1794","685c6e7855450d6363f431ab","662959b221d6790f5548ba36","false","false","Car","https://kisumu-drawings.s3-us-west-1.amazonaws.com/33-009.png","9","Rabbit","33-009.png"
"","1930","image-button-response","37","null","219702","685c6ca90f751d3aae6b1794","685c6e7855450d6363f431ab","662959b221d6790f5548ba36","false","false","Airplane","https://kisumu-drawings.s3-us-west-1.amazonaws.com/81-014.png","0","Airplane","81-014.png"
"","1549","image-button-response","38","null","221753","685c6ca90f751d3aae6b1794","685c6e7855450d6363f431ab","662959b221d6790f5548ba36","false","false","Airplane","https://kisumu-drawings.s3-us-west-1.amazonaws.com/43-005.png","0","Airplane","43-005.png"
"","10948","image-button-response","39","null","233203","685c6ca90f751d3aae6b1794","685c6e7855450d6363f431ab","662959b221d6790f5548ba36","false","false","Hat","https://kisumu-drawings.s3-us-west-1.amazonaws.com/11-005.png","8","House","11-005.png"
"","2363","image-button-response","40","null","236070","685c6ca90f751d3aae6b1794","685c6e7855450d6363f431ab","662959b221d6790f5548ba36","false","false","Bird","https://kisumu-drawings.s3-us-west-1.amazonaws.com/42-005.png","0","Airplane","42-005.png"
"","4013","image-button-response","41","null","240586","685c6ca90f751d3aae6b1794","685c6e7855450d6363f431ab","662959b221d6790f5548ba36","false","false","Rabbit","https://kisumu-drawings.s3-us-west-1.amazonaws.com/11-006.png","9","Rabbit","11-006.png"
"","2779","image-button-response","42","null","243870","685c6ca90f751d3aae6b1794","685c6e7855450d6363f431ab","662959b221d6790f5548ba36","false","false","Chair","https://kisumu-drawings.s3-us-west-1.amazonaws.com/99-012.png","5","Chair","99-012.png"
"","2963","image-button-response","43","null","247336","685c6ca90f751d3aae6b1794","685c6e7855450d6363f431ab","662959b221d6790f5548ba36","false","false","Car","https://kisumu-drawings.s3-us-west-1.amazonaws.com/114-012.png","3","Car","114-012.png"
"","2263","image-button-response","44","null","250102","685c6ca90f751d3aae6b1794","685c6e7855450d6363f431ab","662959b221d6790f5548ba36","false","false","Hat","https://kisumu-drawings.s3-us-west-1.amazonaws.com/55-005.png","10","Tree","55-005.png"
"","7714","image-button-response","45","null","258319","685c6ca90f751d3aae6b1794","685c6e7855450d6363f431ab","662959b221d6790f5548ba36","false","false","Cat","https://kisumu-drawings.s3-us-west-1.amazonaws.com/33-012.png","9","Rabbit","33-012.png"
"","2681","image-button-response","46","null","261502","685c6ca90f751d3aae6b1794","685c6e7855450d6363f431ab","662959b221d6790f5548ba36","false","false","Tree","https://kisumu-drawings.s3-us-west-1.amazonaws.com/55-009.png","10","Tree","55-009.png"
"","1963","image-button-response","47","null","263969","685c6ca90f751d3aae6b1794","685c6e7855450d6363f431ab","662959b221d6790f5548ba36","false","false","Cup","https://kisumu-drawings.s3-us-west-1.amazonaws.com/72-010.png","6","Cup","72-010.png"
"","2879","image-button-response","48","null","267351","685c6ca90f751d3aae6b1794","685c6e7855450d6363f431ab","662959b221d6790f5548ba36","false","false","Bird","https://kisumu-drawings.s3-us-west-1.amazonaws.com/74-006.png","4","Cat","74-006.png"
"","10365","image-button-response","49","null","278219","685c6ca90f751d3aae6b1794","685c6e7855450d6363f431ab","662959b221d6790f5548ba36","false","false","Tree","https://kisumu-drawings.s3-us-west-1.amazonaws.com/31-015.png","9","Rabbit","31-015.png"
"","2964","image-button-response","50","null","281686","685c6ca90f751d3aae6b1794","685c6e7855450d6363f431ab","662959b221d6790f5548ba36","false","false","Chair","https://kisumu-drawings.s3-us-west-1.amazonaws.com/113-012.png","5","Chair","113-012.png"
"","2363","image-button-response","51","null","284552","685c6ca90f751d3aae6b1794","685c6e7855450d6363f431ab","662959b221d6790f5548ba36","false","false","House","https://kisumu-drawings.s3-us-west-1.amazonaws.com/72-012.png","8","House","72-012.png"
"","2613","image-button-response","52","null","287668","685c6ca90f751d3aae6b1794","685c6e7855450d6363f431ab","662959b221d6790f5548ba36","false","false","Hat","https://kisumu-drawings.s3-us-west-1.amazonaws.com/72-011.png","5","Chair","72-011.png"
"","4315","image-button-response","53","null","292485","685c6ca90f751d3aae6b1794","685c6e7855450d6363f431ab","662959b221d6790f5548ba36","false","false","Bird","https://kisumu-drawings.s3-us-west-1.amazonaws.com/33-007.png","9","Rabbit","33-007.png"
"","2362","image-button-response","54","null","295350","685c6ca90f751d3aae6b1794","685c6e7855450d6363f431ab","662959b221d6790f5548ba36","false","false","Cup","https://kisumu-drawings.s3-us-west-1.amazonaws.com/112-009.png","6","Cup","112-009.png"
"","2064","image-button-response","55","null","297918","685c6ca90f751d3aae6b1794","685c6e7855450d6363f431ab","662959b221d6790f5548ba36","false","false","Cat","https://kisumu-drawings.s3-us-west-1.amazonaws.com/42-008.png","4","Cat","42-008.png"
"","7686","image-button-response","56","null","306105","685c6ca90f751d3aae6b1794","685c6e7855450d6363f431ab","662959b221d6790f5548ba36","false","false","Bicycle","https://kisumu-drawings.s3-us-west-1.amazonaws.com/33-006.png","6","Cup","33-006.png"
"","4492","image-button-response","57","null","311101","685c6ca90f751d3aae6b1794","685c6e7855450d6363f431ab","662959b221d6790f5548ba36","false","false","House","https://kisumu-drawings.s3-us-west-1.amazonaws.com/112-007.png","8","House","112-007.png"
"","3864","image-button-response","58","null","315468","685c6ca90f751d3aae6b1794","685c6e7855450d6363f431ab","662959b221d6790f5548ba36","false","false","Airplane","https://kisumu-drawings.s3-us-west-1.amazonaws.com/114-011.png","0","Airplane","114-011.png"
"","3897","image-button-response","59","null","319867","685c6ca90f751d3aae6b1794","685c6e7855450d6363f431ab","662959b221d6790f5548ba36","false","false","Cat","https://kisumu-drawings.s3-us-west-1.amazonaws.com/113-006.png","4","Cat","113-006.png"
"","3014","image-button-response","60","null","323385","685c6ca90f751d3aae6b1794","685c6e7855450d6363f431ab","662959b221d6790f5548ba36","false","false","Chair","https://kisumu-drawings.s3-us-west-1.amazonaws.com/73-010.png","5","Chair","73-010.png"
"","2830","image-button-response","61","null","326718","685c6ca90f751d3aae6b1794","685c6e7855450d6363f431ab","662959b221d6790f5548ba36","false","false","Bicycle","https://kisumu-drawings.s3-us-west-1.amazonaws.com/42-009.png","1","Bicycle","42-009.png"
"","4713","image-button-response","62","null","331934","685c6ca90f751d3aae6b1794","685c6e7855450d6363f431ab","662959b221d6790f5548ba36","false","false","Chair","https://kisumu-drawings.s3-us-west-1.amazonaws.com/12-012.png","5","Chair","12-012.png"
"","2930","image-button-response","63","null","335367","685c6ca90f751d3aae6b1794","685c6e7855450d6363f431ab","662959b221d6790f5548ba36","false","false","Cat","https://kisumu-drawings.s3-us-west-1.amazonaws.com/99-005.png","9","Rabbit","99-005.png"
"","3865","image-button-response","64","null","339734","685c6ca90f751d3aae6b1794","685c6e7855450d6363f431ab","662959b221d6790f5548ba36","false","false","Bicycle","https://kisumu-drawings.s3-us-west-1.amazonaws.com/114-014.png","1","Bicycle","114-014.png"
"","4363","image-button-response","65","null","344600","685c6ca90f751d3aae6b1794","685c6e7855450d6363f431ab","662959b221d6790f5548ba36","false","false","Rabbit","https://kisumu-drawings.s3-us-west-1.amazonaws.com/55-008.png","0","Airplane","55-008.png"
"","5432","image-button-response","66","null","350534","685c6ca90f751d3aae6b1794","685c6e7855450d6363f431ab","662959b221d6790f5548ba36","false","false","Watch","https://kisumu-drawings.s3-us-west-1.amazonaws.com/55-010.png","2","Bird","55-010.png"
"","6330","image-button-response","67","null","357367","685c6ca90f751d3aae6b1794","685c6e7855450d6363f431ab","662959b221d6790f5548ba36","false","false","Rabbit","https://kisumu-drawings.s3-us-west-1.amazonaws.com/31-014.png","9","Rabbit","31-014.png"
"","9399","image-button-response","68","null","367267","685c6ca90f751d3aae6b1794","685c6e7855450d6363f431ab","662959b221d6790f5548ba36","false","false","Bird","https://kisumu-drawings.s3-us-west-1.amazonaws.com/13-009.png","11","Watch","13-009.png"
"","3879","image-button-response","69","null","371649","685c6ca90f751d3aae6b1794","685c6e7855450d6363f431ab","662959b221d6790f5548ba36","false","false","Watch","https://kisumu-drawings.s3-us-west-1.amazonaws.com/111-015.png","11","Watch","111-015.png"
"","2497","image-button-response","70","null","374650","685c6ca90f751d3aae6b1794","685c6e7855450d6363f431ab","662959b221d6790f5548ba36","false","false","House","https://kisumu-drawings.s3-us-west-1.amazonaws.com/55-016.png","8","House","55-016.png"
"","2081","image-button-response","71","null","377234","685c6ca90f751d3aae6b1794","685c6e7855450d6363f431ab","662959b221d6790f5548ba36","false","false","Watch","https://kisumu-drawings.s3-us-west-1.amazonaws.com/97-010.png","8","House","97-010.png"
"","3156","image-button-response","72","null","380891","685c6ca90f751d3aae6b1794","685c6e7855450d6363f431ab","662959b221d6790f5548ba36","false","false","Tree","https://kisumu-drawings.s3-us-west-1.amazonaws.com/112-005.png","10","Tree","112-005.png"
"","1156","image-button-response","73","null","382550","685c6ca90f751d3aae6b1794","685c6e7855450d6363f431ab","662959b221d6790f5548ba36","false","false","Tree","https://kisumu-drawings.s3-us-west-1.amazonaws.com/98-010.png","10","Tree","98-010.png"
"","5730","image-button-response","74","null","388784","685c6ca90f751d3aae6b1794","685c6e7855450d6363f431ab","662959b221d6790f5548ba36","false","false","Bicycle","https://kisumu-drawings.s3-us-west-1.amazonaws.com/75-011.png","9","Rabbit","75-011.png"
"","3063","image-button-response","75","null","392350","685c6ca90f751d3aae6b1794","685c6e7855450d6363f431ab","662959b221d6790f5548ba36","false","false","House","https://kisumu-drawings.s3-us-west-1.amazonaws.com/31-013.png","9","Rabbit","31-013.png"
