"view_history","rt","trial_type","trial_index","plugin_version","time_elapsed","study_id","session_id","participant_id","catch_trial","prep_trial","sketcher_category","stimulus","response","response_category","sketch_id"
"[{""page_index"":0,""viewing_time"":554591},{""page_index"":1,""viewing_time"":1574},{""page_index"":2,""viewing_time"":1465},{""page_index"":3,""viewing_time"":2059}]","559691","instructions","0","null","559718","685c6ca90f751d3aae6b1794","685c6e6912fffbbec28ae072","662d0e2441cfa56ee3b70fa8","","","","","","",""
"","6889","image-button-response","1","null","567614","685c6ca90f751d3aae6b1794","685c6e6912fffbbec28ae072","662d0e2441cfa56ee3b70fa8","false","true","car","stimuli/prep_trials/1_car_prep.png","3","Car",""
"","2967","image-button-response","2","null","571085","685c6ca90f751d3aae6b1794","685c6e6912fffbbec28ae072","662d0e2441cfa56ee3b70fa8","false","true","cat","stimuli/prep_trials/0_cat_prep.jpg","4","Cat",""
"","8870","image-button-response","3","null","580462","685c6ca90f751d3aae6b1794","685c6e6912fffbbec28ae072","662d0e2441cfa56ee3b70fa8","false","false","Bird","https://kisumu-drawings.s3-us-west-1.amazonaws.com/75-005.png","0","Airplane","75-005.png"
"","16654","image-button-response","4","null","597620","685c6ca90f751d3aae6b1794","685c6e6912fffbbec28ae072","662d0e2441cfa56ee3b70fa8","false","false","Bird","https://kisumu-drawings.s3-us-west-1.amazonaws.com/42-005.png","0","Airplane","42-005.png"
"","13614","image-button-response","5","null","611739","685c6ca90f751d3aae6b1794","685c6e6912fffbbec28ae072","662d0e2441cfa56ee3b70fa8","false","false","Bird","https://kisumu-drawings.s3-us-west-1.amazonaws.com/14-013.png","7","Hat","14-013.png"
"","9452","image-button-response","6","null","621709","685c6ca90f751d3aae6b1794","685c6e6912fffbbec28ae072","662d0e2441cfa56ee3b70fa8","false","false","Bicycle","https://kisumu-drawings.s3-us-west-1.amazonaws.com/43-007.png","3","Car","43-007.png"
"","3673","image-button-response","7","null","625885","685c6ca90f751d3aae6b1794","685c6e6912fffbbec28ae072","662d0e2441cfa56ee3b70fa8","false","false","Cup","https://kisumu-drawings.s3-us-west-1.amazonaws.com/114-008.png","6","Cup","114-008.png"
"","20507","image-button-response","8","null","646897","685c6ca90f751d3aae6b1794","685c6e6912fffbbec28ae072","662d0e2441cfa56ee3b70fa8","false","false","Cat","https://kisumu-drawings.s3-us-west-1.amazonaws.com/33-012.png","11","Watch","33-012.png"
"","3592","image-button-response","9","null","650994","685c6ca90f751d3aae6b1794","685c6e6912fffbbec28ae072","662d0e2441cfa56ee3b70fa8","false","false","Tree","https://kisumu-drawings.s3-us-west-1.amazonaws.com/41-013.png","10","Tree","41-013.png"
"","3264","image-button-response","10","null","654763","685c6ca90f751d3aae6b1794","685c6e6912fffbbec28ae072","662d0e2441cfa56ee3b70fa8","false","false","Chair","https://kisumu-drawings.s3-us-west-1.amazonaws.com/114-010.png","5","Chair","114-010.png"
"","16634","image-button-response","11","null","671902","685c6ca90f751d3aae6b1794","685c6e6912fffbbec28ae072","662d0e2441cfa56ee3b70fa8","false","false","Watch","https://kisumu-drawings.s3-us-west-1.amazonaws.com/32-007.png","11","Watch","32-007.png"
"","7874","image-button-response","12","null","680280","685c6ca90f751d3aae6b1794","685c6e6912fffbbec28ae072","662d0e2441cfa56ee3b70fa8","false","false","Bird","https://kisumu-drawings.s3-us-west-1.amazonaws.com/100-015.png","4","Cat","100-015.png"
"","5494","image-button-response","13","null","686278","685c6ca90f751d3aae6b1794","685c6e6912fffbbec28ae072","662d0e2441cfa56ee3b70fa8","false","false","Hat","https://kisumu-drawings.s3-us-west-1.amazonaws.com/74-011.png","11","Watch","74-011.png"
"","3434","image-button-response","14","null","690216","685c6ca90f751d3aae6b1794","685c6e6912fffbbec28ae072","662d0e2441cfa56ee3b70fa8","false","false","Car","https://kisumu-drawings.s3-us-west-1.amazonaws.com/114-012.png","3","Car","114-012.png"
"","2407","image-button-response","15","null","693128","685c6ca90f751d3aae6b1794","685c6e6912fffbbec28ae072","662d0e2441cfa56ee3b70fa8","false","false","Car","https://kisumu-drawings.s3-us-west-1.amazonaws.com/81-005.png","3","Car","81-005.png"
"","3873","image-button-response","16","null","697505","685c6ca90f751d3aae6b1794","685c6e6912fffbbec28ae072","662d0e2441cfa56ee3b70fa8","false","false","Cup","https://kisumu-drawings.s3-us-west-1.amazonaws.com/13-014.png","11","Watch","13-014.png"
"","6321","image-button-response","17","null","704331","685c6ca90f751d3aae6b1794","685c6e6912fffbbec28ae072","662d0e2441cfa56ee3b70fa8","false","false","Bicycle","https://kisumu-drawings.s3-us-west-1.amazonaws.com/33-006.png","11","Watch","33-006.png"
"","4562","image-button-response","18","null","709397","685c6ca90f751d3aae6b1794","685c6e6912fffbbec28ae072","662d0e2441cfa56ee3b70fa8","false","false","Tree","https://kisumu-drawings.s3-us-west-1.amazonaws.com/99-008.png","10","Tree","99-008.png"
"","3676","image-button-response","19","null","713577","685c6ca90f751d3aae6b1794","685c6e6912fffbbec28ae072","662d0e2441cfa56ee3b70fa8","false","false","Cup","https://kisumu-drawings.s3-us-west-1.amazonaws.com/42-014.png","6","Cup","42-014.png"
"","2502","image-button-response","20","null","716583","685c6ca90f751d3aae6b1794","685c6e6912fffbbec28ae072","662d0e2441cfa56ee3b70fa8","false","false","Hat","https://kisumu-drawings.s3-us-west-1.amazonaws.com/12-013.png","7","Hat","12-013.png"
"","5631","image-button-response","21","null","722718","685c6ca90f751d3aae6b1794","685c6e6912fffbbec28ae072","662d0e2441cfa56ee3b70fa8","false","false","Watch","https://kisumu-drawings.s3-us-west-1.amazonaws.com/113-005.png","11","Watch","113-005.png"
"","2113","image-button-response","22","null","725336","685c6ca90f751d3aae6b1794","685c6e6912fffbbec28ae072","662d0e2441cfa56ee3b70fa8","false","false","Watch","https://kisumu-drawings.s3-us-west-1.amazonaws.com/41-014.png","11","Watch","41-014.png"
"","4882","image-button-response","23","null","730721","685c6ca90f751d3aae6b1794","685c6e6912fffbbec28ae072","662d0e2441cfa56ee3b70fa8","false","false","Bicycle","https://kisumu-drawings.s3-us-west-1.amazonaws.com/115-008.png","1","Bicycle","115-008.png"
"","4245","image-button-response","24","null","735479","685c6ca90f751d3aae6b1794","685c6e6912fffbbec28ae072","662d0e2441cfa56ee3b70fa8","false","false","Cat","https://kisumu-drawings.s3-us-west-1.amazonaws.com/75-014.png","4","Cat","75-014.png"
"","10545","image-button-response","25","null","746528","685c6ca90f751d3aae6b1794","685c6e6912fffbbec28ae072","662d0e2441cfa56ee3b70fa8","false","false","Watch","https://kisumu-drawings.s3-us-west-1.amazonaws.com/99-015.png","5","Chair","99-015.png"
"","8557","image-button-response","26","null","755588","685c6ca90f751d3aae6b1794","685c6e6912fffbbec28ae072","662d0e2441cfa56ee3b70fa8","false","false","House","https://kisumu-drawings.s3-us-west-1.amazonaws.com/33-008.png","6","Cup","33-008.png"
"","7208","image-button-response","27","null","763300","685c6ca90f751d3aae6b1794","685c6e6912fffbbec28ae072","662d0e2441cfa56ee3b70fa8","false","false","Cat","https://kisumu-drawings.s3-us-west-1.amazonaws.com/14-014.png","6","Cup","14-014.png"
"","3789","image-button-response","28","null","767593","685c6ca90f751d3aae6b1794","685c6e6912fffbbec28ae072","662d0e2441cfa56ee3b70fa8","false","false","House","https://kisumu-drawings.s3-us-west-1.amazonaws.com/73-013.png","8","House","73-013.png"
"","7287","image-button-response","29","null","775385","685c6ca90f751d3aae6b1794","685c6e6912fffbbec28ae072","662d0e2441cfa56ee3b70fa8","false","false","Bicycle","https://kisumu-drawings.s3-us-west-1.amazonaws.com/75-011.png","2","Bird","75-011.png"
"","3868","image-button-response","30","null","779761","685c6ca90f751d3aae6b1794","685c6e6912fffbbec28ae072","662d0e2441cfa56ee3b70fa8","false","false","Hat","https://kisumu-drawings.s3-us-west-1.amazonaws.com/114-016.png","11","Watch","114-016.png"
"","9240","image-button-response","31","null","789505","685c6ca90f751d3aae6b1794","685c6e6912fffbbec28ae072","662d0e2441cfa56ee3b70fa8","false","false","Bicycle","https://kisumu-drawings.s3-us-west-1.amazonaws.com/14-011.png","11","Watch","14-011.png"
"","3461","image-button-response","32","null","793469","685c6ca90f751d3aae6b1794","685c6e6912fffbbec28ae072","662d0e2441cfa56ee3b70fa8","false","false","Bird","https://kisumu-drawings.s3-us-west-1.amazonaws.com/115-006.png","2","Bird","115-006.png"
"","3406","image-button-response","33","null","797380","685c6ca90f751d3aae6b1794","685c6e6912fffbbec28ae072","662d0e2441cfa56ee3b70fa8","false","false","Hat","https://kisumu-drawings.s3-us-west-1.amazonaws.com/100-007.png","6","Cup","100-007.png"
"","8497","image-button-response","34","null","806382","685c6ca90f751d3aae6b1794","685c6e6912fffbbec28ae072","662d0e2441cfa56ee3b70fa8","false","false","Chair","https://kisumu-drawings.s3-us-west-1.amazonaws.com/33-013.png","3","Car","33-013.png"
"","5501","image-button-response","35","null","812387","685c6ca90f751d3aae6b1794","685c6e6912fffbbec28ae072","662d0e2441cfa56ee3b70fa8","false","false","Cup","https://kisumu-drawings.s3-us-west-1.amazonaws.com/100-008.png","6","Cup","100-008.png"
"","9943","image-button-response","36","null","822833","685c6ca90f751d3aae6b1794","685c6e6912fffbbec28ae072","662d0e2441cfa56ee3b70fa8","false","false","Rabbit","https://kisumu-drawings.s3-us-west-1.amazonaws.com/99-011.png","9","Rabbit","99-011.png"
"","18874","image-button-response","37","null","842210","685c6ca90f751d3aae6b1794","685c6e6912fffbbec28ae072","662d0e2441cfa56ee3b70fa8","false","false","Airplane","https://kisumu-drawings.s3-us-west-1.amazonaws.com/75-010.png","0","Airplane","75-010.png"
"","3599","image-button-response","38","null","846313","685c6ca90f751d3aae6b1794","685c6e6912fffbbec28ae072","662d0e2441cfa56ee3b70fa8","false","false","House","https://kisumu-drawings.s3-us-west-1.amazonaws.com/100-006.png","8","House","100-006.png"
"","3800","image-button-response","39","null","850618","685c6ca90f751d3aae6b1794","685c6e6912fffbbec28ae072","662d0e2441cfa56ee3b70fa8","false","false","Hat","https://kisumu-drawings.s3-us-west-1.amazonaws.com/42-012.png","2","Bird","42-012.png"
"","3809","image-button-response","40","null","854931","685c6ca90f751d3aae6b1794","685c6e6912fffbbec28ae072","662d0e2441cfa56ee3b70fa8","false","false","Car","https://kisumu-drawings.s3-us-west-1.amazonaws.com/13-011.png","11","Watch","13-011.png"
"","3684","image-button-response","41","null","859120","685c6ca90f751d3aae6b1794","685c6e6912fffbbec28ae072","662d0e2441cfa56ee3b70fa8","false","false","Rabbit","https://kisumu-drawings.s3-us-west-1.amazonaws.com/13-007.png","11","Watch","13-007.png"
"","4392","image-button-response","42","null","864017","685c6ca90f751d3aae6b1794","685c6e6912fffbbec28ae072","662d0e2441cfa56ee3b70fa8","false","false","Bird","https://kisumu-drawings.s3-us-west-1.amazonaws.com/35-005.png","11","Watch","35-005.png"
"","13933","image-button-response","43","null","878466","685c6ca90f751d3aae6b1794","685c6e6912fffbbec28ae072","662d0e2441cfa56ee3b70fa8","false","false","Rabbit","https://kisumu-drawings.s3-us-west-1.amazonaws.com/42-010.png","4","Cat","42-010.png"
"","4273","image-button-response","44","null","883243","685c6ca90f751d3aae6b1794","685c6e6912fffbbec28ae072","662d0e2441cfa56ee3b70fa8","false","false","Hat","https://kisumu-drawings.s3-us-west-1.amazonaws.com/32-015.png","11","Watch","32-015.png"
"","2590","image-button-response","45","null","886338","685c6ca90f751d3aae6b1794","685c6e6912fffbbec28ae072","662d0e2441cfa56ee3b70fa8","false","false","Tree","https://kisumu-drawings.s3-us-west-1.amazonaws.com/33-011.png","10","Tree","33-011.png"
"","3362","image-button-response","46","null","890204","685c6ca90f751d3aae6b1794","685c6e6912fffbbec28ae072","662d0e2441cfa56ee3b70fa8","false","false","Cup","https://kisumu-drawings.s3-us-west-1.amazonaws.com/74-007.png","6","Cup","74-007.png"
"","2707","image-button-response","47","null","893416","685c6ca90f751d3aae6b1794","685c6e6912fffbbec28ae072","662d0e2441cfa56ee3b70fa8","false","false","Cup","https://kisumu-drawings.s3-us-west-1.amazonaws.com/33-014.png","6","Cup","33-014.png"
"","3582","image-button-response","48","null","897503","685c6ca90f751d3aae6b1794","685c6e6912fffbbec28ae072","662d0e2441cfa56ee3b70fa8","false","false","House","https://kisumu-drawings.s3-us-west-1.amazonaws.com/12-014.png","8","House","12-014.png"
"","3806","image-button-response","49","null","901813","685c6ca90f751d3aae6b1794","685c6e6912fffbbec28ae072","662d0e2441cfa56ee3b70fa8","false","false","Tree","https://kisumu-drawings.s3-us-west-1.amazonaws.com/73-014.png","10","Tree","73-014.png"
"","2716","image-button-response","50","null","905033","685c6ca90f751d3aae6b1794","685c6e6912fffbbec28ae072","662d0e2441cfa56ee3b70fa8","false","false","Watch","https://kisumu-drawings.s3-us-west-1.amazonaws.com/73-006.png","11","Watch","73-006.png"
"","2499","image-button-response","51","null","908036","685c6ca90f751d3aae6b1794","685c6e6912fffbbec28ae072","662d0e2441cfa56ee3b70fa8","false","false","Chair","https://kisumu-drawings.s3-us-west-1.amazonaws.com/100-009.png","5","Chair","100-009.png"
"","4468","image-button-response","52","null","913007","685c6ca90f751d3aae6b1794","685c6e6912fffbbec28ae072","662d0e2441cfa56ee3b70fa8","false","false","Cat","https://kisumu-drawings.s3-us-west-1.amazonaws.com/43-010.png","4","Cat","43-010.png"
"","4202","image-button-response","53","null","917712","685c6ca90f751d3aae6b1794","685c6e6912fffbbec28ae072","662d0e2441cfa56ee3b70fa8","false","false","Car","https://kisumu-drawings.s3-us-west-1.amazonaws.com/42-006.png","3","Car","42-006.png"
"","2753","image-button-response","54","null","920970","685c6ca90f751d3aae6b1794","685c6e6912fffbbec28ae072","662d0e2441cfa56ee3b70fa8","true","false","airplane","stimuli/catch_trials/0_airplane_catch.jpg","0","Airplane",""
"","4887","image-button-response","55","null","926362","685c6ca90f751d3aae6b1794","685c6e6912fffbbec28ae072","662d0e2441cfa56ee3b70fa8","false","false","Rabbit","https://kisumu-drawings.s3-us-west-1.amazonaws.com/113-009.png","4","Cat","113-009.png"
"","4696","image-button-response","56","null","931562","685c6ca90f751d3aae6b1794","685c6e6912fffbbec28ae072","662d0e2441cfa56ee3b70fa8","false","false","Chair","https://kisumu-drawings.s3-us-west-1.amazonaws.com/42-007.png","5","Chair","42-007.png"
"","7574","image-button-response","57","null","939641","685c6ca90f751d3aae6b1794","685c6e6912fffbbec28ae072","662d0e2441cfa56ee3b70fa8","false","false","Rabbit","https://kisumu-drawings.s3-us-west-1.amazonaws.com/33-010.png","9","Rabbit","33-010.png"
"","6560","image-button-response","58","null","946704","685c6ca90f751d3aae6b1794","685c6e6912fffbbec28ae072","662d0e2441cfa56ee3b70fa8","false","false","Cat","https://kisumu-drawings.s3-us-west-1.amazonaws.com/115-012.png","4","Cat","115-012.png"
"","3012","image-button-response","59","null","950221","685c6ca90f751d3aae6b1794","685c6e6912fffbbec28ae072","662d0e2441cfa56ee3b70fa8","false","false","Chair","https://kisumu-drawings.s3-us-west-1.amazonaws.com/75-008.png","5","Chair","75-008.png"
"","4049","image-button-response","60","null","954775","685c6ca90f751d3aae6b1794","685c6e6912fffbbec28ae072","662d0e2441cfa56ee3b70fa8","false","false","Airplane","https://kisumu-drawings.s3-us-west-1.amazonaws.com/81-014.png","0","Airplane","81-014.png"
"","8363","image-button-response","61","null","963641","685c6ca90f751d3aae6b1794","685c6e6912fffbbec28ae072","662d0e2441cfa56ee3b70fa8","false","false","Airplane","https://kisumu-drawings.s3-us-west-1.amazonaws.com/42-016.png","0","Airplane","42-016.png"
"","5093","image-button-response","62","null","969239","685c6ca90f751d3aae6b1794","685c6e6912fffbbec28ae072","662d0e2441cfa56ee3b70fa8","false","false","Tree","https://kisumu-drawings.s3-us-west-1.amazonaws.com/113-010.png","10","Tree","113-010.png"
"","5936","image-button-response","63","null","975680","685c6ca90f751d3aae6b1794","685c6e6912fffbbec28ae072","662d0e2441cfa56ee3b70fa8","false","false","Airplane","https://kisumu-drawings.s3-us-west-1.amazonaws.com/14-012.png","6","Cup","14-012.png"
"","4815","image-button-response","64","null","980998","685c6ca90f751d3aae6b1794","685c6e6912fffbbec28ae072","662d0e2441cfa56ee3b70fa8","false","false","Chair","https://kisumu-drawings.s3-us-west-1.amazonaws.com/13-012.png","11","Watch","13-012.png"
"","3460","image-button-response","65","null","984964","685c6ca90f751d3aae6b1794","685c6e6912fffbbec28ae072","662d0e2441cfa56ee3b70fa8","false","false","Rabbit","https://kisumu-drawings.s3-us-west-1.amazonaws.com/74-008.png","4","Cat","74-008.png"
"","4546","image-button-response","66","null","990016","685c6ca90f751d3aae6b1794","685c6e6912fffbbec28ae072","662d0e2441cfa56ee3b70fa8","false","false","House","https://kisumu-drawings.s3-us-west-1.amazonaws.com/41-015.png","8","House","41-015.png"
"","6347","image-button-response","67","null","996869","685c6ca90f751d3aae6b1794","685c6e6912fffbbec28ae072","662d0e2441cfa56ee3b70fa8","false","false","Tree","https://kisumu-drawings.s3-us-west-1.amazonaws.com/13-016.png","11","Watch","13-016.png"
"","3234","image-button-response","68","null","1000607","685c6ca90f751d3aae6b1794","685c6e6912fffbbec28ae072","662d0e2441cfa56ee3b70fa8","false","false","Cat","https://kisumu-drawings.s3-us-west-1.amazonaws.com/100-011.png","4","Cat","100-011.png"
"","3263","image-button-response","69","null","1004374","685c6ca90f751d3aae6b1794","685c6e6912fffbbec28ae072","662d0e2441cfa56ee3b70fa8","false","false","Bicycle","https://kisumu-drawings.s3-us-west-1.amazonaws.com/81-011.png","1","Bicycle","81-011.png"
"","2634","image-button-response","70","null","1007512","685c6ca90f751d3aae6b1794","685c6e6912fffbbec28ae072","662d0e2441cfa56ee3b70fa8","false","false","House","https://kisumu-drawings.s3-us-west-1.amazonaws.com/114-007.png","8","House","114-007.png"
"","3540","image-button-response","71","null","1011556","685c6ca90f751d3aae6b1794","685c6e6912fffbbec28ae072","662d0e2441cfa56ee3b70fa8","false","false","Car","https://kisumu-drawings.s3-us-west-1.amazonaws.com/35-009.png","3","Car","35-009.png"
"","2844","image-button-response","72","null","1014905","685c6ca90f751d3aae6b1794","685c6e6912fffbbec28ae072","662d0e2441cfa56ee3b70fa8","false","false","Airplane","https://kisumu-drawings.s3-us-west-1.amazonaws.com/114-011.png","3","Car","114-011.png"
"","3423","image-button-response","73","null","1018834","685c6ca90f751d3aae6b1794","685c6e6912fffbbec28ae072","662d0e2441cfa56ee3b70fa8","false","false","Airplane","https://kisumu-drawings.s3-us-west-1.amazonaws.com/35-006.png","3","Car","35-006.png"
"","2692","image-button-response","74","null","1022031","685c6ca90f751d3aae6b1794","685c6e6912fffbbec28ae072","662d0e2441cfa56ee3b70fa8","false","false","Car","https://kisumu-drawings.s3-us-west-1.amazonaws.com/75-009.png","3","Car","75-009.png"
"","2306","image-button-response","75","null","1024841","685c6ca90f751d3aae6b1794","685c6e6912fffbbec28ae072","662d0e2441cfa56ee3b70fa8","false","false","Watch","https://kisumu-drawings.s3-us-west-1.amazonaws.com/12-006.png","11","Watch","12-006.png"
