"view_history","rt","trial_type","trial_index","plugin_version","time_elapsed","study_id","session_id","participant_id","catch_trial","prep_trial","sketcher_category","stimulus","response","response_category","sketch_id"
"[{""page_index"":0,""viewing_time"":14370},{""page_index"":1,""viewing_time"":5323},{""page_index"":2,""viewing_time"":8580},{""page_index"":3,""viewing_time"":22521}]","50795","instructions","0","null","50814","685c6ca90f751d3aae6b1794","685c6e275ef28f88140e11e1","6630f0ba3c7dd0308672336a","","","","","","",""
"","3796","image-button-response","1","null","55636","685c6ca90f751d3aae6b1794","685c6e275ef28f88140e11e1","6630f0ba3c7dd0308672336a","false","true","car","stimuli/prep_trials/1_car_prep.png","3","Car",""
"","3652","image-button-response","2","null","59798","685c6ca90f751d3aae6b1794","685c6e275ef28f88140e11e1","6630f0ba3c7dd0308672336a","false","true","cat","stimuli/prep_trials/0_cat_prep.jpg","4","Cat",""
"","14259","image-button-response","3","null","74560","685c6ca90f751d3aae6b1794","685c6e275ef28f88140e11e1","6630f0ba3c7dd0308672336a","false","false","Car","https://kisumu-drawings.s3-us-west-1.amazonaws.com/117-008.png","3","Car","117-008.png"
"","4343","image-button-response","4","null","79417","685c6ca90f751d3aae6b1794","685c6e275ef28f88140e11e1","6630f0ba3c7dd0308672336a","false","false","Chair","https://kisumu-drawings.s3-us-west-1.amazonaws.com/116-013.png","5","Chair","116-013.png"
"","55134","image-button-response","5","null","135059","685c6ca90f751d3aae6b1794","685c6e275ef28f88140e11e1","6630f0ba3c7dd0308672336a","false","false","Rabbit","https://kisumu-drawings.s3-us-west-1.amazonaws.com/35-016.png","2","Bird","35-016.png"
"","14187","image-button-response","6","null","149760","685c6ca90f751d3aae6b1794","685c6e275ef28f88140e11e1","6630f0ba3c7dd0308672336a","false","false","Cat","https://kisumu-drawings.s3-us-west-1.amazonaws.com/117-009.png","4","Cat","117-009.png"
"","35028","image-button-response","7","null","185292","685c6ca90f751d3aae6b1794","685c6e275ef28f88140e11e1","6630f0ba3c7dd0308672336a","false","false","Hat","https://kisumu-drawings.s3-us-west-1.amazonaws.com/14-005.png","2","Bird","14-005.png"
"","4203","image-button-response","8","null","190005","685c6ca90f751d3aae6b1794","685c6e275ef28f88140e11e1","6630f0ba3c7dd0308672336a","false","false","Cup","https://kisumu-drawings.s3-us-west-1.amazonaws.com/36-008.png","6","Cup","36-008.png"
"","19703","image-button-response","9","null","210220","685c6ca90f751d3aae6b1794","685c6e275ef28f88140e11e1","6630f0ba3c7dd0308672336a","false","false","Hat","https://kisumu-drawings.s3-us-west-1.amazonaws.com/35-013.png","7","Hat","35-013.png"
"","4791","image-button-response","10","null","215520","685c6ca90f751d3aae6b1794","685c6e275ef28f88140e11e1","6630f0ba3c7dd0308672336a","false","false","Cup","https://kisumu-drawings.s3-us-west-1.amazonaws.com/44-012.png","6","Cup","44-012.png"
"","9724","image-button-response","11","null","225748","685c6ca90f751d3aae6b1794","685c6e275ef28f88140e11e1","6630f0ba3c7dd0308672336a","false","false","Cat","https://kisumu-drawings.s3-us-west-1.amazonaws.com/46-010.png","4","Cat","46-010.png"
"","12527","image-button-response","12","null","238782","685c6ca90f751d3aae6b1794","685c6e275ef28f88140e11e1","6630f0ba3c7dd0308672336a","false","false","Bicycle","https://kisumu-drawings.s3-us-west-1.amazonaws.com/117-016.png","1","Bicycle","117-016.png"
"","12266","image-button-response","13","null","251568","685c6ca90f751d3aae6b1794","685c6e275ef28f88140e11e1","6630f0ba3c7dd0308672336a","false","false","Watch","https://kisumu-drawings.s3-us-west-1.amazonaws.com/42-015.png","0","Airplane","42-015.png"
"","17121","image-button-response","14","null","269193","685c6ca90f751d3aae6b1794","685c6e275ef28f88140e11e1","6630f0ba3c7dd0308672336a","false","false","Rabbit","https://kisumu-drawings.s3-us-west-1.amazonaws.com/114-006.png","9","Rabbit","114-006.png"
"","29892","image-button-response","15","null","299589","685c6ca90f751d3aae6b1794","685c6e275ef28f88140e11e1","6630f0ba3c7dd0308672336a","false","false","Watch","https://kisumu-drawings.s3-us-west-1.amazonaws.com/13-005.png","5","Chair","13-005.png"
"","3435","image-button-response","16","null","303528","685c6ca90f751d3aae6b1794","685c6e275ef28f88140e11e1","6630f0ba3c7dd0308672336a","false","false","Cup","https://kisumu-drawings.s3-us-west-1.amazonaws.com/81-008.png","6","Cup","81-008.png"
"","24739","image-button-response","17","null","328775","685c6ca90f751d3aae6b1794","685c6e275ef28f88140e11e1","6630f0ba3c7dd0308672336a","false","false","Car","https://kisumu-drawings.s3-us-west-1.amazonaws.com/16-006.png","6","Cup","16-006.png"
"","10818","image-button-response","18","null","340097","685c6ca90f751d3aae6b1794","685c6e275ef28f88140e11e1","6630f0ba3c7dd0308672336a","false","false","Bicycle","https://kisumu-drawings.s3-us-west-1.amazonaws.com/17-006.png","1","Bicycle","17-006.png"
"","6337","image-button-response","19","null","346941","685c6ca90f751d3aae6b1794","685c6e275ef28f88140e11e1","6630f0ba3c7dd0308672336a","false","false","Rabbit","https://kisumu-drawings.s3-us-west-1.amazonaws.com/100-005.png","4","Cat","100-005.png"
"","11248","image-button-response","20","null","358696","685c6ca90f751d3aae6b1794","685c6e275ef28f88140e11e1","6630f0ba3c7dd0308672336a","false","false","Watch","https://kisumu-drawings.s3-us-west-1.amazonaws.com/74-013.png","11","Watch","74-013.png"
"","13014","image-button-response","21","null","372223","685c6ca90f751d3aae6b1794","685c6e275ef28f88140e11e1","6630f0ba3c7dd0308672336a","false","false","Bicycle","https://kisumu-drawings.s3-us-west-1.amazonaws.com/78-006.png","1","Bicycle","78-006.png"
"","3576","image-button-response","22","null","376304","685c6ca90f751d3aae6b1794","685c6e275ef28f88140e11e1","6630f0ba3c7dd0308672336a","false","false","Cup","https://kisumu-drawings.s3-us-west-1.amazonaws.com/116-008.png","6","Cup","116-008.png"
"","4316","image-button-response","23","null","381126","685c6ca90f751d3aae6b1794","685c6e275ef28f88140e11e1","6630f0ba3c7dd0308672336a","false","false","Watch","https://kisumu-drawings.s3-us-west-1.amazonaws.com/113-005.png","11","Watch","113-005.png"
"","2939","image-button-response","24","null","384576","685c6ca90f751d3aae6b1794","685c6e275ef28f88140e11e1","6630f0ba3c7dd0308672336a","false","false","Airplane","https://kisumu-drawings.s3-us-west-1.amazonaws.com/84-010.png","0","Airplane","84-010.png"
"","4173","image-button-response","25","null","389265","685c6ca90f751d3aae6b1794","685c6e275ef28f88140e11e1","6630f0ba3c7dd0308672336a","false","false","House","https://kisumu-drawings.s3-us-west-1.amazonaws.com/82-012.png","8","House","82-012.png"
"","14957","image-button-response","26","null","404738","685c6ca90f751d3aae6b1794","685c6e275ef28f88140e11e1","6630f0ba3c7dd0308672336a","false","false","Car","https://kisumu-drawings.s3-us-west-1.amazonaws.com/37-007.png","3","Car","37-007.png"
"","4398","image-button-response","27","null","409644","685c6ca90f751d3aae6b1794","685c6e275ef28f88140e11e1","6630f0ba3c7dd0308672336a","false","false","House","https://kisumu-drawings.s3-us-west-1.amazonaws.com/75-007.png","8","House","75-007.png"
"","20628","image-button-response","28","null","430790","685c6ca90f751d3aae6b1794","685c6e275ef28f88140e11e1","6630f0ba3c7dd0308672336a","false","false","Bird","https://kisumu-drawings.s3-us-west-1.amazonaws.com/38-016.png","2","Bird","38-016.png"
"","18242","image-button-response","29","null","449931","685c6ca90f751d3aae6b1794","685c6e275ef28f88140e11e1","6630f0ba3c7dd0308672336a","false","false","Cat","https://kisumu-drawings.s3-us-west-1.amazonaws.com/37-012.png","4","Cat","37-012.png"
"","32374","image-button-response","30","null","482820","685c6ca90f751d3aae6b1794","685c6e275ef28f88140e11e1","6630f0ba3c7dd0308672336a","false","false","House","https://kisumu-drawings.s3-us-west-1.amazonaws.com/14-016.png","5","Chair","14-016.png"
"","13289","image-button-response","31","null","496628","685c6ca90f751d3aae6b1794","685c6e275ef28f88140e11e1","6630f0ba3c7dd0308672336a","false","false","House","https://kisumu-drawings.s3-us-west-1.amazonaws.com/43-014.png","8","House","43-014.png"
"","9796","image-button-response","32","null","506937","685c6ca90f751d3aae6b1794","685c6e275ef28f88140e11e1","6630f0ba3c7dd0308672336a","false","false","Watch","https://kisumu-drawings.s3-us-west-1.amazonaws.com/99-015.png","11","Watch","99-015.png"
"","86065","image-button-response","33","null","593515","685c6ca90f751d3aae6b1794","685c6e275ef28f88140e11e1","6630f0ba3c7dd0308672336a","false","false","Tree","https://kisumu-drawings.s3-us-west-1.amazonaws.com/100-013.png","10","Tree","100-013.png"
"","40851","image-button-response","34","null","634967","685c6ca90f751d3aae6b1794","685c6e275ef28f88140e11e1","6630f0ba3c7dd0308672336a","false","false","Bicycle","https://kisumu-drawings.s3-us-west-1.amazonaws.com/38-015.png","1","Bicycle","38-015.png"
"","11918","image-button-response","35","null","647400","685c6ca90f751d3aae6b1794","685c6e275ef28f88140e11e1","6630f0ba3c7dd0308672336a","false","false","Bicycle","https://kisumu-drawings.s3-us-west-1.amazonaws.com/46-007.png","1","Bicycle","46-007.png"
"","9674","image-button-response","36","null","657591","685c6ca90f751d3aae6b1794","685c6e275ef28f88140e11e1","6630f0ba3c7dd0308672336a","false","false","Airplane","https://kisumu-drawings.s3-us-west-1.amazonaws.com/46-006.png","0","Airplane","46-006.png"
"","9952","image-button-response","37","null","668059","685c6ca90f751d3aae6b1794","685c6e275ef28f88140e11e1","6630f0ba3c7dd0308672336a","false","false","Hat","https://kisumu-drawings.s3-us-west-1.amazonaws.com/44-015.png","5","Chair","44-015.png"
"","44942","image-button-response","38","null","713516","685c6ca90f751d3aae6b1794","685c6e275ef28f88140e11e1","6630f0ba3c7dd0308672336a","false","false","Rabbit","https://kisumu-drawings.s3-us-west-1.amazonaws.com/14-006.png","10","Tree","14-006.png"
"","11335","image-button-response","39","null","725358","685c6ca90f751d3aae6b1794","685c6e275ef28f88140e11e1","6630f0ba3c7dd0308672336a","false","false","Cat","https://kisumu-drawings.s3-us-west-1.amazonaws.com/83-006.png","4","Cat","83-006.png"
"","7992","image-button-response","40","null","733862","685c6ca90f751d3aae6b1794","685c6e275ef28f88140e11e1","6630f0ba3c7dd0308672336a","false","false","Bird","https://kisumu-drawings.s3-us-west-1.amazonaws.com/77-011.png","2","Bird","77-011.png"
"","22464","image-button-response","41","null","756835","685c6ca90f751d3aae6b1794","685c6e275ef28f88140e11e1","6630f0ba3c7dd0308672336a","false","false","Hat","https://kisumu-drawings.s3-us-west-1.amazonaws.com/82-011.png","7","Hat","82-011.png"
"","6074","image-button-response","42","null","763422","685c6ca90f751d3aae6b1794","685c6e275ef28f88140e11e1","6630f0ba3c7dd0308672336a","false","false","House","https://kisumu-drawings.s3-us-west-1.amazonaws.com/36-010.png","8","House","36-010.png"
"","8502","image-button-response","43","null","772440","685c6ca90f751d3aae6b1794","685c6e275ef28f88140e11e1","6630f0ba3c7dd0308672336a","false","false","Cat","https://kisumu-drawings.s3-us-west-1.amazonaws.com/77-007.png","4","Cat","77-007.png"
"","18606","image-button-response","44","null","791564","685c6ca90f751d3aae6b1794","685c6e275ef28f88140e11e1","6630f0ba3c7dd0308672336a","false","false","Rabbit","https://kisumu-drawings.s3-us-west-1.amazonaws.com/75-016.png","4","Cat","75-016.png"
"","40284","image-button-response","45","null","832364","685c6ca90f751d3aae6b1794","685c6e275ef28f88140e11e1","6630f0ba3c7dd0308672336a","false","false","Chair","https://kisumu-drawings.s3-us-west-1.amazonaws.com/36-013.png","1","Bicycle","36-013.png"
"","45399","image-button-response","46","null","878270","685c6ca90f751d3aae6b1794","685c6e275ef28f88140e11e1","6630f0ba3c7dd0308672336a","false","false","Bird","https://kisumu-drawings.s3-us-west-1.amazonaws.com/16-012.png","5","Chair","16-012.png"
"","12823","image-button-response","47","null","891607","685c6ca90f751d3aae6b1794","685c6e275ef28f88140e11e1","6630f0ba3c7dd0308672336a","false","false","Chair","https://kisumu-drawings.s3-us-west-1.amazonaws.com/44-013.png","2","Bird","44-013.png"
"","15871","image-button-response","48","null","907990","685c6ca90f751d3aae6b1794","685c6e275ef28f88140e11e1","6630f0ba3c7dd0308672336a","false","false","Chair","https://kisumu-drawings.s3-us-west-1.amazonaws.com/82-007.png","5","Chair","82-007.png"
"","20181","image-button-response","49","null","928692","685c6ca90f751d3aae6b1794","685c6e275ef28f88140e11e1","6630f0ba3c7dd0308672336a","false","false","Rabbit","https://kisumu-drawings.s3-us-west-1.amazonaws.com/43-015.png","4","Cat","43-015.png"
"","26487","image-button-response","50","null","955689","685c6ca90f751d3aae6b1794","685c6e275ef28f88140e11e1","6630f0ba3c7dd0308672336a","false","false","Cup","https://kisumu-drawings.s3-us-west-1.amazonaws.com/15-015.png","5","Chair","15-015.png"
"","12490","image-button-response","51","null","968696","685c6ca90f751d3aae6b1794","685c6e275ef28f88140e11e1","6630f0ba3c7dd0308672336a","false","false","Airplane","https://kisumu-drawings.s3-us-west-1.amazonaws.com/18-011.png","4","Cat","18-011.png"
"","25043","image-button-response","52","null","994247","685c6ca90f751d3aae6b1794","685c6e275ef28f88140e11e1","6630f0ba3c7dd0308672336a","false","false","Bird","https://kisumu-drawings.s3-us-west-1.amazonaws.com/45-016.png","3","Car","45-016.png"
"","11385","image-button-response","53","null","1006149","685c6ca90f751d3aae6b1794","685c6e275ef28f88140e11e1","6630f0ba3c7dd0308672336a","false","false","Cup","https://kisumu-drawings.s3-us-west-1.amazonaws.com/76-010.png","6","Cup","76-010.png"
"","8523","image-button-response","54","null","1015175","685c6ca90f751d3aae6b1794","685c6e275ef28f88140e11e1","6630f0ba3c7dd0308672336a","false","false","Bicycle","https://kisumu-drawings.s3-us-west-1.amazonaws.com/84-009.png","1","Bicycle","84-009.png"
"","8080","image-button-response","55","null","1023759","685c6ca90f751d3aae6b1794","685c6e275ef28f88140e11e1","6630f0ba3c7dd0308672336a","false","false","Chair","https://kisumu-drawings.s3-us-west-1.amazonaws.com/77-010.png","5","Chair","77-010.png"
"","5260","image-button-response","56","null","1029527","685c6ca90f751d3aae6b1794","685c6e275ef28f88140e11e1","6630f0ba3c7dd0308672336a","false","false","Airplane","https://kisumu-drawings.s3-us-west-1.amazonaws.com/38-014.png","0","Airplane","38-014.png"
"","18874","image-button-response","57","null","1048907","685c6ca90f751d3aae6b1794","685c6e275ef28f88140e11e1","6630f0ba3c7dd0308672336a","false","false","Chair","https://kisumu-drawings.s3-us-west-1.amazonaws.com/16-008.png","7","Hat","16-008.png"
"","16412","image-button-response","58","null","1065824","685c6ca90f751d3aae6b1794","685c6e275ef28f88140e11e1","6630f0ba3c7dd0308672336a","false","false","Hat","https://kisumu-drawings.s3-us-west-1.amazonaws.com/75-013.png","5","Chair","75-013.png"
"","12991","image-button-response","59","null","1079319","685c6ca90f751d3aae6b1794","685c6e275ef28f88140e11e1","6630f0ba3c7dd0308672336a","false","false","Tree","https://kisumu-drawings.s3-us-west-1.amazonaws.com/114-005.png","10","Tree","114-005.png"
"","7035","image-button-response","60","null","1086867","685c6ca90f751d3aae6b1794","685c6e275ef28f88140e11e1","6630f0ba3c7dd0308672336a","false","false","Tree","https://kisumu-drawings.s3-us-west-1.amazonaws.com/42-011.png","10","Tree","42-011.png"
"","9584","image-button-response","61","null","1096963","685c6ca90f751d3aae6b1794","685c6e275ef28f88140e11e1","6630f0ba3c7dd0308672336a","false","false","Car","https://kisumu-drawings.s3-us-west-1.amazonaws.com/77-015.png","3","Car","77-015.png"
"","13439","image-button-response","62","null","1110910","685c6ca90f751d3aae6b1794","685c6e275ef28f88140e11e1","6630f0ba3c7dd0308672336a","false","false","Car","https://kisumu-drawings.s3-us-west-1.amazonaws.com/84-013.png","3","Car","84-013.png"
"","13502","image-button-response","63","null","1124925","685c6ca90f751d3aae6b1794","685c6e275ef28f88140e11e1","6630f0ba3c7dd0308672336a","false","false","Tree","https://kisumu-drawings.s3-us-west-1.amazonaws.com/14-007.png","2","Bird","14-007.png"
"","1945","image-button-response","64","null","1127379","685c6ca90f751d3aae6b1794","685c6e275ef28f88140e11e1","6630f0ba3c7dd0308672336a","true","false","airplane","stimuli/catch_trials/0_airplane_catch.jpg","0","Airplane",""
"","21766","image-button-response","65","null","1149648","685c6ca90f751d3aae6b1794","685c6e275ef28f88140e11e1","6630f0ba3c7dd0308672336a","false","false","Airplane","https://kisumu-drawings.s3-us-west-1.amazonaws.com/78-008.png","0","Airplane","78-008.png"
"","21573","image-button-response","66","null","1171732","685c6ca90f751d3aae6b1794","685c6e275ef28f88140e11e1","6630f0ba3c7dd0308672336a","false","false","Watch","https://kisumu-drawings.s3-us-west-1.amazonaws.com/33-016.png","7","Hat","33-016.png"
"","3430","image-button-response","67","null","1175680","685c6ca90f751d3aae6b1794","685c6e275ef28f88140e11e1","6630f0ba3c7dd0308672336a","false","false","Bird","https://kisumu-drawings.s3-us-west-1.amazonaws.com/83-007.png","2","Bird","83-007.png"
"","10374","image-button-response","68","null","1186557","685c6ca90f751d3aae6b1794","685c6e275ef28f88140e11e1","6630f0ba3c7dd0308672336a","false","false","Car","https://kisumu-drawings.s3-us-west-1.amazonaws.com/45-005.png","3","Car","45-005.png"
"","9622","image-button-response","69","null","1196695","685c6ca90f751d3aae6b1794","685c6e275ef28f88140e11e1","6630f0ba3c7dd0308672336a","false","false","Hat","https://kisumu-drawings.s3-us-west-1.amazonaws.com/116-009.png","7","Hat","116-009.png"
"","7862","image-button-response","70","null","1205063","685c6ca90f751d3aae6b1794","685c6e275ef28f88140e11e1","6630f0ba3c7dd0308672336a","false","false","Airplane","https://kisumu-drawings.s3-us-west-1.amazonaws.com/118-010.png","0","Airplane","118-010.png"
"","8512","image-button-response","71","null","1214079","685c6ca90f751d3aae6b1794","685c6e275ef28f88140e11e1","6630f0ba3c7dd0308672336a","false","false","Tree","https://kisumu-drawings.s3-us-west-1.amazonaws.com/74-010.png","10","Tree","74-010.png"
"","5415","image-button-response","72","null","1220011","685c6ca90f751d3aae6b1794","685c6e275ef28f88140e11e1","6630f0ba3c7dd0308672336a","false","false","House","https://kisumu-drawings.s3-us-west-1.amazonaws.com/115-010.png","8","House","115-010.png"
"","5737","image-button-response","73","null","1226252","685c6ca90f751d3aae6b1794","685c6e275ef28f88140e11e1","6630f0ba3c7dd0308672336a","false","false","Tree","https://kisumu-drawings.s3-us-west-1.amazonaws.com/33-011.png","10","Tree","33-011.png"
"","8374","image-button-response","74","null","1235135","685c6ca90f751d3aae6b1794","685c6e275ef28f88140e11e1","6630f0ba3c7dd0308672336a","false","false","Cat","https://kisumu-drawings.s3-us-west-1.amazonaws.com/16-007.png","5","Chair","16-007.png"
"","12653","image-button-response","75","null","1248299","685c6ca90f751d3aae6b1794","685c6e275ef28f88140e11e1","6630f0ba3c7dd0308672336a","false","false","Bird","https://kisumu-drawings.s3-us-west-1.amazonaws.com/118-008.png","2","Bird","118-008.png"
