"view_history","rt","trial_type","trial_index","plugin_version","time_elapsed","study_id","session_id","participant_id","catch_trial","prep_trial","sketcher_category","stimulus","response","response_category","sketch_id"
"[{""page_index"":0,""viewing_time"":10552},{""page_index"":1,""viewing_time"":5108},{""page_index"":2,""viewing_time"":4920},{""page_index"":3,""viewing_time"":22709}]","43289","instructions","0","null","43295","685c6ca90f751d3aae6b1794","685c6e21cfa043a537858f21","663e26ccdbc470527165388b","","","","","","",""
"","3843","image-button-response","1","null","48147","685c6ca90f751d3aae6b1794","685c6e21cfa043a537858f21","663e26ccdbc470527165388b","false","true","car","stimuli/prep_trials/1_car_prep.png","3","Car",""
"","2139","image-button-response","2","null","50788","685c6ca90f751d3aae6b1794","685c6e21cfa043a537858f21","663e26ccdbc470527165388b","false","true","cat","stimuli/prep_trials/0_cat_prep.jpg","4","Cat",""
"","8623","image-button-response","3","null","59914","685c6ca90f751d3aae6b1794","685c6e21cfa043a537858f21","663e26ccdbc470527165388b","false","false","Car","https://kisumu-drawings.s3-us-west-1.amazonaws.com/106-016.png","3","Car","106-016.png"
"","16144","image-button-response","4","null","76562","685c6ca90f751d3aae6b1794","685c6e21cfa043a537858f21","663e26ccdbc470527165388b","false","false","Tree","https://kisumu-drawings.s3-us-west-1.amazonaws.com/92-015.png","10","Tree","92-015.png"
"","20768","image-button-response","5","null","97834","685c6ca90f751d3aae6b1794","685c6e21cfa043a537858f21","663e26ccdbc470527165388b","false","false","Tree","https://kisumu-drawings.s3-us-west-1.amazonaws.com/25-016.png","10","Tree","25-016.png"
"","6365","image-button-response","6","null","104700","685c6ca90f751d3aae6b1794","685c6e21cfa043a537858f21","663e26ccdbc470527165388b","false","false","Cup","https://kisumu-drawings.s3-us-west-1.amazonaws.com/60-007.png","6","Cup","60-007.png"
"","14818","image-button-response","7","null","120022","685c6ca90f751d3aae6b1794","685c6e21cfa043a537858f21","663e26ccdbc470527165388b","false","false","Chair","https://kisumu-drawings.s3-us-west-1.amazonaws.com/5-014.png","5","Chair","5-014.png"
"","15643","image-button-response","8","null","136168","685c6ca90f751d3aae6b1794","685c6e21cfa043a537858f21","663e26ccdbc470527165388b","false","false","Chair","https://kisumu-drawings.s3-us-west-1.amazonaws.com/92-009.png","5","Chair","92-009.png"
"","8288","image-button-response","9","null","144958","685c6ca90f751d3aae6b1794","685c6e21cfa043a537858f21","663e26ccdbc470527165388b","false","false","Car","https://kisumu-drawings.s3-us-west-1.amazonaws.com/25-007.png","0","Airplane","25-007.png"
"","3335","image-button-response","10","null","148796","685c6ca90f751d3aae6b1794","685c6e21cfa043a537858f21","663e26ccdbc470527165388b","false","false","Rabbit","https://kisumu-drawings.s3-us-west-1.amazonaws.com/60-008.png","2","Bird","60-008.png"
"","16793","image-button-response","11","null","166092","685c6ca90f751d3aae6b1794","685c6e21cfa043a537858f21","663e26ccdbc470527165388b","false","false","Rabbit","https://kisumu-drawings.s3-us-west-1.amazonaws.com/92-016.png","4","Cat","92-016.png"
"","14229","image-button-response","12","null","180823","685c6ca90f751d3aae6b1794","685c6e21cfa043a537858f21","663e26ccdbc470527165388b","false","false","Car","https://kisumu-drawings.s3-us-west-1.amazonaws.com/92-007.png","0","Airplane","92-007.png"
"","4153","image-button-response","13","null","185480","685c6ca90f751d3aae6b1794","685c6e21cfa043a537858f21","663e26ccdbc470527165388b","false","false","Car","https://kisumu-drawings.s3-us-west-1.amazonaws.com/67-005.png","3","Car","67-005.png"
"","8187","image-button-response","14","null","194170","685c6ca90f751d3aae6b1794","685c6e21cfa043a537858f21","663e26ccdbc470527165388b","false","false","Chair","https://kisumu-drawings.s3-us-west-1.amazonaws.com/60-011.png","5","Chair","60-011.png"
"","4151","image-button-response","15","null","198824","685c6ca90f751d3aae6b1794","685c6e21cfa043a537858f21","663e26ccdbc470527165388b","false","false","House","https://kisumu-drawings.s3-us-west-1.amazonaws.com/92-013.png","8","House","92-013.png"
"","8869","image-button-response","16","null","208194","685c6ca90f751d3aae6b1794","685c6e21cfa043a537858f21","663e26ccdbc470527165388b","false","false","Cat","https://kisumu-drawings.s3-us-west-1.amazonaws.com/5-011.png","4","Cat","5-011.png"
"","3016","image-button-response","17","null","211712","685c6ca90f751d3aae6b1794","685c6e21cfa043a537858f21","663e26ccdbc470527165388b","false","false","Watch","https://kisumu-drawings.s3-us-west-1.amazonaws.com/107-011.png","11","Watch","107-011.png"
"","2070","image-button-response","18","null","214284","685c6ca90f751d3aae6b1794","685c6e21cfa043a537858f21","663e26ccdbc470527165388b","false","false","Airplane","https://kisumu-drawings.s3-us-west-1.amazonaws.com/67-014.png","0","Airplane","67-014.png"
"","15590","image-button-response","19","null","230377","685c6ca90f751d3aae6b1794","685c6e21cfa043a537858f21","663e26ccdbc470527165388b","false","false","Bicycle","https://kisumu-drawings.s3-us-west-1.amazonaws.com/5-015.png","2","Bird","5-015.png"
"","5036","image-button-response","20","null","235915","685c6ca90f751d3aae6b1794","685c6e21cfa043a537858f21","663e26ccdbc470527165388b","false","false","Cat","https://kisumu-drawings.s3-us-west-1.amazonaws.com/106-005.png","4","Cat","106-005.png"
"","3571","image-button-response","21","null","239988","685c6ca90f751d3aae6b1794","685c6e21cfa043a537858f21","663e26ccdbc470527165388b","false","false","Airplane","https://kisumu-drawings.s3-us-west-1.amazonaws.com/92-006.png","0","Airplane","92-006.png"
"","49192","image-button-response","22","null","289683","685c6ca90f751d3aae6b1794","685c6e21cfa043a537858f21","663e26ccdbc470527165388b","false","false","Bird","https://kisumu-drawings.s3-us-west-1.amazonaws.com/25-008.png","11","Watch","25-008.png"
"","4710","image-button-response","23","null","294897","685c6ca90f751d3aae6b1794","685c6e21cfa043a537858f21","663e26ccdbc470527165388b","false","false","Car","https://kisumu-drawings.s3-us-west-1.amazonaws.com/60-012.png","3","Car","60-012.png"
"","2497","image-button-response","24","null","297896","685c6ca90f751d3aae6b1794","685c6e21cfa043a537858f21","663e26ccdbc470527165388b","false","false","House","https://kisumu-drawings.s3-us-west-1.amazonaws.com/67-009.png","8","House","67-009.png"
"","8503","image-button-response","25","null","306900","685c6ca90f751d3aae6b1794","685c6e21cfa043a537858f21","663e26ccdbc470527165388b","false","false","Rabbit","https://kisumu-drawings.s3-us-west-1.amazonaws.com/25-013.png","4","Cat","25-013.png"
"","3055","image-button-response","26","null","310457","685c6ca90f751d3aae6b1794","685c6e21cfa043a537858f21","663e26ccdbc470527165388b","false","false","Airplane","https://kisumu-drawings.s3-us-west-1.amazonaws.com/106-008.png","0","Airplane","106-008.png"
"","2789","image-button-response","27","null","313748","685c6ca90f751d3aae6b1794","685c6e21cfa043a537858f21","663e26ccdbc470527165388b","false","false","Tree","https://kisumu-drawings.s3-us-west-1.amazonaws.com/106-012.png","10","Tree","106-012.png"
"","2158","image-button-response","28","null","316408","685c6ca90f751d3aae6b1794","685c6e21cfa043a537858f21","663e26ccdbc470527165388b","false","false","Chair","https://kisumu-drawings.s3-us-west-1.amazonaws.com/67-010.png","5","Chair","67-010.png"
"","4590","image-button-response","29","null","321502","685c6ca90f751d3aae6b1794","685c6e21cfa043a537858f21","663e26ccdbc470527165388b","false","false","Watch","https://kisumu-drawings.s3-us-west-1.amazonaws.com/25-015.png","2","Bird","25-015.png"
"","3164","image-button-response","30","null","325169","685c6ca90f751d3aae6b1794","685c6e21cfa043a537858f21","663e26ccdbc470527165388b","false","false","Bicycle","https://kisumu-drawings.s3-us-west-1.amazonaws.com/25-005.png","3","Car","25-005.png"
"","2284","image-button-response","31","null","327955","685c6ca90f751d3aae6b1794","685c6e21cfa043a537858f21","663e26ccdbc470527165388b","false","false","Cup","https://kisumu-drawings.s3-us-west-1.amazonaws.com/67-011.png","6","Cup","67-011.png"
"","2360","image-button-response","32","null","330817","685c6ca90f751d3aae6b1794","685c6e21cfa043a537858f21","663e26ccdbc470527165388b","false","false","Watch","https://kisumu-drawings.s3-us-west-1.amazonaws.com/67-006.png","11","Watch","67-006.png"
"","1213","image-button-response","33","null","332532","685c6ca90f751d3aae6b1794","685c6e21cfa043a537858f21","663e26ccdbc470527165388b","true","false","airplane","stimuli/catch_trials/0_airplane_catch.jpg","0","Airplane",""
"","2168","image-button-response","34","null","335202","685c6ca90f751d3aae6b1794","685c6e21cfa043a537858f21","663e26ccdbc470527165388b","false","false","Bird","https://kisumu-drawings.s3-us-west-1.amazonaws.com/106-015.png","2","Bird","106-015.png"
"","13592","image-button-response","35","null","349297","685c6ca90f751d3aae6b1794","685c6e21cfa043a537858f21","663e26ccdbc470527165388b","false","false","Airplane","https://kisumu-drawings.s3-us-west-1.amazonaws.com/5-010.png","7","Hat","5-010.png"
"","3577","image-button-response","36","null","353377","685c6ca90f751d3aae6b1794","685c6e21cfa043a537858f21","663e26ccdbc470527165388b","false","false","Chair","https://kisumu-drawings.s3-us-west-1.amazonaws.com/25-009.png","5","Chair","25-009.png"
"","3383","image-button-response","37","null","357262","685c6ca90f751d3aae6b1794","685c6e21cfa043a537858f21","663e26ccdbc470527165388b","false","false","Tree","https://kisumu-drawings.s3-us-west-1.amazonaws.com/6-014.png","0","Airplane","6-014.png"
"","2183","image-button-response","38","null","359947","685c6ca90f751d3aae6b1794","685c6e21cfa043a537858f21","663e26ccdbc470527165388b","false","false","Chair","https://kisumu-drawings.s3-us-west-1.amazonaws.com/106-007.png","5","Chair","106-007.png"
"","2011","image-button-response","39","null","362461","685c6ca90f751d3aae6b1794","685c6e21cfa043a537858f21","663e26ccdbc470527165388b","false","false","Hat","https://kisumu-drawings.s3-us-west-1.amazonaws.com/60-005.png","7","Hat","60-005.png"
"","10885","image-button-response","40","null","373848","685c6ca90f751d3aae6b1794","685c6e21cfa043a537858f21","663e26ccdbc470527165388b","false","false","Bird","https://kisumu-drawings.s3-us-west-1.amazonaws.com/5-016.png","11","Watch","5-016.png"
"","3429","image-button-response","41","null","377779","685c6ca90f751d3aae6b1794","685c6e21cfa043a537858f21","663e26ccdbc470527165388b","false","false","Hat","https://kisumu-drawings.s3-us-west-1.amazonaws.com/92-011.png","7","Hat","92-011.png"
"","1720","image-button-response","42","null","380001","685c6ca90f751d3aae6b1794","685c6e21cfa043a537858f21","663e26ccdbc470527165388b","false","false","Cat","https://kisumu-drawings.s3-us-west-1.amazonaws.com/92-014.png","3","Car","92-014.png"
"","4007","image-button-response","43","null","384510","685c6ca90f751d3aae6b1794","685c6e21cfa043a537858f21","663e26ccdbc470527165388b","false","false","House","https://kisumu-drawings.s3-us-west-1.amazonaws.com/106-013.png","8","House","106-013.png"
"","3941","image-button-response","44","null","388953","685c6ca90f751d3aae6b1794","685c6e21cfa043a537858f21","663e26ccdbc470527165388b","false","false","Cup","https://kisumu-drawings.s3-us-west-1.amazonaws.com/25-012.png","6","Cup","25-012.png"
"","1570","image-button-response","45","null","391024","685c6ca90f751d3aae6b1794","685c6e21cfa043a537858f21","663e26ccdbc470527165388b","false","false","Cup","https://kisumu-drawings.s3-us-west-1.amazonaws.com/106-010.png","6","Cup","106-010.png"
"","3321","image-button-response","46","null","394847","685c6ca90f751d3aae6b1794","685c6e21cfa043a537858f21","663e26ccdbc470527165388b","false","false","Bicycle","https://kisumu-drawings.s3-us-west-1.amazonaws.com/106-009.png","1","Bicycle","106-009.png"
"","2778","image-button-response","47","null","398127","685c6ca90f751d3aae6b1794","685c6e21cfa043a537858f21","663e26ccdbc470527165388b","false","false","Bird","https://kisumu-drawings.s3-us-west-1.amazonaws.com/92-012.png","2","Bird","92-012.png"
"","4844","image-button-response","48","null","403473","685c6ca90f751d3aae6b1794","685c6e21cfa043a537858f21","663e26ccdbc470527165388b","false","false","Bicycle","https://kisumu-drawings.s3-us-west-1.amazonaws.com/60-015.png","1","Bicycle","60-015.png"
"","2905","image-button-response","49","null","406880","685c6ca90f751d3aae6b1794","685c6e21cfa043a537858f21","663e26ccdbc470527165388b","false","false","Cat","https://kisumu-drawings.s3-us-west-1.amazonaws.com/67-013.png","4","Cat","67-013.png"
"","2044","image-button-response","50","null","409427","685c6ca90f751d3aae6b1794","685c6e21cfa043a537858f21","663e26ccdbc470527165388b","false","false","House","https://kisumu-drawings.s3-us-west-1.amazonaws.com/60-006.png","8","House","60-006.png"
"","11913","image-button-response","51","null","421842","685c6ca90f751d3aae6b1794","685c6e21cfa043a537858f21","663e26ccdbc470527165388b","false","false","Car","https://kisumu-drawings.s3-us-west-1.amazonaws.com/5-006.png","1","Bicycle","5-006.png"
"","2694","image-button-response","52","null","425037","685c6ca90f751d3aae6b1794","685c6e21cfa043a537858f21","663e26ccdbc470527165388b","false","false","Airplane","https://kisumu-drawings.s3-us-west-1.amazonaws.com/59-011.png","0","Airplane","59-011.png"
"","2648","image-button-response","53","null","428188","685c6ca90f751d3aae6b1794","685c6e21cfa043a537858f21","663e26ccdbc470527165388b","false","false","House","https://kisumu-drawings.s3-us-west-1.amazonaws.com/5-013.png","4","Cat","5-013.png"
"","2400","image-button-response","54","null","431090","685c6ca90f751d3aae6b1794","685c6e21cfa043a537858f21","663e26ccdbc470527165388b","false","false","Bicycle","https://kisumu-drawings.s3-us-west-1.amazonaws.com/67-015.png","1","Bicycle","67-015.png"
"","2842","image-button-response","55","null","434434","685c6ca90f751d3aae6b1794","685c6e21cfa043a537858f21","663e26ccdbc470527165388b","false","false","Rabbit","https://kisumu-drawings.s3-us-west-1.amazonaws.com/67-007.png","9","Rabbit","67-007.png"
"","1740","image-button-response","56","null","436677","685c6ca90f751d3aae6b1794","685c6e21cfa043a537858f21","663e26ccdbc470527165388b","false","false","Watch","https://kisumu-drawings.s3-us-west-1.amazonaws.com/92-008.png","11","Watch","92-008.png"
"","31688","image-button-response","57","null","468867","685c6ca90f751d3aae6b1794","685c6e21cfa043a537858f21","663e26ccdbc470527165388b","false","false","Airplane","https://kisumu-drawings.s3-us-west-1.amazonaws.com/34-011.png","7","Hat","34-011.png"
"","2953","image-button-response","58","null","472322","685c6ca90f751d3aae6b1794","685c6e21cfa043a537858f21","663e26ccdbc470527165388b","false","false","Tree","https://kisumu-drawings.s3-us-west-1.amazonaws.com/60-009.png","10","Tree","60-009.png"
"","6016","image-button-response","59","null","478840","685c6ca90f751d3aae6b1794","685c6e21cfa043a537858f21","663e26ccdbc470527165388b","false","false","Cat","https://kisumu-drawings.s3-us-west-1.amazonaws.com/59-008.png","4","Cat","59-008.png"
"","22950","image-button-response","60","null","502293","685c6ca90f751d3aae6b1794","685c6e21cfa043a537858f21","663e26ccdbc470527165388b","false","false","Hat","https://kisumu-drawings.s3-us-west-1.amazonaws.com/106-011.png","7","Hat","106-011.png"
"","17507","image-button-response","61","null","520301","685c6ca90f751d3aae6b1794","685c6e21cfa043a537858f21","663e26ccdbc470527165388b","false","false","Hat","https://kisumu-drawings.s3-us-west-1.amazonaws.com/67-012.png","7","Hat","67-012.png"
"","5532","image-button-response","62","null","526341","685c6ca90f751d3aae6b1794","685c6e21cfa043a537858f21","663e26ccdbc470527165388b","false","false","Bicycle","https://kisumu-drawings.s3-us-west-1.amazonaws.com/92-005.png","3","Car","92-005.png"
"","2580","image-button-response","63","null","529425","685c6ca90f751d3aae6b1794","685c6e21cfa043a537858f21","663e26ccdbc470527165388b","false","false","Watch","https://kisumu-drawings.s3-us-west-1.amazonaws.com/60-010.png","11","Watch","60-010.png"
"","2091","image-button-response","64","null","532020","685c6ca90f751d3aae6b1794","685c6e21cfa043a537858f21","663e26ccdbc470527165388b","false","false","Cup","https://kisumu-drawings.s3-us-west-1.amazonaws.com/92-010.png","6","Cup","92-010.png"
"","3075","image-button-response","65","null","535596","685c6ca90f751d3aae6b1794","685c6e21cfa043a537858f21","663e26ccdbc470527165388b","false","false","Watch","https://kisumu-drawings.s3-us-west-1.amazonaws.com/5-009.png","4","Cat","5-009.png"
"","2849","image-button-response","66","null","538948","685c6ca90f751d3aae6b1794","685c6e21cfa043a537858f21","663e26ccdbc470527165388b","false","false","Cup","https://kisumu-drawings.s3-us-west-1.amazonaws.com/5-012.png","6","Cup","5-012.png"
"","1916","image-button-response","67","null","541366","685c6ca90f751d3aae6b1794","685c6e21cfa043a537858f21","663e26ccdbc470527165388b","false","false","Bird","https://kisumu-drawings.s3-us-west-1.amazonaws.com/67-016.png","2","Bird","67-016.png"
"","2809","image-button-response","68","null","544678","685c6ca90f751d3aae6b1794","685c6e21cfa043a537858f21","663e26ccdbc470527165388b","false","false","Hat","https://kisumu-drawings.s3-us-west-1.amazonaws.com/25-011.png","7","Hat","25-011.png"
"","5078","image-button-response","69","null","550258","685c6ca90f751d3aae6b1794","685c6e21cfa043a537858f21","663e26ccdbc470527165388b","false","false","Rabbit","https://kisumu-drawings.s3-us-west-1.amazonaws.com/5-005.png","4","Cat","5-005.png"
"","4105","image-button-response","70","null","554866","685c6ca90f751d3aae6b1794","685c6e21cfa043a537858f21","663e26ccdbc470527165388b","false","false","House","https://kisumu-drawings.s3-us-west-1.amazonaws.com/25-014.png","8","House","25-014.png"
"","5740","image-button-response","71","null","561109","685c6ca90f751d3aae6b1794","685c6e21cfa043a537858f21","663e26ccdbc470527165388b","false","false","Bird","https://kisumu-drawings.s3-us-west-1.amazonaws.com/60-014.png","2","Bird","60-014.png"
"","22484","image-button-response","72","null","584096","685c6ca90f751d3aae6b1794","685c6e21cfa043a537858f21","663e26ccdbc470527165388b","false","false","Rabbit","https://kisumu-drawings.s3-us-west-1.amazonaws.com/107-005.png","4","Cat","107-005.png"
"","2900","image-button-response","73","null","587499","685c6ca90f751d3aae6b1794","685c6e21cfa043a537858f21","663e26ccdbc470527165388b","false","false","Tree","https://kisumu-drawings.s3-us-west-1.amazonaws.com/67-008.png","10","Tree","67-008.png"
"","3533","image-button-response","74","null","591533","685c6ca90f751d3aae6b1794","685c6e21cfa043a537858f21","663e26ccdbc470527165388b","false","false","Cat","https://kisumu-drawings.s3-us-west-1.amazonaws.com/25-010.png","2","Bird","25-010.png"
"","15187","image-button-response","75","null","607222","685c6ca90f751d3aae6b1794","685c6e21cfa043a537858f21","663e26ccdbc470527165388b","false","false","Hat","https://kisumu-drawings.s3-us-west-1.amazonaws.com/5-007.png","7","Hat","5-007.png"
