"view_history","rt","trial_type","trial_index","plugin_version","time_elapsed","study_id","session_id","participant_id","catch_trial","prep_trial","sketcher_category","stimulus","response","response_category","sketch_id"
"[{""page_index"":0,""viewing_time"":6642},{""page_index"":1,""viewing_time"":10544},{""page_index"":2,""viewing_time"":4204},{""page_index"":3,""viewing_time"":11977}]","33367","instructions","0","null","33379","685c6ca90f751d3aae6b1794","685c72cb89f3b16f64fd1fc4","664e2d4a26686cecdfd660eb","","","","","","",""
"","3443","image-button-response","1","null","37832","685c6ca90f751d3aae6b1794","685c72cb89f3b16f64fd1fc4","664e2d4a26686cecdfd660eb","false","true","car","stimuli/prep_trials/1_car_prep.png","3","Car",""
"","2524","image-button-response","2","null","40861","685c6ca90f751d3aae6b1794","685c72cb89f3b16f64fd1fc4","664e2d4a26686cecdfd660eb","false","true","cat","stimuli/prep_trials/0_cat_prep.jpg","4","Cat",""
"","11379","image-button-response","3","null","52745","685c6ca90f751d3aae6b1794","685c72cb89f3b16f64fd1fc4","664e2d4a26686cecdfd660eb","false","false","Bicycle","https://kisumu-drawings.s3-us-west-1.amazonaws.com/74-014.png","1","Bicycle","74-014.png"
"","4240","image-button-response","4","null","57489","685c6ca90f751d3aae6b1794","685c72cb89f3b16f64fd1fc4","664e2d4a26686cecdfd660eb","false","false","Airplane","https://kisumu-drawings.s3-us-west-1.amazonaws.com/118-010.png","0","Airplane","118-010.png"
"","4214","image-button-response","5","null","62207","685c6ca90f751d3aae6b1794","685c72cb89f3b16f64fd1fc4","664e2d4a26686cecdfd660eb","false","false","Cup","https://kisumu-drawings.s3-us-west-1.amazonaws.com/78-011.png","6","Cup","78-011.png"
"","5824","image-button-response","6","null","68536","685c6ca90f751d3aae6b1794","685c72cb89f3b16f64fd1fc4","664e2d4a26686cecdfd660eb","false","false","Cat","https://kisumu-drawings.s3-us-west-1.amazonaws.com/106-005.png","4","Cat","106-005.png"
"","3765","image-button-response","7","null","72805","685c6ca90f751d3aae6b1794","685c72cb89f3b16f64fd1fc4","664e2d4a26686cecdfd660eb","false","false","Car","https://kisumu-drawings.s3-us-west-1.amazonaws.com/88-016.png","3","Car","88-016.png"
"","3977","image-button-response","8","null","77287","685c6ca90f751d3aae6b1794","685c72cb89f3b16f64fd1fc4","664e2d4a26686cecdfd660eb","false","false","Tree","https://kisumu-drawings.s3-us-west-1.amazonaws.com/74-010.png","10","Tree","74-010.png"
"","6780","image-button-response","9","null","84572","685c6ca90f751d3aae6b1794","685c72cb89f3b16f64fd1fc4","664e2d4a26686cecdfd660eb","false","false","Bicycle","https://kisumu-drawings.s3-us-west-1.amazonaws.com/32-009.png","1","Bicycle","32-009.png"
"","12574","image-button-response","10","null","97652","685c6ca90f751d3aae6b1794","685c72cb89f3b16f64fd1fc4","664e2d4a26686cecdfd660eb","false","false","Bird","https://kisumu-drawings.s3-us-west-1.amazonaws.com/14-013.png","11","Watch","14-013.png"
"","3671","image-button-response","11","null","101829","685c6ca90f751d3aae6b1794","685c72cb89f3b16f64fd1fc4","664e2d4a26686cecdfd660eb","false","false","House","https://kisumu-drawings.s3-us-west-1.amazonaws.com/14-016.png","11","Watch","14-016.png"
"","2556","image-button-response","12","null","104889","685c6ca90f751d3aae6b1794","685c72cb89f3b16f64fd1fc4","664e2d4a26686cecdfd660eb","false","false","Cup","https://kisumu-drawings.s3-us-west-1.amazonaws.com/25-012.png","6","Cup","25-012.png"
"","4086","image-button-response","13","null","109478","685c6ca90f751d3aae6b1794","685c72cb89f3b16f64fd1fc4","664e2d4a26686cecdfd660eb","false","false","Rabbit","https://kisumu-drawings.s3-us-west-1.amazonaws.com/46-016.png","4","Cat","46-016.png"
"","2482","image-button-response","14","null","112466","685c6ca90f751d3aae6b1794","685c72cb89f3b16f64fd1fc4","664e2d4a26686cecdfd660eb","false","false","Watch","https://kisumu-drawings.s3-us-west-1.amazonaws.com/88-005.png","11","Watch","88-005.png"
"","5487","image-button-response","15","null","118457","685c6ca90f751d3aae6b1794","685c72cb89f3b16f64fd1fc4","664e2d4a26686cecdfd660eb","false","false","Cat","https://kisumu-drawings.s3-us-west-1.amazonaws.com/85-008.png","4","Cat","85-008.png"
"","4413","image-button-response","16","null","123373","685c6ca90f751d3aae6b1794","685c72cb89f3b16f64fd1fc4","664e2d4a26686cecdfd660eb","false","false","Watch","https://kisumu-drawings.s3-us-west-1.amazonaws.com/21-009.png","11","Watch","21-009.png"
"","5063","image-button-response","17","null","128939","685c6ca90f751d3aae6b1794","685c72cb89f3b16f64fd1fc4","664e2d4a26686cecdfd660eb","false","false","Bird","https://kisumu-drawings.s3-us-west-1.amazonaws.com/85-007.png","2","Bird","85-007.png"
"","5991","image-button-response","18","null","135434","685c6ca90f751d3aae6b1794","685c72cb89f3b16f64fd1fc4","664e2d4a26686cecdfd660eb","false","false","Bird","https://kisumu-drawings.s3-us-west-1.amazonaws.com/32-012.png","2","Bird","32-012.png"
"","2905","image-button-response","19","null","138843","685c6ca90f751d3aae6b1794","685c72cb89f3b16f64fd1fc4","664e2d4a26686cecdfd660eb","false","false","Car","https://kisumu-drawings.s3-us-west-1.amazonaws.com/54-005.png","3","Car","54-005.png"
"","2658","image-button-response","20","null","142004","685c6ca90f751d3aae6b1794","685c72cb89f3b16f64fd1fc4","664e2d4a26686cecdfd660eb","false","false","Rabbit","https://kisumu-drawings.s3-us-west-1.amazonaws.com/84-015.png","4","Cat","84-015.png"
"","2355","image-button-response","21","null","144864","685c6ca90f751d3aae6b1794","685c72cb89f3b16f64fd1fc4","664e2d4a26686cecdfd660eb","false","false","Tree","https://kisumu-drawings.s3-us-west-1.amazonaws.com/53-012.png","9","Rabbit","53-012.png"
"","5617","image-button-response","22","null","150984","685c6ca90f751d3aae6b1794","685c72cb89f3b16f64fd1fc4","664e2d4a26686cecdfd660eb","false","false","Watch","https://kisumu-drawings.s3-us-west-1.amazonaws.com/46-011.png","11","Watch","46-011.png"
"","3821","image-button-response","23","null","155309","685c6ca90f751d3aae6b1794","685c72cb89f3b16f64fd1fc4","664e2d4a26686cecdfd660eb","false","false","Chair","https://kisumu-drawings.s3-us-west-1.amazonaws.com/35-007.png","5","Chair","35-007.png"
"","4649","image-button-response","24","null","160462","685c6ca90f751d3aae6b1794","685c72cb89f3b16f64fd1fc4","664e2d4a26686cecdfd660eb","false","false","Airplane","https://kisumu-drawings.s3-us-west-1.amazonaws.com/50-005.png","0","Airplane","50-005.png"
"","2501","image-button-response","25","null","163466","685c6ca90f751d3aae6b1794","685c72cb89f3b16f64fd1fc4","664e2d4a26686cecdfd660eb","false","false","Cup","https://kisumu-drawings.s3-us-west-1.amazonaws.com/17-014.png","6","Cup","17-014.png"
"","3507","image-button-response","26","null","167476","685c6ca90f751d3aae6b1794","685c72cb89f3b16f64fd1fc4","664e2d4a26686cecdfd660eb","false","false","Airplane","https://kisumu-drawings.s3-us-west-1.amazonaws.com/82-005.png","0","Airplane","82-005.png"
"","6513","image-button-response","27","null","174493","685c6ca90f751d3aae6b1794","685c72cb89f3b16f64fd1fc4","664e2d4a26686cecdfd660eb","false","false","Hat","https://kisumu-drawings.s3-us-west-1.amazonaws.com/9-006.png","5","Chair","9-006.png"
"","3349","image-button-response","28","null","178345","685c6ca90f751d3aae6b1794","685c72cb89f3b16f64fd1fc4","664e2d4a26686cecdfd660eb","false","false","Hat","https://kisumu-drawings.s3-us-west-1.amazonaws.com/69-008.png","8","House","69-008.png"
"","3815","image-button-response","29","null","182664","685c6ca90f751d3aae6b1794","685c72cb89f3b16f64fd1fc4","664e2d4a26686cecdfd660eb","false","false","Chair","https://kisumu-drawings.s3-us-west-1.amazonaws.com/117-010.png","5","Chair","117-010.png"
"","2127","image-button-response","30","null","185295","685c6ca90f751d3aae6b1794","685c72cb89f3b16f64fd1fc4","664e2d4a26686cecdfd660eb","false","false","Watch","https://kisumu-drawings.s3-us-west-1.amazonaws.com/101-015.png","11","Watch","101-015.png"
"","4093","image-button-response","31","null","189892","685c6ca90f751d3aae6b1794","685c72cb89f3b16f64fd1fc4","664e2d4a26686cecdfd660eb","false","false","Bicycle","https://kisumu-drawings.s3-us-west-1.amazonaws.com/45-015.png","3","Car","45-015.png"
"","4586","image-button-response","32","null","194982","685c6ca90f751d3aae6b1794","685c72cb89f3b16f64fd1fc4","664e2d4a26686cecdfd660eb","false","false","Rabbit","https://kisumu-drawings.s3-us-west-1.amazonaws.com/102-005.png","4","Cat","102-005.png"
"","5186","image-button-response","33","null","200671","685c6ca90f751d3aae6b1794","685c72cb89f3b16f64fd1fc4","664e2d4a26686cecdfd660eb","false","false","Rabbit","https://kisumu-drawings.s3-us-west-1.amazonaws.com/69-010.png","9","Rabbit","69-010.png"
"","5372","image-button-response","34","null","206545","685c6ca90f751d3aae6b1794","685c72cb89f3b16f64fd1fc4","664e2d4a26686cecdfd660eb","false","false","Watch","https://kisumu-drawings.s3-us-west-1.amazonaws.com/7-016.png","0","Airplane","7-016.png"
"","7559","image-button-response","35","null","214609","685c6ca90f751d3aae6b1794","685c72cb89f3b16f64fd1fc4","664e2d4a26686cecdfd660eb","false","false","Cat","https://kisumu-drawings.s3-us-west-1.amazonaws.com/74-009.png","4","Cat","74-009.png"
"","3697","image-button-response","36","null","218810","685c6ca90f751d3aae6b1794","685c72cb89f3b16f64fd1fc4","664e2d4a26686cecdfd660eb","false","false","House","https://kisumu-drawings.s3-us-west-1.amazonaws.com/102-006.png","8","House","102-006.png"
"","2722","image-button-response","37","null","222035","685c6ca90f751d3aae6b1794","685c72cb89f3b16f64fd1fc4","664e2d4a26686cecdfd660eb","false","false","Cup","https://kisumu-drawings.s3-us-west-1.amazonaws.com/103-006.png","6","Cup","103-006.png"
"","3146","image-button-response","38","null","225684","685c6ca90f751d3aae6b1794","685c72cb89f3b16f64fd1fc4","664e2d4a26686cecdfd660eb","false","false","Bird","https://kisumu-drawings.s3-us-west-1.amazonaws.com/68-007.png","2","Bird","68-007.png"
"","4103","image-button-response","39","null","230291","685c6ca90f751d3aae6b1794","685c72cb89f3b16f64fd1fc4","664e2d4a26686cecdfd660eb","false","false","Cat","https://kisumu-drawings.s3-us-west-1.amazonaws.com/39-007.png","2","Bird","39-007.png"
"","2880","image-button-response","40","null","233675","685c6ca90f751d3aae6b1794","685c72cb89f3b16f64fd1fc4","664e2d4a26686cecdfd660eb","false","false","Tree","https://kisumu-drawings.s3-us-west-1.amazonaws.com/94-007.png","10","Tree","94-007.png"
"","4742","image-button-response","41","null","238920","685c6ca90f751d3aae6b1794","685c72cb89f3b16f64fd1fc4","664e2d4a26686cecdfd660eb","false","false","Car","https://kisumu-drawings.s3-us-west-1.amazonaws.com/37-007.png","3","Car","37-007.png"
"","3146","image-button-response","42","null","242570","685c6ca90f751d3aae6b1794","685c72cb89f3b16f64fd1fc4","664e2d4a26686cecdfd660eb","false","false","Bicycle","https://kisumu-drawings.s3-us-west-1.amazonaws.com/85-006.png","1","Bicycle","85-006.png"
"","5425","image-button-response","43","null","248498","685c6ca90f751d3aae6b1794","685c72cb89f3b16f64fd1fc4","664e2d4a26686cecdfd660eb","false","false","Chair","https://kisumu-drawings.s3-us-west-1.amazonaws.com/15-009.png","8","House","15-009.png"
"","1929","image-button-response","44","null","250931","685c6ca90f751d3aae6b1794","685c72cb89f3b16f64fd1fc4","664e2d4a26686cecdfd660eb","true","false","airplane","stimuli/catch_trials/0_airplane_catch.jpg","0","Airplane",""
"","6542","image-button-response","45","null","257978","685c6ca90f751d3aae6b1794","685c72cb89f3b16f64fd1fc4","664e2d4a26686cecdfd660eb","false","false","Airplane","https://kisumu-drawings.s3-us-west-1.amazonaws.com/24-008.png","2","Bird","24-008.png"
"","5483","image-button-response","46","null","263964","685c6ca90f751d3aae6b1794","685c72cb89f3b16f64fd1fc4","664e2d4a26686cecdfd660eb","false","false","Hat","https://kisumu-drawings.s3-us-west-1.amazonaws.com/47-015.png","2","Bird","47-015.png"
"","4375","image-button-response","47","null","268841","685c6ca90f751d3aae6b1794","685c72cb89f3b16f64fd1fc4","664e2d4a26686cecdfd660eb","false","false","Cat","https://kisumu-drawings.s3-us-west-1.amazonaws.com/19-016.png","5","Chair","19-016.png"
"","2893","image-button-response","48","null","272239","685c6ca90f751d3aae6b1794","685c72cb89f3b16f64fd1fc4","664e2d4a26686cecdfd660eb","false","false","House","https://kisumu-drawings.s3-us-west-1.amazonaws.com/78-012.png","8","House","78-012.png"
"","2310","image-button-response","49","null","275053","685c6ca90f751d3aae6b1794","685c72cb89f3b16f64fd1fc4","664e2d4a26686cecdfd660eb","false","false","Bird","https://kisumu-drawings.s3-us-west-1.amazonaws.com/108-011.png","2","Bird","108-011.png"
"","3791","image-button-response","50","null","279348","685c6ca90f751d3aae6b1794","685c72cb89f3b16f64fd1fc4","664e2d4a26686cecdfd660eb","false","false","Hat","https://kisumu-drawings.s3-us-west-1.amazonaws.com/96-008.png","7","Hat","96-008.png"
"","4607","image-button-response","51","null","284458","685c6ca90f751d3aae6b1794","685c72cb89f3b16f64fd1fc4","664e2d4a26686cecdfd660eb","false","false","Cat","https://kisumu-drawings.s3-us-west-1.amazonaws.com/43-010.png","4","Cat","43-010.png"
"","6014","image-button-response","52","null","290976","685c6ca90f751d3aae6b1794","685c72cb89f3b16f64fd1fc4","664e2d4a26686cecdfd660eb","false","false","Tree","https://kisumu-drawings.s3-us-west-1.amazonaws.com/18-016.png","11","Watch","18-016.png"
"","3747","image-button-response","53","null","295227","685c6ca90f751d3aae6b1794","685c72cb89f3b16f64fd1fc4","664e2d4a26686cecdfd660eb","false","false","Hat","https://kisumu-drawings.s3-us-west-1.amazonaws.com/106-011.png","5","Chair","106-011.png"
"","3345","image-button-response","54","null","299076","685c6ca90f751d3aae6b1794","685c72cb89f3b16f64fd1fc4","664e2d4a26686cecdfd660eb","false","false","Cup","https://kisumu-drawings.s3-us-west-1.amazonaws.com/100-008.png","6","Cup","100-008.png"
"","3748","image-button-response","55","null","303327","685c6ca90f751d3aae6b1794","685c72cb89f3b16f64fd1fc4","664e2d4a26686cecdfd660eb","false","false","Rabbit","https://kisumu-drawings.s3-us-west-1.amazonaws.com/3-014.png","4","Cat","3-014.png"
"","2521","image-button-response","56","null","306353","685c6ca90f751d3aae6b1794","685c72cb89f3b16f64fd1fc4","664e2d4a26686cecdfd660eb","false","false","Hat","https://kisumu-drawings.s3-us-west-1.amazonaws.com/31-012.png","5","Chair","31-012.png"
"","5081","image-button-response","57","null","311938","685c6ca90f751d3aae6b1794","685c72cb89f3b16f64fd1fc4","664e2d4a26686cecdfd660eb","false","false","Watch","https://kisumu-drawings.s3-us-west-1.amazonaws.com/79-007.png","11","Watch","79-007.png"
"","4074","image-button-response","58","null","316516","685c6ca90f751d3aae6b1794","685c72cb89f3b16f64fd1fc4","664e2d4a26686cecdfd660eb","false","false","Chair","https://kisumu-drawings.s3-us-west-1.amazonaws.com/77-010.png","5","Chair","77-010.png"
"","4044","image-button-response","59","null","321064","685c6ca90f751d3aae6b1794","685c72cb89f3b16f64fd1fc4","664e2d4a26686cecdfd660eb","false","false","Car","https://kisumu-drawings.s3-us-west-1.amazonaws.com/75-009.png","3","Car","75-009.png"
"","3516","image-button-response","60","null","325083","685c6ca90f751d3aae6b1794","685c72cb89f3b16f64fd1fc4","664e2d4a26686cecdfd660eb","false","false","Airplane","https://kisumu-drawings.s3-us-west-1.amazonaws.com/18-011.png","7","Hat","18-011.png"
"","2783","image-button-response","61","null","328370","685c6ca90f751d3aae6b1794","685c72cb89f3b16f64fd1fc4","664e2d4a26686cecdfd660eb","false","false","Cup","https://kisumu-drawings.s3-us-west-1.amazonaws.com/60-007.png","6","Cup","60-007.png"
"","2065","image-button-response","62","null","330937","685c6ca90f751d3aae6b1794","685c72cb89f3b16f64fd1fc4","664e2d4a26686cecdfd660eb","false","false","Chair","https://kisumu-drawings.s3-us-west-1.amazonaws.com/97-009.png","5","Chair","97-009.png"
"","2448","image-button-response","63","null","333889","685c6ca90f751d3aae6b1794","685c72cb89f3b16f64fd1fc4","664e2d4a26686cecdfd660eb","false","false","House","https://kisumu-drawings.s3-us-west-1.amazonaws.com/81-015.png","8","House","81-015.png"
"","3751","image-button-response","64","null","338142","685c6ca90f751d3aae6b1794","685c72cb89f3b16f64fd1fc4","664e2d4a26686cecdfd660eb","false","false","Airplane","https://kisumu-drawings.s3-us-west-1.amazonaws.com/72-005.png","0","Airplane","72-005.png"
"","3328","image-button-response","65","null","341974","685c6ca90f751d3aae6b1794","685c72cb89f3b16f64fd1fc4","664e2d4a26686cecdfd660eb","false","false","Bicycle","https://kisumu-drawings.s3-us-west-1.amazonaws.com/104-016.png","1","Bicycle","104-016.png"
"","2260","image-button-response","66","null","344735","685c6ca90f751d3aae6b1794","685c72cb89f3b16f64fd1fc4","664e2d4a26686cecdfd660eb","false","false","Car","https://kisumu-drawings.s3-us-west-1.amazonaws.com/117-008.png","3","Car","117-008.png"
"","1921","image-button-response","67","null","347161","685c6ca90f751d3aae6b1794","685c72cb89f3b16f64fd1fc4","664e2d4a26686cecdfd660eb","false","false","House","https://kisumu-drawings.s3-us-west-1.amazonaws.com/55-016.png","8","House","55-016.png"
"","3273","image-button-response","68","null","350938","685c6ca90f751d3aae6b1794","685c72cb89f3b16f64fd1fc4","664e2d4a26686cecdfd660eb","false","false","Car","https://kisumu-drawings.s3-us-west-1.amazonaws.com/1-011.png","2","Bird","1-011.png"
"","2178","image-button-response","69","null","353620","685c6ca90f751d3aae6b1794","685c72cb89f3b16f64fd1fc4","664e2d4a26686cecdfd660eb","false","false","Chair","https://kisumu-drawings.s3-us-west-1.amazonaws.com/47-013.png","5","Chair","47-013.png"
"","3426","image-button-response","70","null","357551","685c6ca90f751d3aae6b1794","685c72cb89f3b16f64fd1fc4","664e2d4a26686cecdfd660eb","false","false","Rabbit","https://kisumu-drawings.s3-us-west-1.amazonaws.com/33-010.png","1","Bicycle","33-010.png"
"","3729","image-button-response","71","null","361783","685c6ca90f751d3aae6b1794","685c72cb89f3b16f64fd1fc4","664e2d4a26686cecdfd660eb","false","false","Bicycle","https://kisumu-drawings.s3-us-west-1.amazonaws.com/9-008.png","7","Hat","9-008.png"
"","2319","image-button-response","72","null","364606","685c6ca90f751d3aae6b1794","685c72cb89f3b16f64fd1fc4","664e2d4a26686cecdfd660eb","false","false","Bird","https://kisumu-drawings.s3-us-west-1.amazonaws.com/44-010.png","0","Airplane","44-010.png"
"","2259","image-button-response","73","null","367369","685c6ca90f751d3aae6b1794","685c72cb89f3b16f64fd1fc4","664e2d4a26686cecdfd660eb","false","false","Tree","https://kisumu-drawings.s3-us-west-1.amazonaws.com/26-016.png","10","Tree","26-016.png"
"","3051","image-button-response","74","null","370925","685c6ca90f751d3aae6b1794","685c72cb89f3b16f64fd1fc4","664e2d4a26686cecdfd660eb","false","false","Tree","https://kisumu-drawings.s3-us-west-1.amazonaws.com/113-010.png","10","Tree","113-010.png"
"","2541","image-button-response","75","null","373969","685c6ca90f751d3aae6b1794","685c72cb89f3b16f64fd1fc4","664e2d4a26686cecdfd660eb","false","false","House","https://kisumu-drawings.s3-us-west-1.amazonaws.com/35-011.png","8","House","35-011.png"
