"view_history","rt","trial_type","trial_index","plugin_version","time_elapsed","study_id","session_id","participant_id","catch_trial","prep_trial","sketcher_category","stimulus","response","response_category","sketch_id"
"[{""page_index"":0,""viewing_time"":4013},{""page_index"":1,""viewing_time"":4663},{""page_index"":2,""viewing_time"":3268},{""page_index"":3,""viewing_time"":3755}]","15700","instructions","0","null","15715","685c6ca90f751d3aae6b1794","685c6dff3f98fccd6c42acc6","6650ba88f2e4099801ab8357","","","","","","",""
"","3335","image-button-response","1","null","20059","685c6ca90f751d3aae6b1794","685c6dff3f98fccd6c42acc6","6650ba88f2e4099801ab8357","false","true","car","stimuli/prep_trials/1_car_prep.png","3","Car",""
"","1967","image-button-response","2","null","22530","685c6ca90f751d3aae6b1794","685c6dff3f98fccd6c42acc6","6650ba88f2e4099801ab8357","false","true","cat","stimuli/prep_trials/0_cat_prep.jpg","4","Cat",""
"","2581","image-button-response","3","null","25616","685c6ca90f751d3aae6b1794","685c6dff3f98fccd6c42acc6","6650ba88f2e4099801ab8357","false","false","Bicycle","https://kisumu-drawings.s3-us-west-1.amazonaws.com/103-014.png","1","Bicycle","103-014.png"
"","6249","image-button-response","4","null","32370","685c6ca90f751d3aae6b1794","685c6dff3f98fccd6c42acc6","6650ba88f2e4099801ab8357","false","false","Cat","https://kisumu-drawings.s3-us-west-1.amazonaws.com/64-006.png","4","Cat","64-006.png"
"","9053","image-button-response","5","null","41929","685c6ca90f751d3aae6b1794","685c6dff3f98fccd6c42acc6","6650ba88f2e4099801ab8357","false","false","Cat","https://kisumu-drawings.s3-us-west-1.amazonaws.com/56-013.png","2","Bird","56-013.png"
"","4759","image-button-response","6","null","47192","685c6ca90f751d3aae6b1794","685c6dff3f98fccd6c42acc6","6650ba88f2e4099801ab8357","false","false","Watch","https://kisumu-drawings.s3-us-west-1.amazonaws.com/64-009.png","11","Watch","64-009.png"
"","2214","image-button-response","7","null","49911","685c6ca90f751d3aae6b1794","685c6dff3f98fccd6c42acc6","6650ba88f2e4099801ab8357","false","false","Chair","https://kisumu-drawings.s3-us-west-1.amazonaws.com/89-007.png","5","Chair","89-007.png"
"","3745","image-button-response","8","null","54161","685c6ca90f751d3aae6b1794","685c6dff3f98fccd6c42acc6","6650ba88f2e4099801ab8357","false","false","Hat","https://kisumu-drawings.s3-us-west-1.amazonaws.com/89-005.png","6","Cup","89-005.png"
"","1703","image-button-response","9","null","56369","685c6ca90f751d3aae6b1794","685c6dff3f98fccd6c42acc6","6650ba88f2e4099801ab8357","false","false","Hat","https://kisumu-drawings.s3-us-west-1.amazonaws.com/103-009.png","7","Hat","103-009.png"
"","3197","image-button-response","10","null","60069","685c6ca90f751d3aae6b1794","685c6dff3f98fccd6c42acc6","6650ba88f2e4099801ab8357","false","false","Rabbit","https://kisumu-drawings.s3-us-west-1.amazonaws.com/57-016.png","4","Cat","57-016.png"
"","9875","image-button-response","11","null","70448","685c6ca90f751d3aae6b1794","685c6dff3f98fccd6c42acc6","6650ba88f2e4099801ab8357","false","false","Hat","https://kisumu-drawings.s3-us-west-1.amazonaws.com/2-006.png","2","Bird","2-006.png"
"","6608","image-button-response","12","null","77560","685c6ca90f751d3aae6b1794","685c6dff3f98fccd6c42acc6","6650ba88f2e4099801ab8357","false","false","Cat","https://kisumu-drawings.s3-us-west-1.amazonaws.com/2-015.png","4","Cat","2-015.png"
"","11400","image-button-response","13","null","89464","685c6ca90f751d3aae6b1794","685c6dff3f98fccd6c42acc6","6650ba88f2e4099801ab8357","false","false","Airplane","https://kisumu-drawings.s3-us-west-1.amazonaws.com/2-013.png","8","House","2-013.png"
"","4464","image-button-response","14","null","94432","685c6ca90f751d3aae6b1794","685c6dff3f98fccd6c42acc6","6650ba88f2e4099801ab8357","false","false","Bicycle","https://kisumu-drawings.s3-us-west-1.amazonaws.com/89-011.png","0","Airplane","89-011.png"
"","5540","image-button-response","15","null","100476","685c6ca90f751d3aae6b1794","685c6dff3f98fccd6c42acc6","6650ba88f2e4099801ab8357","false","false","Watch","https://kisumu-drawings.s3-us-west-1.amazonaws.com/23-007.png","7","Hat","23-007.png"
"","2382","image-button-response","16","null","103362","685c6ca90f751d3aae6b1794","685c6dff3f98fccd6c42acc6","6650ba88f2e4099801ab8357","false","false","Cup","https://kisumu-drawings.s3-us-west-1.amazonaws.com/89-008.png","6","Cup","89-008.png"
"","8880","image-button-response","17","null","112746","685c6ca90f751d3aae6b1794","685c6dff3f98fccd6c42acc6","6650ba88f2e4099801ab8357","false","false","Airplane","https://kisumu-drawings.s3-us-west-1.amazonaws.com/23-012.png","0","Airplane","23-012.png"
"","2174","image-button-response","18","null","115424","685c6ca90f751d3aae6b1794","685c6dff3f98fccd6c42acc6","6650ba88f2e4099801ab8357","false","false","Hat","https://kisumu-drawings.s3-us-west-1.amazonaws.com/64-013.png","7","Hat","64-013.png"
"","2048","image-button-response","19","null","117976","685c6ca90f751d3aae6b1794","685c6dff3f98fccd6c42acc6","6650ba88f2e4099801ab8357","false","false","Airplane","https://kisumu-drawings.s3-us-west-1.amazonaws.com/89-014.png","0","Airplane","89-014.png"
"","5245","image-button-response","20","null","123724","685c6ca90f751d3aae6b1794","685c6dff3f98fccd6c42acc6","6650ba88f2e4099801ab8357","false","false","Car","https://kisumu-drawings.s3-us-west-1.amazonaws.com/2-016.png","3","Car","2-016.png"
"","1848","image-button-response","21","null","126076","685c6ca90f751d3aae6b1794","685c6dff3f98fccd6c42acc6","6650ba88f2e4099801ab8357","true","false","airplane","stimuli/catch_trials/0_airplane_catch.jpg","0","Airplane",""
"","3172","image-button-response","22","null","129751","685c6ca90f751d3aae6b1794","685c6dff3f98fccd6c42acc6","6650ba88f2e4099801ab8357","false","false","Airplane","https://kisumu-drawings.s3-us-west-1.amazonaws.com/64-016.png","0","Airplane","64-016.png"
"","5876","image-button-response","23","null","136130","685c6ca90f751d3aae6b1794","685c6dff3f98fccd6c42acc6","6650ba88f2e4099801ab8357","false","false","Tree","https://kisumu-drawings.s3-us-west-1.amazonaws.com/23-009.png","10","Tree","23-009.png"
"","3028","image-button-response","24","null","139663","685c6ca90f751d3aae6b1794","685c6dff3f98fccd6c42acc6","6650ba88f2e4099801ab8357","false","false","Tree","https://kisumu-drawings.s3-us-west-1.amazonaws.com/89-006.png","10","Tree","89-006.png"
"","3930","image-button-response","25","null","144096","685c6ca90f751d3aae6b1794","685c6dff3f98fccd6c42acc6","6650ba88f2e4099801ab8357","false","false","Rabbit","https://kisumu-drawings.s3-us-west-1.amazonaws.com/2-010.png","2","Bird","2-010.png"
"","3578","image-button-response","26","null","148178","685c6ca90f751d3aae6b1794","685c6dff3f98fccd6c42acc6","6650ba88f2e4099801ab8357","false","false","House","https://kisumu-drawings.s3-us-west-1.amazonaws.com/64-008.png","8","House","64-008.png"
"","2238","image-button-response","27","null","150920","685c6ca90f751d3aae6b1794","685c6dff3f98fccd6c42acc6","6650ba88f2e4099801ab8357","false","false","Cup","https://kisumu-drawings.s3-us-west-1.amazonaws.com/23-013.png","6","Cup","23-013.png"
"","1920","image-button-response","28","null","153344","685c6ca90f751d3aae6b1794","685c6dff3f98fccd6c42acc6","6650ba88f2e4099801ab8357","false","false","Rabbit","https://kisumu-drawings.s3-us-west-1.amazonaws.com/23-008.png","4","Cat","23-008.png"
"","2146","image-button-response","29","null","155993","685c6ca90f751d3aae6b1794","685c6dff3f98fccd6c42acc6","6650ba88f2e4099801ab8357","false","false","Tree","https://kisumu-drawings.s3-us-west-1.amazonaws.com/2-009.png","10","Tree","2-009.png"
"","1663","image-button-response","30","null","158160","685c6ca90f751d3aae6b1794","685c6dff3f98fccd6c42acc6","6650ba88f2e4099801ab8357","false","false","Cup","https://kisumu-drawings.s3-us-west-1.amazonaws.com/57-010.png","6","Cup","57-010.png"
"","2472","image-button-response","31","null","161134","685c6ca90f751d3aae6b1794","685c6dff3f98fccd6c42acc6","6650ba88f2e4099801ab8357","false","false","Chair","https://kisumu-drawings.s3-us-west-1.amazonaws.com/57-009.png","5","Chair","57-009.png"
"","1800","image-button-response","32","null","163438","685c6ca90f751d3aae6b1794","685c6dff3f98fccd6c42acc6","6650ba88f2e4099801ab8357","false","false","Cup","https://kisumu-drawings.s3-us-west-1.amazonaws.com/64-011.png","6","Cup","64-011.png"
"","2263","image-button-response","33","null","166205","685c6ca90f751d3aae6b1794","685c6dff3f98fccd6c42acc6","6650ba88f2e4099801ab8357","false","false","Watch","https://kisumu-drawings.s3-us-west-1.amazonaws.com/57-006.png","11","Watch","57-006.png"
"","1783","image-button-response","34","null","168492","685c6ca90f751d3aae6b1794","685c6dff3f98fccd6c42acc6","6650ba88f2e4099801ab8357","false","false","Cup","https://kisumu-drawings.s3-us-west-1.amazonaws.com/103-006.png","6","Cup","103-006.png"
"","3491","image-button-response","35","null","172488","685c6ca90f751d3aae6b1794","685c6dff3f98fccd6c42acc6","6650ba88f2e4099801ab8357","false","false","House","https://kisumu-drawings.s3-us-west-1.amazonaws.com/57-015.png","8","House","57-015.png"
"","4072","image-button-response","36","null","177065","685c6ca90f751d3aae6b1794","685c6dff3f98fccd6c42acc6","6650ba88f2e4099801ab8357","false","false","Chair","https://kisumu-drawings.s3-us-west-1.amazonaws.com/2-005.png","5","Chair","2-005.png"
"","2311","image-button-response","37","null","179878","685c6ca90f751d3aae6b1794","685c6dff3f98fccd6c42acc6","6650ba88f2e4099801ab8357","false","false","Tree","https://kisumu-drawings.s3-us-west-1.amazonaws.com/64-010.png","10","Tree","64-010.png"
"","2200","image-button-response","38","null","182583","685c6ca90f751d3aae6b1794","685c6dff3f98fccd6c42acc6","6650ba88f2e4099801ab8357","false","false","Rabbit","https://kisumu-drawings.s3-us-west-1.amazonaws.com/89-016.png","4","Cat","89-016.png"
"","2206","image-button-response","39","null","185293","685c6ca90f751d3aae6b1794","685c6dff3f98fccd6c42acc6","6650ba88f2e4099801ab8357","false","false","Cup","https://kisumu-drawings.s3-us-west-1.amazonaws.com/2-007.png","6","Cup","2-007.png"
"","2073","image-button-response","40","null","187868","685c6ca90f751d3aae6b1794","685c6dff3f98fccd6c42acc6","6650ba88f2e4099801ab8357","false","false","Watch","https://kisumu-drawings.s3-us-west-1.amazonaws.com/89-009.png","11","Watch","89-009.png"
"","2142","image-button-response","41","null","190514","685c6ca90f751d3aae6b1794","685c6dff3f98fccd6c42acc6","6650ba88f2e4099801ab8357","false","false","Bird","https://kisumu-drawings.s3-us-west-1.amazonaws.com/64-005.png","0","Airplane","64-005.png"
"","1554","image-button-response","42","null","192572","685c6ca90f751d3aae6b1794","685c6dff3f98fccd6c42acc6","6650ba88f2e4099801ab8357","false","false","Bird","https://kisumu-drawings.s3-us-west-1.amazonaws.com/89-012.png","0","Airplane","89-012.png"
"","2852","image-button-response","43","null","195928","685c6ca90f751d3aae6b1794","685c6dff3f98fccd6c42acc6","6650ba88f2e4099801ab8357","false","false","House","https://kisumu-drawings.s3-us-west-1.amazonaws.com/2-008.png","8","House","2-008.png"
"","4137","image-button-response","44","null","200569","685c6ca90f751d3aae6b1794","685c6dff3f98fccd6c42acc6","6650ba88f2e4099801ab8357","false","false","Cat","https://kisumu-drawings.s3-us-west-1.amazonaws.com/23-006.png","9","Rabbit","23-006.png"
"","2289","image-button-response","45","null","203360","685c6ca90f751d3aae6b1794","685c6dff3f98fccd6c42acc6","6650ba88f2e4099801ab8357","false","false","Chair","https://kisumu-drawings.s3-us-west-1.amazonaws.com/103-013.png","5","Chair","103-013.png"
"","1520","image-button-response","46","null","205384","685c6ca90f751d3aae6b1794","685c6dff3f98fccd6c42acc6","6650ba88f2e4099801ab8357","false","false","Chair","https://kisumu-drawings.s3-us-west-1.amazonaws.com/23-005.png","5","Chair","23-005.png"
"","4838","image-button-response","47","null","210726","685c6ca90f751d3aae6b1794","685c6dff3f98fccd6c42acc6","6650ba88f2e4099801ab8357","false","false","Car","https://kisumu-drawings.s3-us-west-1.amazonaws.com/64-014.png","8","House","64-014.png"
"","3181","image-button-response","48","null","214411","685c6ca90f751d3aae6b1794","685c6dff3f98fccd6c42acc6","6650ba88f2e4099801ab8357","false","false","Car","https://kisumu-drawings.s3-us-west-1.amazonaws.com/103-016.png","3","Car","103-016.png"
"","6728","image-button-response","49","null","221642","685c6ca90f751d3aae6b1794","685c6dff3f98fccd6c42acc6","6650ba88f2e4099801ab8357","false","false","Bird","https://kisumu-drawings.s3-us-west-1.amazonaws.com/23-010.png","0","Airplane","23-010.png"
"","4479","image-button-response","50","null","226625","685c6ca90f751d3aae6b1794","685c6dff3f98fccd6c42acc6","6650ba88f2e4099801ab8357","false","false","Rabbit","https://kisumu-drawings.s3-us-west-1.amazonaws.com/103-008.png","4","Cat","103-008.png"
"","3196","image-button-response","51","null","230325","685c6ca90f751d3aae6b1794","685c6dff3f98fccd6c42acc6","6650ba88f2e4099801ab8357","false","false","Hat","https://kisumu-drawings.s3-us-west-1.amazonaws.com/57-007.png","7","Hat","57-007.png"
"","3012","image-button-response","52","null","233840","685c6ca90f751d3aae6b1794","685c6dff3f98fccd6c42acc6","6650ba88f2e4099801ab8357","false","false","Watch","https://kisumu-drawings.s3-us-west-1.amazonaws.com/2-011.png","11","Watch","2-011.png"
"","2755","image-button-response","53","null","237099","685c6ca90f751d3aae6b1794","685c6dff3f98fccd6c42acc6","6650ba88f2e4099801ab8357","false","false","Airplane","https://kisumu-drawings.s3-us-west-1.amazonaws.com/103-005.png","0","Airplane","103-005.png"
"","4808","image-button-response","54","null","242410","685c6ca90f751d3aae6b1794","685c6dff3f98fccd6c42acc6","6650ba88f2e4099801ab8357","false","false","Bird","https://kisumu-drawings.s3-us-west-1.amazonaws.com/57-012.png","2","Bird","57-012.png"
"","3172","image-button-response","55","null","246086","685c6ca90f751d3aae6b1794","685c6dff3f98fccd6c42acc6","6650ba88f2e4099801ab8357","false","false","House","https://kisumu-drawings.s3-us-west-1.amazonaws.com/103-010.png","8","House","103-010.png"
"","3285","image-button-response","56","null","249875","685c6ca90f751d3aae6b1794","685c6dff3f98fccd6c42acc6","6650ba88f2e4099801ab8357","false","false","Chair","https://kisumu-drawings.s3-us-west-1.amazonaws.com/64-012.png","5","Chair","64-012.png"
"","4611","image-button-response","57","null","254990","685c6ca90f751d3aae6b1794","685c6dff3f98fccd6c42acc6","6650ba88f2e4099801ab8357","false","false","Bicycle","https://kisumu-drawings.s3-us-west-1.amazonaws.com/2-012.png","3","Car","2-012.png"
"","2836","image-button-response","58","null","258329","685c6ca90f751d3aae6b1794","685c6dff3f98fccd6c42acc6","6650ba88f2e4099801ab8357","false","false","Bird","https://kisumu-drawings.s3-us-west-1.amazonaws.com/103-015.png","2","Bird","103-015.png"
"","4016","image-button-response","59","null","262848","685c6ca90f751d3aae6b1794","685c6dff3f98fccd6c42acc6","6650ba88f2e4099801ab8357","false","false","Tree","https://kisumu-drawings.s3-us-west-1.amazonaws.com/103-007.png","10","Tree","103-007.png"
"","3594","image-button-response","60","null","266947","685c6ca90f751d3aae6b1794","685c6dff3f98fccd6c42acc6","6650ba88f2e4099801ab8357","false","false","Rabbit","https://kisumu-drawings.s3-us-west-1.amazonaws.com/64-007.png","2","Bird","64-007.png"
"","3331","image-button-response","61","null","270780","685c6ca90f751d3aae6b1794","685c6dff3f98fccd6c42acc6","6650ba88f2e4099801ab8357","false","false","Hat","https://kisumu-drawings.s3-us-west-1.amazonaws.com/23-014.png","4","Cat","23-014.png"
"","18981","image-button-response","62","null","290264","685c6ca90f751d3aae6b1794","685c6dff3f98fccd6c42acc6","6650ba88f2e4099801ab8357","false","false","Car","https://kisumu-drawings.s3-us-west-1.amazonaws.com/57-013.png","0","Airplane","57-013.png"
"","4854","image-button-response","63","null","295621","685c6ca90f751d3aae6b1794","685c6dff3f98fccd6c42acc6","6650ba88f2e4099801ab8357","false","false","Cat","https://kisumu-drawings.s3-us-west-1.amazonaws.com/103-011.png","4","Cat","103-011.png"
"","7192","image-button-response","64","null","303316","685c6ca90f751d3aae6b1794","685c6dff3f98fccd6c42acc6","6650ba88f2e4099801ab8357","false","false","Bicycle","https://kisumu-drawings.s3-us-west-1.amazonaws.com/23-016.png","0","Airplane","23-016.png"
"","9692","image-button-response","65","null","313512","685c6ca90f751d3aae6b1794","685c6dff3f98fccd6c42acc6","6650ba88f2e4099801ab8357","false","false","Watch","https://kisumu-drawings.s3-us-west-1.amazonaws.com/103-012.png","10","Tree","103-012.png"
"","3061","image-button-response","66","null","317076","685c6ca90f751d3aae6b1794","685c6dff3f98fccd6c42acc6","6650ba88f2e4099801ab8357","false","false","Car","https://kisumu-drawings.s3-us-west-1.amazonaws.com/23-011.png","2","Bird","23-011.png"
"","1850","image-button-response","67","null","319430","685c6ca90f751d3aae6b1794","685c6dff3f98fccd6c42acc6","6650ba88f2e4099801ab8357","false","false","House","https://kisumu-drawings.s3-us-west-1.amazonaws.com/89-015.png","8","House","89-015.png"
"","1544","image-button-response","68","null","321477","685c6ca90f751d3aae6b1794","685c6dff3f98fccd6c42acc6","6650ba88f2e4099801ab8357","false","false","Airplane","https://kisumu-drawings.s3-us-west-1.amazonaws.com/57-014.png","0","Airplane","57-014.png"
"","1467","image-button-response","69","null","323449","685c6ca90f751d3aae6b1794","685c6dff3f98fccd6c42acc6","6650ba88f2e4099801ab8357","false","false","Tree","https://kisumu-drawings.s3-us-west-1.amazonaws.com/57-005.png","10","Tree","57-005.png"
"","2022","image-button-response","70","null","325974","685c6ca90f751d3aae6b1794","685c6dff3f98fccd6c42acc6","6650ba88f2e4099801ab8357","false","false","Bicycle","https://kisumu-drawings.s3-us-west-1.amazonaws.com/57-011.png","1","Bicycle","57-011.png"
"","1928","image-button-response","71","null","328406","685c6ca90f751d3aae6b1794","685c6dff3f98fccd6c42acc6","6650ba88f2e4099801ab8357","false","false","Cat","https://kisumu-drawings.s3-us-west-1.amazonaws.com/89-010.png","4","Cat","89-010.png"
"","4153","image-button-response","72","null","333063","685c6ca90f751d3aae6b1794","685c6dff3f98fccd6c42acc6","6650ba88f2e4099801ab8357","false","false","Bicycle","https://kisumu-drawings.s3-us-west-1.amazonaws.com/64-015.png","1","Bicycle","64-015.png"
"","1865","image-button-response","73","null","335431","685c6ca90f751d3aae6b1794","685c6dff3f98fccd6c42acc6","6650ba88f2e4099801ab8357","false","false","House","https://kisumu-drawings.s3-us-west-1.amazonaws.com/23-015.png","8","House","23-015.png"
"","1967","image-button-response","74","null","337901","685c6ca90f751d3aae6b1794","685c6dff3f98fccd6c42acc6","6650ba88f2e4099801ab8357","false","false","Car","https://kisumu-drawings.s3-us-west-1.amazonaws.com/89-013.png","0","Airplane","89-013.png"
"","6960","image-button-response","75","null","345364","685c6ca90f751d3aae6b1794","685c6dff3f98fccd6c42acc6","6650ba88f2e4099801ab8357","false","false","Bird","https://kisumu-drawings.s3-us-west-1.amazonaws.com/2-014.png","4","Cat","2-014.png"
