"view_history","rt","trial_type","trial_index","plugin_version","time_elapsed","study_id","session_id","participant_id","catch_trial","prep_trial","sketcher_category","stimulus","response","response_category","sketch_id"
"[{""page_index"":0,""viewing_time"":8188},{""page_index"":1,""viewing_time"":4575},{""page_index"":2,""viewing_time"":4492},{""page_index"":3,""viewing_time"":12456}]","29711","instructions","0","null","29729","685c6ca90f751d3aae6b1794","685c6f4d6d7585f98e479539","6652b5685b982e914af63507","","","","","","",""
"","3886","image-button-response","1","null","34625","685c6ca90f751d3aae6b1794","685c6f4d6d7585f98e479539","6652b5685b982e914af63507","false","true","car","stimuli/prep_trials/1_car_prep.png","3","Car",""
"","2315","image-button-response","2","null","37443","685c6ca90f751d3aae6b1794","685c6f4d6d7585f98e479539","6652b5685b982e914af63507","false","true","cat","stimuli/prep_trials/0_cat_prep.jpg","4","Cat",""
"","11531","image-button-response","3","null","49483","685c6ca90f751d3aae6b1794","685c6f4d6d7585f98e479539","6652b5685b982e914af63507","false","false","Watch","https://kisumu-drawings.s3-us-west-1.amazonaws.com/115-011.png","11","Watch","115-011.png"
"","5348","image-button-response","4","null","55337","685c6ca90f751d3aae6b1794","685c6f4d6d7585f98e479539","6652b5685b982e914af63507","false","false","Cup","https://kisumu-drawings.s3-us-west-1.amazonaws.com/118-015.png","6","Cup","118-015.png"
"","4188","image-button-response","5","null","60039","685c6ca90f751d3aae6b1794","685c6f4d6d7585f98e479539","6652b5685b982e914af63507","false","false","Cat","https://kisumu-drawings.s3-us-west-1.amazonaws.com/48-011.png","2","Bird","48-011.png"
"","4503","image-button-response","6","null","65058","685c6ca90f751d3aae6b1794","685c6f4d6d7585f98e479539","6652b5685b982e914af63507","false","false","Car","https://kisumu-drawings.s3-us-west-1.amazonaws.com/87-008.png","3","Car","87-008.png"
"","4018","image-button-response","7","null","69589","685c6ca90f751d3aae6b1794","685c6f4d6d7585f98e479539","6652b5685b982e914af63507","false","false","Airplane","https://kisumu-drawings.s3-us-west-1.amazonaws.com/80-009.png","0","Airplane","80-009.png"
"","6012","image-button-response","8","null","76117","685c6ca90f751d3aae6b1794","685c6f4d6d7585f98e479539","6652b5685b982e914af63507","false","false","Airplane","https://kisumu-drawings.s3-us-west-1.amazonaws.com/47-016.png","2","Bird","47-016.png"
"","8146","image-button-response","9","null","84768","685c6ca90f751d3aae6b1794","685c6f4d6d7585f98e479539","6652b5685b982e914af63507","false","false","Cat","https://kisumu-drawings.s3-us-west-1.amazonaws.com/120-015.png","2","Bird","120-015.png"
"","10234","image-button-response","10","null","95506","685c6ca90f751d3aae6b1794","685c6f4d6d7585f98e479539","6652b5685b982e914af63507","false","false","Hat","https://kisumu-drawings.s3-us-west-1.amazonaws.com/118-016.png","7","Hat","118-016.png"
"","15285","image-button-response","11","null","111293","685c6ca90f751d3aae6b1794","685c6f4d6d7585f98e479539","6652b5685b982e914af63507","false","false","Cat","https://kisumu-drawings.s3-us-west-1.amazonaws.com/79-009.png","4","Cat","79-009.png"
"","1792","image-button-response","12","null","113594","685c6ca90f751d3aae6b1794","685c6f4d6d7585f98e479539","6652b5685b982e914af63507","true","false","airplane","stimuli/catch_trials/0_airplane_catch.jpg","0","Airplane",""
"","13210","image-button-response","13","null","127311","685c6ca90f751d3aae6b1794","685c6f4d6d7585f98e479539","6652b5685b982e914af63507","false","false","Watch","https://kisumu-drawings.s3-us-west-1.amazonaws.com/75-006.png","7","Hat","75-006.png"
"","4884","image-button-response","14","null","132698","685c6ca90f751d3aae6b1794","685c6f4d6d7585f98e479539","6652b5685b982e914af63507","false","false","Bicycle","https://kisumu-drawings.s3-us-west-1.amazonaws.com/19-014.png","5","Chair","19-014.png"
"","2112","image-button-response","15","null","135313","685c6ca90f751d3aae6b1794","685c6f4d6d7585f98e479539","6652b5685b982e914af63507","false","false","Watch","https://kisumu-drawings.s3-us-west-1.amazonaws.com/81-010.png","11","Watch","81-010.png"
"","12543","image-button-response","16","null","148358","685c6ca90f751d3aae6b1794","685c6f4d6d7585f98e479539","6652b5685b982e914af63507","false","false","Airplane","https://kisumu-drawings.s3-us-west-1.amazonaws.com/19-013.png","5","Chair","19-013.png"
"","2588","image-button-response","17","null","151452","685c6ca90f751d3aae6b1794","685c6f4d6d7585f98e479539","6652b5685b982e914af63507","false","false","Car","https://kisumu-drawings.s3-us-west-1.amazonaws.com/120-008.png","3","Car","120-008.png"
"","1816","image-button-response","18","null","153769","685c6ca90f751d3aae6b1794","685c6f4d6d7585f98e479539","6652b5685b982e914af63507","false","false","Airplane","https://kisumu-drawings.s3-us-west-1.amazonaws.com/120-005.png","3","Car","120-005.png"
"","13652","image-button-response","19","null","167926","685c6ca90f751d3aae6b1794","685c6f4d6d7585f98e479539","6652b5685b982e914af63507","false","false","Chair","https://kisumu-drawings.s3-us-west-1.amazonaws.com/79-010.png","4","Cat","79-010.png"
"","2796","image-button-response","20","null","171227","685c6ca90f751d3aae6b1794","685c6f4d6d7585f98e479539","6652b5685b982e914af63507","false","false","Bird","https://kisumu-drawings.s3-us-west-1.amazonaws.com/119-005.png","2","Bird","119-005.png"
"","6240","image-button-response","21","null","177972","685c6ca90f751d3aae6b1794","685c6f4d6d7585f98e479539","6652b5685b982e914af63507","false","false","Bicycle","https://kisumu-drawings.s3-us-west-1.amazonaws.com/86-010.png","0","Airplane","86-010.png"
"","5368","image-button-response","22","null","183844","685c6ca90f751d3aae6b1794","685c6f4d6d7585f98e479539","6652b5685b982e914af63507","false","false","Chair","https://kisumu-drawings.s3-us-west-1.amazonaws.com/86-008.png","5","Chair","86-008.png"
"","7026","image-button-response","23","null","191371","685c6ca90f751d3aae6b1794","685c6f4d6d7585f98e479539","6652b5685b982e914af63507","false","false","Hat","https://kisumu-drawings.s3-us-west-1.amazonaws.com/38-011.png","7","Hat","38-011.png"
"","11106","image-button-response","24","null","202983","685c6ca90f751d3aae6b1794","685c6f4d6d7585f98e479539","6652b5685b982e914af63507","false","false","Bird","https://kisumu-drawings.s3-us-west-1.amazonaws.com/19-012.png","6","Cup","19-012.png"
"","9612","image-button-response","25","null","213097","685c6ca90f751d3aae6b1794","685c6f4d6d7585f98e479539","6652b5685b982e914af63507","false","false","Airplane","https://kisumu-drawings.s3-us-west-1.amazonaws.com/87-005.png","0","Airplane","87-005.png"
"","5674","image-button-response","26","null","219286","685c6ca90f751d3aae6b1794","685c6f4d6d7585f98e479539","6652b5685b982e914af63507","false","false","House","https://kisumu-drawings.s3-us-west-1.amazonaws.com/38-008.png","8","House","38-008.png"
"","2507","image-button-response","27","null","222302","685c6ca90f751d3aae6b1794","685c6f4d6d7585f98e479539","6652b5685b982e914af63507","false","false","Cup","https://kisumu-drawings.s3-us-west-1.amazonaws.com/47-014.png","6","Cup","47-014.png"
"","1837","image-button-response","28","null","224642","685c6ca90f751d3aae6b1794","685c6f4d6d7585f98e479539","6652b5685b982e914af63507","false","false","Car","https://kisumu-drawings.s3-us-west-1.amazonaws.com/80-011.png","3","Car","80-011.png"
"","2756","image-button-response","29","null","227900","685c6ca90f751d3aae6b1794","685c6f4d6d7585f98e479539","6652b5685b982e914af63507","false","false","Bird","https://kisumu-drawings.s3-us-west-1.amazonaws.com/79-005.png","2","Bird","79-005.png"
"","10048","image-button-response","30","null","238459","685c6ca90f751d3aae6b1794","685c6f4d6d7585f98e479539","6652b5685b982e914af63507","false","false","Hat","https://kisumu-drawings.s3-us-west-1.amazonaws.com/16-013.png","7","Hat","16-013.png"
"","16472","image-button-response","31","null","255449","685c6ca90f751d3aae6b1794","685c6f4d6d7585f98e479539","6652b5685b982e914af63507","false","false","Rabbit","https://kisumu-drawings.s3-us-west-1.amazonaws.com/17-009.png","2","Bird","17-009.png"
"","5315","image-button-response","32","null","261276","685c6ca90f751d3aae6b1794","685c6f4d6d7585f98e479539","6652b5685b982e914af63507","false","false","Car","https://kisumu-drawings.s3-us-west-1.amazonaws.com/40-005.png","3","Car","40-005.png"
"","1311","image-button-response","33","null","263104","685c6ca90f751d3aae6b1794","685c6f4d6d7585f98e479539","6652b5685b982e914af63507","false","false","Car","https://kisumu-drawings.s3-us-west-1.amazonaws.com/48-005.png","3","Car","48-005.png"
"","3532","image-button-response","34","null","267141","685c6ca90f751d3aae6b1794","685c6f4d6d7585f98e479539","6652b5685b982e914af63507","false","false","Cat","https://kisumu-drawings.s3-us-west-1.amazonaws.com/19-016.png","5","Chair","19-016.png"
"","3114","image-button-response","35","null","270774","685c6ca90f751d3aae6b1794","685c6f4d6d7585f98e479539","6652b5685b982e914af63507","false","false","House","https://kisumu-drawings.s3-us-west-1.amazonaws.com/45-010.png","8","House","45-010.png"
"","20453","image-button-response","36","null","291744","685c6ca90f751d3aae6b1794","685c6f4d6d7585f98e479539","6652b5685b982e914af63507","false","false","Bicycle","https://kisumu-drawings.s3-us-west-1.amazonaws.com/40-006.png","3","Car","40-006.png"
"","10441","image-button-response","37","null","302696","685c6ca90f751d3aae6b1794","685c6f4d6d7585f98e479539","6652b5685b982e914af63507","false","false","Cup","https://kisumu-drawings.s3-us-west-1.amazonaws.com/18-015.png","7","Hat","18-015.png"
"","4672","image-button-response","38","null","307886","685c6ca90f751d3aae6b1794","685c6f4d6d7585f98e479539","6652b5685b982e914af63507","false","false","Tree","https://kisumu-drawings.s3-us-west-1.amazonaws.com/44-005.png","10","Tree","44-005.png"
"","8242","image-button-response","39","null","316631","685c6ca90f751d3aae6b1794","685c6f4d6d7585f98e479539","6652b5685b982e914af63507","false","false","Rabbit","https://kisumu-drawings.s3-us-west-1.amazonaws.com/83-016.png","4","Cat","83-016.png"
"","3183","image-button-response","40","null","320315","685c6ca90f751d3aae6b1794","685c6f4d6d7585f98e479539","6652b5685b982e914af63507","false","false","Tree","https://kisumu-drawings.s3-us-west-1.amazonaws.com/116-006.png","10","Tree","116-006.png"
"","1572","image-button-response","41","null","322392","685c6ca90f751d3aae6b1794","685c6f4d6d7585f98e479539","6652b5685b982e914af63507","false","false","Tree","https://kisumu-drawings.s3-us-west-1.amazonaws.com/82-010.png","10","Tree","82-010.png"
"","1963","image-button-response","42","null","324870","685c6ca90f751d3aae6b1794","685c6f4d6d7585f98e479539","6652b5685b982e914af63507","false","false","Hat","https://kisumu-drawings.s3-us-west-1.amazonaws.com/78-013.png","7","Hat","78-013.png"
"","7329","image-button-response","43","null","332715","685c6ca90f751d3aae6b1794","685c6f4d6d7585f98e479539","6652b5685b982e914af63507","false","false","Rabbit","https://kisumu-drawings.s3-us-west-1.amazonaws.com/37-015.png","4","Cat","37-015.png"
"","7516","image-button-response","44","null","340736","685c6ca90f751d3aae6b1794","685c6f4d6d7585f98e479539","6652b5685b982e914af63507","false","false","Bird","https://kisumu-drawings.s3-us-west-1.amazonaws.com/47-005.png","2","Bird","47-005.png"
"","4315","image-button-response","45","null","345569","685c6ca90f751d3aae6b1794","685c6f4d6d7585f98e479539","6652b5685b982e914af63507","false","false","House","https://kisumu-drawings.s3-us-west-1.amazonaws.com/118-011.png","8","House","118-011.png"
"","15384","image-button-response","46","null","361471","685c6ca90f751d3aae6b1794","685c6f4d6d7585f98e479539","6652b5685b982e914af63507","false","false","Rabbit","https://kisumu-drawings.s3-us-west-1.amazonaws.com/77-009.png","4","Cat","77-009.png"
"","13678","image-button-response","47","null","375663","685c6ca90f751d3aae6b1794","685c6f4d6d7585f98e479539","6652b5685b982e914af63507","false","false","Cat","https://kisumu-drawings.s3-us-west-1.amazonaws.com/40-009.png","7","Hat","40-009.png"
"","3064","image-button-response","48","null","379230","685c6ca90f751d3aae6b1794","685c6f4d6d7585f98e479539","6652b5685b982e914af63507","false","false","Tree","https://kisumu-drawings.s3-us-west-1.amazonaws.com/76-006.png","10","Tree","76-006.png"
"","2007","image-button-response","49","null","381743","685c6ca90f751d3aae6b1794","685c6f4d6d7585f98e479539","6652b5685b982e914af63507","false","false","House","https://kisumu-drawings.s3-us-west-1.amazonaws.com/17-016.png","8","House","17-016.png"
"","5673","image-button-response","50","null","387926","685c6ca90f751d3aae6b1794","685c6f4d6d7585f98e479539","6652b5685b982e914af63507","false","false","Rabbit","https://kisumu-drawings.s3-us-west-1.amazonaws.com/45-011.png","2","Bird","45-011.png"
"","6351","image-button-response","51","null","394783","685c6ca90f751d3aae6b1794","685c6f4d6d7585f98e479539","6652b5685b982e914af63507","false","false","Chair","https://kisumu-drawings.s3-us-west-1.amazonaws.com/47-013.png","5","Chair","47-013.png"
"","2743","image-button-response","52","null","398044","685c6ca90f751d3aae6b1794","685c6f4d6d7585f98e479539","6652b5685b982e914af63507","false","false","House","https://kisumu-drawings.s3-us-west-1.amazonaws.com/77-016.png","8","House","77-016.png"
"","1611","image-button-response","53","null","400160","685c6ca90f751d3aae6b1794","685c6f4d6d7585f98e479539","6652b5685b982e914af63507","false","false","Hat","https://kisumu-drawings.s3-us-west-1.amazonaws.com/84-008.png","7","Hat","84-008.png"
"","1516","image-button-response","54","null","402183","685c6ca90f751d3aae6b1794","685c6f4d6d7585f98e479539","6652b5685b982e914af63507","false","false","House","https://kisumu-drawings.s3-us-west-1.amazonaws.com/84-014.png","8","House","84-014.png"
"","2516","image-button-response","55","null","405216","685c6ca90f751d3aae6b1794","685c6f4d6d7585f98e479539","6652b5685b982e914af63507","false","false","Bird","https://kisumu-drawings.s3-us-west-1.amazonaws.com/40-007.png","2","Bird","40-007.png"
"","11179","image-button-response","56","null","416913","685c6ca90f751d3aae6b1794","685c6f4d6d7585f98e479539","6652b5685b982e914af63507","false","false","Car","https://kisumu-drawings.s3-us-west-1.amazonaws.com/18-009.png","7","Hat","18-009.png"
"","4816","image-button-response","57","null","422240","685c6ca90f751d3aae6b1794","685c6f4d6d7585f98e479539","6652b5685b982e914af63507","false","false","Bicycle","https://kisumu-drawings.s3-us-west-1.amazonaws.com/120-010.png","2","Bird","120-010.png"
"","4047","image-button-response","58","null","426796","685c6ca90f751d3aae6b1794","685c6f4d6d7585f98e479539","6652b5685b982e914af63507","false","false","Rabbit","https://kisumu-drawings.s3-us-west-1.amazonaws.com/117-005.png","4","Cat","117-005.png"
"","1791","image-button-response","59","null","429090","685c6ca90f751d3aae6b1794","685c6f4d6d7585f98e479539","6652b5685b982e914af63507","false","false","Bicycle","https://kisumu-drawings.s3-us-west-1.amazonaws.com/48-010.png","3","Car","48-010.png"
"","6363","image-button-response","60","null","435960","685c6ca90f751d3aae6b1794","685c6f4d6d7585f98e479539","6652b5685b982e914af63507","false","false","Watch","https://kisumu-drawings.s3-us-west-1.amazonaws.com/43-008.png","7","Hat","43-008.png"
"","2591","image-button-response","61","null","439057","685c6ca90f751d3aae6b1794","685c6f4d6d7585f98e479539","6652b5685b982e914af63507","false","false","Cup","https://kisumu-drawings.s3-us-west-1.amazonaws.com/78-011.png","6","Cup","78-011.png"
"","8369","image-button-response","62","null","447934","685c6ca90f751d3aae6b1794","685c6f4d6d7585f98e479539","6652b5685b982e914af63507","false","false","Chair","https://kisumu-drawings.s3-us-west-1.amazonaws.com/39-010.png","5","Chair","39-010.png"
"","8693","image-button-response","63","null","457131","685c6ca90f751d3aae6b1794","685c6f4d6d7585f98e479539","6652b5685b982e914af63507","false","false","Chair","https://kisumu-drawings.s3-us-west-1.amazonaws.com/18-014.png","11","Watch","18-014.png"
"","5877","image-button-response","64","null","463525","685c6ca90f751d3aae6b1794","685c6f4d6d7585f98e479539","6652b5685b982e914af63507","false","false","Cat","https://kisumu-drawings.s3-us-west-1.amazonaws.com/86-015.png","4","Cat","86-015.png"
"","2261","image-button-response","65","null","466292","685c6ca90f751d3aae6b1794","685c6f4d6d7585f98e479539","6652b5685b982e914af63507","false","false","Tree","https://kisumu-drawings.s3-us-west-1.amazonaws.com/37-016.png","10","Tree","37-016.png"
"","13160","image-button-response","66","null","479957","685c6ca90f751d3aae6b1794","685c6f4d6d7585f98e479539","6652b5685b982e914af63507","false","false","Airplane","https://kisumu-drawings.s3-us-west-1.amazonaws.com/39-008.png","5","Chair","39-008.png"
"","9763","image-button-response","67","null","490224","685c6ca90f751d3aae6b1794","685c6f4d6d7585f98e479539","6652b5685b982e914af63507","false","false","Hat","https://kisumu-drawings.s3-us-west-1.amazonaws.com/46-014.png","7","Hat","46-014.png"
"","2565","image-button-response","68","null","493294","685c6ca90f751d3aae6b1794","685c6f4d6d7585f98e479539","6652b5685b982e914af63507","false","false","Chair","https://kisumu-drawings.s3-us-west-1.amazonaws.com/120-016.png","5","Chair","120-016.png"
"","2751","image-button-response","69","null","496548","685c6ca90f751d3aae6b1794","685c6f4d6d7585f98e479539","6652b5685b982e914af63507","false","false","Tree","https://kisumu-drawings.s3-us-west-1.amazonaws.com/16-015.png","6","Cup","16-015.png"
"","1452","image-button-response","70","null","498504","685c6ca90f751d3aae6b1794","685c6f4d6d7585f98e479539","6652b5685b982e914af63507","false","false","Cup","https://kisumu-drawings.s3-us-west-1.amazonaws.com/84-007.png","6","Cup","84-007.png"
"","1327","image-button-response","71","null","500336","685c6ca90f751d3aae6b1794","685c6f4d6d7585f98e479539","6652b5685b982e914af63507","false","false","Cup","https://kisumu-drawings.s3-us-west-1.amazonaws.com/38-010.png","6","Cup","38-010.png"
"","1688","image-button-response","72","null","502530","685c6ca90f751d3aae6b1794","685c6f4d6d7585f98e479539","6652b5685b982e914af63507","false","false","Watch","https://kisumu-drawings.s3-us-west-1.amazonaws.com/36-007.png","11","Watch","36-007.png"
"","3142","image-button-response","73","null","506184","685c6ca90f751d3aae6b1794","685c6f4d6d7585f98e479539","6652b5685b982e914af63507","false","false","Bicycle","https://kisumu-drawings.s3-us-west-1.amazonaws.com/80-010.png","1","Bicycle","80-010.png"
"","12034","image-button-response","74","null","518725","685c6ca90f751d3aae6b1794","685c6f4d6d7585f98e479539","6652b5685b982e914af63507","false","false","Bird","https://kisumu-drawings.s3-us-west-1.amazonaws.com/87-016.png","0","Airplane","87-016.png"
"","3145","image-button-response","75","null","522371","685c6ca90f751d3aae6b1794","685c6f4d6d7585f98e479539","6652b5685b982e914af63507","false","false","Watch","https://kisumu-drawings.s3-us-west-1.amazonaws.com/15-008.png","11","Watch","15-008.png"
