"view_history","rt","trial_type","trial_index","plugin_version","time_elapsed","study_id","session_id","participant_id","catch_trial","prep_trial","sketcher_category","stimulus","response","response_category","sketch_id"
"[{""page_index"":0,""viewing_time"":4037},{""page_index"":1,""viewing_time"":2197},{""page_index"":2,""viewing_time"":4954},{""page_index"":3,""viewing_time"":3700}]","14888","instructions","0","null","14897","685c6ca90f751d3aae6b1794","685c6f283fc150750f7dc4df","665cbb56d9ecb20564b9b607","","","","","","",""
"","2124","image-button-response","1","null","18041","685c6ca90f751d3aae6b1794","685c6f283fc150750f7dc4df","665cbb56d9ecb20564b9b607","false","true","car","stimuli/prep_trials/1_car_prep.png","3","Car",""
"","1883","image-button-response","2","null","20429","685c6ca90f751d3aae6b1794","685c6f283fc150750f7dc4df","665cbb56d9ecb20564b9b607","false","true","cat","stimuli/prep_trials/0_cat_prep.jpg","4","Cat",""
"","11872","image-button-response","3","null","32809","685c6ca90f751d3aae6b1794","685c6f283fc150750f7dc4df","665cbb56d9ecb20564b9b607","false","false","Cup","https://kisumu-drawings.s3-us-west-1.amazonaws.com/18-015.png","1","Bicycle","18-015.png"
"","2625","image-button-response","4","null","35945","685c6ca90f751d3aae6b1794","685c6f283fc150750f7dc4df","665cbb56d9ecb20564b9b607","false","false","Bicycle","https://kisumu-drawings.s3-us-west-1.amazonaws.com/80-010.png","1","Bicycle","80-010.png"
"","2319","image-button-response","5","null","38771","685c6ca90f751d3aae6b1794","685c6f283fc150750f7dc4df","665cbb56d9ecb20564b9b607","false","false","House","https://kisumu-drawings.s3-us-west-1.amazonaws.com/37-014.png","8","House","37-014.png"
"","13765","image-button-response","6","null","53041","685c6ca90f751d3aae6b1794","685c6f283fc150750f7dc4df","665cbb56d9ecb20564b9b607","false","false","Bird","https://kisumu-drawings.s3-us-west-1.amazonaws.com/79-005.png","2","Bird","79-005.png"
"","3757","image-button-response","7","null","57305","685c6ca90f751d3aae6b1794","685c6f283fc150750f7dc4df","665cbb56d9ecb20564b9b607","false","false","Tree","https://kisumu-drawings.s3-us-west-1.amazonaws.com/82-010.png","10","Tree","82-010.png"
"","4571","image-button-response","8","null","62381","685c6ca90f751d3aae6b1794","685c6f283fc150750f7dc4df","665cbb56d9ecb20564b9b607","false","false","Tree","https://kisumu-drawings.s3-us-west-1.amazonaws.com/15-007.png","10","Tree","15-007.png"
"","3258","image-button-response","9","null","66157","685c6ca90f751d3aae6b1794","685c6f283fc150750f7dc4df","665cbb56d9ecb20564b9b607","false","false","Cup","https://kisumu-drawings.s3-us-west-1.amazonaws.com/84-007.png","6","Cup","84-007.png"
"","5861","image-button-response","10","null","72520","685c6ca90f751d3aae6b1794","685c6f283fc150750f7dc4df","665cbb56d9ecb20564b9b607","false","false","Airplane","https://kisumu-drawings.s3-us-west-1.amazonaws.com/19-013.png","5","Chair","19-013.png"
"","3833","image-button-response","11","null","76870","685c6ca90f751d3aae6b1794","685c6f283fc150750f7dc4df","665cbb56d9ecb20564b9b607","false","false","Chair","https://kisumu-drawings.s3-us-west-1.amazonaws.com/120-016.png","5","Chair","120-016.png"
"","3995","image-button-response","12","null","81373","685c6ca90f751d3aae6b1794","685c6f283fc150750f7dc4df","665cbb56d9ecb20564b9b607","false","false","Airplane","https://kisumu-drawings.s3-us-west-1.amazonaws.com/39-008.png","7","Hat","39-008.png"
"","4769","image-button-response","13","null","86659","685c6ca90f751d3aae6b1794","685c6f283fc150750f7dc4df","665cbb56d9ecb20564b9b607","false","false","Bird","https://kisumu-drawings.s3-us-west-1.amazonaws.com/47-005.png","2","Bird","47-005.png"
"","3056","image-button-response","14","null","90232","685c6ca90f751d3aae6b1794","685c6f283fc150750f7dc4df","665cbb56d9ecb20564b9b607","false","false","Cup","https://kisumu-drawings.s3-us-west-1.amazonaws.com/78-011.png","6","Cup","78-011.png"
"","6999","image-button-response","15","null","97744","685c6ca90f751d3aae6b1794","685c6f283fc150750f7dc4df","665cbb56d9ecb20564b9b607","false","false","Tree","https://kisumu-drawings.s3-us-west-1.amazonaws.com/36-006.png","0","Airplane","36-006.png"
"","7071","image-button-response","16","null","105321","685c6ca90f751d3aae6b1794","685c6f283fc150750f7dc4df","665cbb56d9ecb20564b9b607","false","false","Watch","https://kisumu-drawings.s3-us-west-1.amazonaws.com/14-008.png","4","Cat","14-008.png"
"","3519","image-button-response","17","null","109347","685c6ca90f751d3aae6b1794","685c6f283fc150750f7dc4df","665cbb56d9ecb20564b9b607","false","false","Bird","https://kisumu-drawings.s3-us-west-1.amazonaws.com/119-005.png","2","Bird","119-005.png"
"","1716","image-button-response","18","null","111574","685c6ca90f751d3aae6b1794","685c6f283fc150750f7dc4df","665cbb56d9ecb20564b9b607","false","false","Bird","https://kisumu-drawings.s3-us-west-1.amazonaws.com/86-014.png","2","Bird","86-014.png"
"","3209","image-button-response","19","null","115296","685c6ca90f751d3aae6b1794","685c6f283fc150750f7dc4df","665cbb56d9ecb20564b9b607","false","false","Chair","https://kisumu-drawings.s3-us-west-1.amazonaws.com/18-014.png","2","Bird","18-014.png"
"","3425","image-button-response","20","null","119228","685c6ca90f751d3aae6b1794","685c6f283fc150750f7dc4df","665cbb56d9ecb20564b9b607","false","false","Car","https://kisumu-drawings.s3-us-west-1.amazonaws.com/18-009.png","9","Rabbit","18-009.png"
"","2926","image-button-response","21","null","122668","685c6ca90f751d3aae6b1794","685c6f283fc150750f7dc4df","665cbb56d9ecb20564b9b607","false","false","Watch","https://kisumu-drawings.s3-us-west-1.amazonaws.com/43-008.png","11","Watch","43-008.png"
"","4978","image-button-response","22","null","128157","685c6ca90f751d3aae6b1794","685c6f283fc150750f7dc4df","665cbb56d9ecb20564b9b607","false","false","Cat","https://kisumu-drawings.s3-us-west-1.amazonaws.com/48-011.png","2","Bird","48-011.png"
"","2812","image-button-response","23","null","131484","685c6ca90f751d3aae6b1794","685c6f283fc150750f7dc4df","665cbb56d9ecb20564b9b607","false","false","Bicycle","https://kisumu-drawings.s3-us-west-1.amazonaws.com/40-006.png","1","Bicycle","40-006.png"
"","9289","image-button-response","24","null","141285","685c6ca90f751d3aae6b1794","685c6f283fc150750f7dc4df","665cbb56d9ecb20564b9b607","false","false","Rabbit","https://kisumu-drawings.s3-us-west-1.amazonaws.com/37-015.png","4","Cat","37-015.png"
"","3251","image-button-response","25","null","145047","685c6ca90f751d3aae6b1794","685c6f283fc150750f7dc4df","665cbb56d9ecb20564b9b607","false","false","Watch","https://kisumu-drawings.s3-us-west-1.amazonaws.com/115-011.png","11","Watch","115-011.png"
"","3251","image-button-response","26","null","148810","685c6ca90f751d3aae6b1794","685c6f283fc150750f7dc4df","665cbb56d9ecb20564b9b607","false","false","Car","https://kisumu-drawings.s3-us-west-1.amazonaws.com/40-005.png","8","House","40-005.png"
"","6171","image-button-response","27","null","155493","685c6ca90f751d3aae6b1794","685c6f283fc150750f7dc4df","665cbb56d9ecb20564b9b607","false","false","Hat","https://kisumu-drawings.s3-us-west-1.amazonaws.com/37-011.png","2","Bird","37-011.png"
"","7719","image-button-response","28","null","163726","685c6ca90f751d3aae6b1794","685c6f283fc150750f7dc4df","665cbb56d9ecb20564b9b607","false","false","Watch","https://kisumu-drawings.s3-us-west-1.amazonaws.com/36-007.png","7","Hat","36-007.png"
"","1910","image-button-response","29","null","166143","685c6ca90f751d3aae6b1794","685c6f283fc150750f7dc4df","665cbb56d9ecb20564b9b607","true","false","airplane","stimuli/catch_trials/0_airplane_catch.jpg","0","Airplane",""
"","4393","image-button-response","30","null","171050","685c6ca90f751d3aae6b1794","685c6f283fc150750f7dc4df","665cbb56d9ecb20564b9b607","false","false","Airplane","https://kisumu-drawings.s3-us-west-1.amazonaws.com/47-016.png","0","Airplane","47-016.png"
"","3423","image-button-response","31","null","174976","685c6ca90f751d3aae6b1794","685c6f283fc150750f7dc4df","665cbb56d9ecb20564b9b607","false","false","Chair","https://kisumu-drawings.s3-us-west-1.amazonaws.com/86-008.png","8","House","86-008.png"
"","2438","image-button-response","32","null","177926","685c6ca90f751d3aae6b1794","685c6f283fc150750f7dc4df","665cbb56d9ecb20564b9b607","false","false","House","https://kisumu-drawings.s3-us-west-1.amazonaws.com/117-014.png","8","House","117-014.png"
"","3057","image-button-response","33","null","181504","685c6ca90f751d3aae6b1794","685c6f283fc150750f7dc4df","665cbb56d9ecb20564b9b607","false","false","Tree","https://kisumu-drawings.s3-us-west-1.amazonaws.com/76-006.png","10","Tree","76-006.png"
"","2224","image-button-response","34","null","184243","685c6ca90f751d3aae6b1794","685c6f283fc150750f7dc4df","665cbb56d9ecb20564b9b607","false","false","Tree","https://kisumu-drawings.s3-us-west-1.amazonaws.com/116-006.png","10","Tree","116-006.png"
"","4639","image-button-response","35","null","189389","685c6ca90f751d3aae6b1794","685c6f283fc150750f7dc4df","665cbb56d9ecb20564b9b607","false","false","Rabbit","https://kisumu-drawings.s3-us-west-1.amazonaws.com/77-009.png","4","Cat","77-009.png"
"","5788","image-button-response","36","null","195681","685c6ca90f751d3aae6b1794","685c6f283fc150750f7dc4df","665cbb56d9ecb20564b9b607","false","false","Rabbit","https://kisumu-drawings.s3-us-west-1.amazonaws.com/116-016.png","4","Cat","116-016.png"
"","3645","image-button-response","37","null","199832","685c6ca90f751d3aae6b1794","685c6f283fc150750f7dc4df","665cbb56d9ecb20564b9b607","false","false","Hat","https://kisumu-drawings.s3-us-west-1.amazonaws.com/16-013.png","5","Chair","16-013.png"
"","2730","image-button-response","38","null","203067","685c6ca90f751d3aae6b1794","685c6f283fc150750f7dc4df","665cbb56d9ecb20564b9b607","false","false","Airplane","https://kisumu-drawings.s3-us-west-1.amazonaws.com/80-009.png","0","Airplane","80-009.png"
"","7257","image-button-response","39","null","210832","685c6ca90f751d3aae6b1794","685c6f283fc150750f7dc4df","665cbb56d9ecb20564b9b607","false","false","Car","https://kisumu-drawings.s3-us-west-1.amazonaws.com/47-006.png","3","Car","47-006.png"
"","3182","image-button-response","40","null","214531","685c6ca90f751d3aae6b1794","685c6f283fc150750f7dc4df","665cbb56d9ecb20564b9b607","false","false","House","https://kisumu-drawings.s3-us-west-1.amazonaws.com/45-010.png","8","House","45-010.png"
"","2515","image-button-response","41","null","217561","685c6ca90f751d3aae6b1794","685c6f283fc150750f7dc4df","665cbb56d9ecb20564b9b607","false","false","Chair","https://kisumu-drawings.s3-us-west-1.amazonaws.com/79-010.png","5","Chair","79-010.png"
"","3892","image-button-response","42","null","221969","685c6ca90f751d3aae6b1794","685c6f283fc150750f7dc4df","665cbb56d9ecb20564b9b607","false","false","Car","https://kisumu-drawings.s3-us-west-1.amazonaws.com/87-008.png","3","Car","87-008.png"
"","4448","image-button-response","43","null","226922","685c6ca90f751d3aae6b1794","685c6f283fc150750f7dc4df","665cbb56d9ecb20564b9b607","false","false","Rabbit","https://kisumu-drawings.s3-us-west-1.amazonaws.com/83-016.png","9","Rabbit","83-016.png"
"","5462","image-button-response","44","null","232901","685c6ca90f751d3aae6b1794","685c6f283fc150750f7dc4df","665cbb56d9ecb20564b9b607","false","false","Airplane","https://kisumu-drawings.s3-us-west-1.amazonaws.com/120-005.png","3","Car","120-005.png"
"","3098","image-button-response","45","null","236515","685c6ca90f751d3aae6b1794","685c6f283fc150750f7dc4df","665cbb56d9ecb20564b9b607","false","false","Cup","https://kisumu-drawings.s3-us-west-1.amazonaws.com/38-010.png","6","Cup","38-010.png"
"","6221","image-button-response","46","null","243245","685c6ca90f751d3aae6b1794","685c6f283fc150750f7dc4df","665cbb56d9ecb20564b9b607","false","false","Bicycle","https://kisumu-drawings.s3-us-west-1.amazonaws.com/120-010.png","1","Bicycle","120-010.png"
"","4258","image-button-response","47","null","248009","685c6ca90f751d3aae6b1794","685c6f283fc150750f7dc4df","665cbb56d9ecb20564b9b607","false","false","Cat","https://kisumu-drawings.s3-us-west-1.amazonaws.com/18-010.png","9","Rabbit","18-010.png"
"","5452","image-button-response","48","null","253966","685c6ca90f751d3aae6b1794","685c6f283fc150750f7dc4df","665cbb56d9ecb20564b9b607","false","false","Watch","https://kisumu-drawings.s3-us-west-1.amazonaws.com/75-006.png","10","Tree","75-006.png"
"","3152","image-button-response","49","null","257625","685c6ca90f751d3aae6b1794","685c6f283fc150750f7dc4df","665cbb56d9ecb20564b9b607","false","false","Hat","https://kisumu-drawings.s3-us-west-1.amazonaws.com/46-014.png","5","Chair","46-014.png"
"","2551","image-button-response","50","null","260687","685c6ca90f751d3aae6b1794","685c6f283fc150750f7dc4df","665cbb56d9ecb20564b9b607","false","false","House","https://kisumu-drawings.s3-us-west-1.amazonaws.com/84-014.png","8","House","84-014.png"
"","3191","image-button-response","51","null","264395","685c6ca90f751d3aae6b1794","685c6f283fc150750f7dc4df","665cbb56d9ecb20564b9b607","false","false","Hat","https://kisumu-drawings.s3-us-west-1.amazonaws.com/118-016.png","5","Chair","118-016.png"
"","3910","image-button-response","52","null","268811","685c6ca90f751d3aae6b1794","685c6f283fc150750f7dc4df","665cbb56d9ecb20564b9b607","false","false","Car","https://kisumu-drawings.s3-us-west-1.amazonaws.com/80-011.png","3","Car","80-011.png"
"","2646","image-button-response","53","null","271969","685c6ca90f751d3aae6b1794","685c6f283fc150750f7dc4df","665cbb56d9ecb20564b9b607","false","false","Cat","https://kisumu-drawings.s3-us-west-1.amazonaws.com/39-007.png","4","Cat","39-007.png"
"","2615","image-button-response","54","null","275088","685c6ca90f751d3aae6b1794","685c6f283fc150750f7dc4df","665cbb56d9ecb20564b9b607","false","false","Hat","https://kisumu-drawings.s3-us-west-1.amazonaws.com/84-008.png","7","Hat","84-008.png"
"","2625","image-button-response","55","null","278229","685c6ca90f751d3aae6b1794","685c6f283fc150750f7dc4df","665cbb56d9ecb20564b9b607","false","false","Rabbit","https://kisumu-drawings.s3-us-west-1.amazonaws.com/16-016.png","1","Bicycle","16-016.png"
"","3142","image-button-response","56","null","281879","685c6ca90f751d3aae6b1794","685c6f283fc150750f7dc4df","665cbb56d9ecb20564b9b607","false","false","Car","https://kisumu-drawings.s3-us-west-1.amazonaws.com/120-008.png","3","Car","120-008.png"
"","2459","image-button-response","57","null","284846","685c6ca90f751d3aae6b1794","685c6f283fc150750f7dc4df","665cbb56d9ecb20564b9b607","false","false","Tree","https://kisumu-drawings.s3-us-west-1.amazonaws.com/44-005.png","10","Tree","44-005.png"
"","1938","image-button-response","58","null","287292","685c6ca90f751d3aae6b1794","685c6f283fc150750f7dc4df","665cbb56d9ecb20564b9b607","false","false","Chair","https://kisumu-drawings.s3-us-west-1.amazonaws.com/39-010.png","10","Tree","39-010.png"
"","2091","image-button-response","59","null","289884","685c6ca90f751d3aae6b1794","685c6f283fc150750f7dc4df","665cbb56d9ecb20564b9b607","false","false","House","https://kisumu-drawings.s3-us-west-1.amazonaws.com/16-014.png","10","Tree","16-014.png"
"","2718","image-button-response","60","null","293112","685c6ca90f751d3aae6b1794","685c6f283fc150750f7dc4df","665cbb56d9ecb20564b9b607","false","false","Bicycle","https://kisumu-drawings.s3-us-west-1.amazonaws.com/48-010.png","3","Car","48-010.png"
"","2887","image-button-response","61","null","296509","685c6ca90f751d3aae6b1794","685c6f283fc150750f7dc4df","665cbb56d9ecb20564b9b607","false","false","Cat","https://kisumu-drawings.s3-us-west-1.amazonaws.com/79-009.png","4","Cat","79-009.png"
"","2828","image-button-response","62","null","299842","685c6ca90f751d3aae6b1794","685c6f283fc150750f7dc4df","665cbb56d9ecb20564b9b607","false","false","Cat","https://kisumu-drawings.s3-us-west-1.amazonaws.com/86-015.png","4","Cat","86-015.png"
"","1986","image-button-response","63","null","302343","685c6ca90f751d3aae6b1794","685c6f283fc150750f7dc4df","665cbb56d9ecb20564b9b607","false","false","Cup","https://kisumu-drawings.s3-us-west-1.amazonaws.com/46-013.png","6","Cup","46-013.png"
"","1675","image-button-response","64","null","304535","685c6ca90f751d3aae6b1794","685c6f283fc150750f7dc4df","665cbb56d9ecb20564b9b607","false","false","Cup","https://kisumu-drawings.s3-us-west-1.amazonaws.com/118-015.png","6","Cup","118-015.png"
"","3952","image-button-response","65","null","308989","685c6ca90f751d3aae6b1794","685c6f283fc150750f7dc4df","665cbb56d9ecb20564b9b607","false","false","Rabbit","https://kisumu-drawings.s3-us-west-1.amazonaws.com/45-011.png","4","Cat","45-011.png"
"","2765","image-button-response","66","null","312258","685c6ca90f751d3aae6b1794","685c6f283fc150750f7dc4df","665cbb56d9ecb20564b9b607","false","false","Bird","https://kisumu-drawings.s3-us-west-1.amazonaws.com/40-007.png","2","Bird","40-007.png"
"","3272","image-button-response","67","null","316041","685c6ca90f751d3aae6b1794","685c6f283fc150750f7dc4df","665cbb56d9ecb20564b9b607","false","false","Hat","https://kisumu-drawings.s3-us-west-1.amazonaws.com/77-008.png","4","Cat","77-008.png"
"","2267","image-button-response","68","null","318817","685c6ca90f751d3aae6b1794","685c6f283fc150750f7dc4df","665cbb56d9ecb20564b9b607","false","false","Airplane","https://kisumu-drawings.s3-us-west-1.amazonaws.com/87-005.png","0","Airplane","87-005.png"
"","2672","image-button-response","69","null","321996","685c6ca90f751d3aae6b1794","685c6f283fc150750f7dc4df","665cbb56d9ecb20564b9b607","false","false","Cat","https://kisumu-drawings.s3-us-west-1.amazonaws.com/120-015.png","4","Cat","120-015.png"
"","1973","image-button-response","70","null","324475","685c6ca90f751d3aae6b1794","685c6f283fc150750f7dc4df","665cbb56d9ecb20564b9b607","false","false","Bird","https://kisumu-drawings.s3-us-west-1.amazonaws.com/18-013.png","4","Cat","18-013.png"
"","2788","image-button-response","71","null","327766","685c6ca90f751d3aae6b1794","685c6f283fc150750f7dc4df","665cbb56d9ecb20564b9b607","false","false","Bicycle","https://kisumu-drawings.s3-us-west-1.amazonaws.com/19-014.png","5","Chair","19-014.png"
"","1668","image-button-response","72","null","329951","685c6ca90f751d3aae6b1794","685c6f283fc150750f7dc4df","665cbb56d9ecb20564b9b607","false","false","Chair","https://kisumu-drawings.s3-us-west-1.amazonaws.com/47-013.png","5","Chair","47-013.png"
"","2183","image-button-response","73","null","332649","685c6ca90f751d3aae6b1794","685c6f283fc150750f7dc4df","665cbb56d9ecb20564b9b607","false","false","Watch","https://kisumu-drawings.s3-us-west-1.amazonaws.com/81-010.png","11","Watch","81-010.png"
"","2246","image-button-response","74","null","335403","685c6ca90f751d3aae6b1794","685c6f283fc150750f7dc4df","665cbb56d9ecb20564b9b607","false","false","House","https://kisumu-drawings.s3-us-west-1.amazonaws.com/77-016.png","8","House","77-016.png"
"","2455","image-button-response","75","null","338362","685c6ca90f751d3aae6b1794","685c6f283fc150750f7dc4df","665cbb56d9ecb20564b9b607","false","false","Bicycle","https://kisumu-drawings.s3-us-west-1.amazonaws.com/86-010.png","0","Airplane","86-010.png"
