"view_history","rt","trial_type","trial_index","plugin_version","time_elapsed","study_id","session_id","participant_id","catch_trial","prep_trial","sketcher_category","stimulus","response","response_category","sketch_id"
"[{""page_index"":0,""viewing_time"":16147},{""page_index"":1,""viewing_time"":5720},{""page_index"":2,""viewing_time"":5191},{""page_index"":3,""viewing_time"":18010}]","45067","instructions","0","null","45074","685c6ca90f751d3aae6b1794","685c6e187f09923e9f0c90df","668ae0afbe5eedd5c5460d15","","","","","","",""
"","3063","image-button-response","1","null","49144","685c6ca90f751d3aae6b1794","685c6e187f09923e9f0c90df","668ae0afbe5eedd5c5460d15","false","true","car","stimuli/prep_trials/1_car_prep.png","3","Car",""
"","3494","image-button-response","2","null","53142","685c6ca90f751d3aae6b1794","685c6e187f09923e9f0c90df","668ae0afbe5eedd5c5460d15","false","true","cat","stimuli/prep_trials/0_cat_prep.jpg","4","Cat",""
"","13211","image-button-response","3","null","66856","685c6ca90f751d3aae6b1794","685c6e187f09923e9f0c90df","668ae0afbe5eedd5c5460d15","false","false","Bicycle","https://kisumu-drawings.s3-us-west-1.amazonaws.com/66-012.png","8","House","66-012.png"
"","6019","image-button-response","4","null","73379","685c6ca90f751d3aae6b1794","685c6e187f09923e9f0c90df","668ae0afbe5eedd5c5460d15","false","false","Cat","https://kisumu-drawings.s3-us-west-1.amazonaws.com/57-008.png","4","Cat","57-008.png"
"","19773","image-button-response","5","null","93655","685c6ca90f751d3aae6b1794","685c6e187f09923e9f0c90df","668ae0afbe5eedd5c5460d15","false","false","Chair","https://kisumu-drawings.s3-us-west-1.amazonaws.com/58-008.png","5","Chair","58-008.png"
"","11917","image-button-response","6","null","106075","685c6ca90f751d3aae6b1794","685c6e187f09923e9f0c90df","668ae0afbe5eedd5c5460d15","false","false","Tree","https://kisumu-drawings.s3-us-west-1.amazonaws.com/65-011.png","10","Tree","65-011.png"
"","21814","image-button-response","7","null","128392","685c6ca90f751d3aae6b1794","685c6e187f09923e9f0c90df","668ae0afbe5eedd5c5460d15","false","false","Chair","https://kisumu-drawings.s3-us-west-1.amazonaws.com/3-010.png","6","Cup","3-010.png"
"","3678","image-button-response","8","null","132573","685c6ca90f751d3aae6b1794","685c6e187f09923e9f0c90df","668ae0afbe5eedd5c5460d15","false","false","Cat","https://kisumu-drawings.s3-us-west-1.amazonaws.com/104-013.png","4","Cat","104-013.png"
"","15996","image-button-response","9","null","149074","685c6ca90f751d3aae6b1794","685c6e187f09923e9f0c90df","668ae0afbe5eedd5c5460d15","false","false","Chair","https://kisumu-drawings.s3-us-west-1.amazonaws.com/24-006.png","8","House","24-006.png"
"","5076","image-button-response","10","null","154652","685c6ca90f751d3aae6b1794","685c6e187f09923e9f0c90df","668ae0afbe5eedd5c5460d15","false","false","Bird","https://kisumu-drawings.s3-us-west-1.amazonaws.com/24-009.png","10","Tree","24-009.png"
"","7545","image-button-response","11","null","162699","685c6ca90f751d3aae6b1794","685c6e187f09923e9f0c90df","668ae0afbe5eedd5c5460d15","false","false","Car","https://kisumu-drawings.s3-us-west-1.amazonaws.com/3-008.png","3","Car","3-008.png"
"","2621","image-button-response","12","null","165823","685c6ca90f751d3aae6b1794","685c6e187f09923e9f0c90df","668ae0afbe5eedd5c5460d15","false","false","House","https://kisumu-drawings.s3-us-west-1.amazonaws.com/90-016.png","8","House","90-016.png"
"","2007","image-button-response","13","null","168333","685c6ca90f751d3aae6b1794","685c6e187f09923e9f0c90df","668ae0afbe5eedd5c5460d15","false","false","Cup","https://kisumu-drawings.s3-us-west-1.amazonaws.com/90-008.png","6","Cup","90-008.png"
"","9146","image-button-response","14","null","177982","685c6ca90f751d3aae6b1794","685c6e187f09923e9f0c90df","668ae0afbe5eedd5c5460d15","false","false","Airplane","https://kisumu-drawings.s3-us-west-1.amazonaws.com/91-016.png","8","House","91-016.png"
"","5797","image-button-response","15","null","184282","685c6ca90f751d3aae6b1794","685c6e187f09923e9f0c90df","668ae0afbe5eedd5c5460d15","false","false","Bicycle","https://kisumu-drawings.s3-us-west-1.amazonaws.com/91-012.png","1","Bicycle","91-012.png"
"","8165","image-button-response","16","null","192950","685c6ca90f751d3aae6b1794","685c6e187f09923e9f0c90df","668ae0afbe5eedd5c5460d15","false","false","Car","https://kisumu-drawings.s3-us-west-1.amazonaws.com/65-013.png","3","Car","65-013.png"
"","6652","image-button-response","17","null","200103","685c6ca90f751d3aae6b1794","685c6e187f09923e9f0c90df","668ae0afbe5eedd5c5460d15","false","false","Airplane","https://kisumu-drawings.s3-us-west-1.amazonaws.com/58-013.png","0","Airplane","58-013.png"
"","30693","image-button-response","18","null","231299","685c6ca90f751d3aae6b1794","685c6e187f09923e9f0c90df","668ae0afbe5eedd5c5460d15","false","false","Airplane","https://kisumu-drawings.s3-us-west-1.amazonaws.com/34-011.png","5","Chair","34-011.png"
"","2046","image-button-response","19","null","233848","685c6ca90f751d3aae6b1794","685c6e187f09923e9f0c90df","668ae0afbe5eedd5c5460d15","false","false","Cup","https://kisumu-drawings.s3-us-west-1.amazonaws.com/58-011.png","6","Cup","58-011.png"
"","3855","image-button-response","20","null","238205","685c6ca90f751d3aae6b1794","685c6e187f09923e9f0c90df","668ae0afbe5eedd5c5460d15","false","false","Tree","https://kisumu-drawings.s3-us-west-1.amazonaws.com/58-006.png","10","Tree","58-006.png"
"","2086","image-button-response","21","null","240794","685c6ca90f751d3aae6b1794","685c6e187f09923e9f0c90df","668ae0afbe5eedd5c5460d15","false","false","Car","https://kisumu-drawings.s3-us-west-1.amazonaws.com/58-010.png","3","Car","58-010.png"
"","1780","image-button-response","22","null","243077","685c6ca90f751d3aae6b1794","685c6e187f09923e9f0c90df","668ae0afbe5eedd5c5460d15","false","false","Car","https://kisumu-drawings.s3-us-west-1.amazonaws.com/90-012.png","3","Car","90-012.png"
"","3848","image-button-response","23","null","247428","685c6ca90f751d3aae6b1794","685c6e187f09923e9f0c90df","668ae0afbe5eedd5c5460d15","false","false","Watch","https://kisumu-drawings.s3-us-west-1.amazonaws.com/58-016.png","11","Watch","58-016.png"
"","8209","image-button-response","24","null","256139","685c6ca90f751d3aae6b1794","685c6e187f09923e9f0c90df","668ae0afbe5eedd5c5460d15","false","false","Bird","https://kisumu-drawings.s3-us-west-1.amazonaws.com/65-005.png","8","House","65-005.png"
"","1918","image-button-response","25","null","258559","685c6ca90f751d3aae6b1794","685c6e187f09923e9f0c90df","668ae0afbe5eedd5c5460d15","false","false","Tree","https://kisumu-drawings.s3-us-west-1.amazonaws.com/104-007.png","10","Tree","104-007.png"
"","2310","image-button-response","26","null","261372","685c6ca90f751d3aae6b1794","685c6e187f09923e9f0c90df","668ae0afbe5eedd5c5460d15","false","false","House","https://kisumu-drawings.s3-us-west-1.amazonaws.com/104-011.png","8","House","104-011.png"
"","5740","image-button-response","27","null","267615","685c6ca90f751d3aae6b1794","685c6e187f09923e9f0c90df","668ae0afbe5eedd5c5460d15","false","false","Bird","https://kisumu-drawings.s3-us-west-1.amazonaws.com/58-015.png","2","Bird","58-015.png"
"","9184","image-button-response","28","null","277301","685c6ca90f751d3aae6b1794","685c6e187f09923e9f0c90df","668ae0afbe5eedd5c5460d15","false","false","Bicycle","https://kisumu-drawings.s3-us-west-1.amazonaws.com/34-013.png","2","Bird","34-013.png"
"","4754","image-button-response","29","null","282559","685c6ca90f751d3aae6b1794","685c6e187f09923e9f0c90df","668ae0afbe5eedd5c5460d15","false","false","Watch","https://kisumu-drawings.s3-us-west-1.amazonaws.com/104-005.png","11","Watch","104-005.png"
"","12865","image-button-response","30","null","295926","685c6ca90f751d3aae6b1794","685c6e187f09923e9f0c90df","668ae0afbe5eedd5c5460d15","false","false","Watch","https://kisumu-drawings.s3-us-west-1.amazonaws.com/24-012.png","10","Tree","24-012.png"
"","16264","image-button-response","31","null","312694","685c6ca90f751d3aae6b1794","685c6e187f09923e9f0c90df","668ae0afbe5eedd5c5460d15","false","false","Hat","https://kisumu-drawings.s3-us-west-1.amazonaws.com/24-016.png","7","Hat","24-016.png"
"","4426","image-button-response","32","null","317623","685c6ca90f751d3aae6b1794","685c6e187f09923e9f0c90df","668ae0afbe5eedd5c5460d15","false","false","House","https://kisumu-drawings.s3-us-west-1.amazonaws.com/24-015.png","8","House","24-015.png"
"","1621","image-button-response","33","null","319748","685c6ca90f751d3aae6b1794","685c6e187f09923e9f0c90df","668ae0afbe5eedd5c5460d15","false","false","Tree","https://kisumu-drawings.s3-us-west-1.amazonaws.com/24-013.png","10","Tree","24-013.png"
"","1941","image-button-response","34","null","322191","685c6ca90f751d3aae6b1794","685c6e187f09923e9f0c90df","668ae0afbe5eedd5c5460d15","false","false","Cup","https://kisumu-drawings.s3-us-west-1.amazonaws.com/3-011.png","6","Cup","3-011.png"
"","2580","image-button-response","35","null","325275","685c6ca90f751d3aae6b1794","685c6e187f09923e9f0c90df","668ae0afbe5eedd5c5460d15","false","false","Tree","https://kisumu-drawings.s3-us-west-1.amazonaws.com/3-015.png","10","Tree","3-015.png"
"","2373","image-button-response","36","null","328151","685c6ca90f751d3aae6b1794","685c6e187f09923e9f0c90df","668ae0afbe5eedd5c5460d15","false","false","Cat","https://kisumu-drawings.s3-us-west-1.amazonaws.com/24-007.png","4","Cat","24-007.png"
"","3167","image-button-response","37","null","331821","685c6ca90f751d3aae6b1794","685c6e187f09923e9f0c90df","668ae0afbe5eedd5c5460d15","false","false","House","https://kisumu-drawings.s3-us-west-1.amazonaws.com/3-013.png","6","Cup","3-013.png"
"","4436","image-button-response","38","null","336760","685c6ca90f751d3aae6b1794","685c6e187f09923e9f0c90df","668ae0afbe5eedd5c5460d15","false","false","Watch","https://kisumu-drawings.s3-us-west-1.amazonaws.com/3-016.png","11","Watch","3-016.png"
"","8294","image-button-response","39","null","345556","685c6ca90f751d3aae6b1794","685c6e187f09923e9f0c90df","668ae0afbe5eedd5c5460d15","false","false","Hat","https://kisumu-drawings.s3-us-west-1.amazonaws.com/3-012.png","7","Hat","3-012.png"
"","22552","image-button-response","40","null","368611","685c6ca90f751d3aae6b1794","685c6e187f09923e9f0c90df","668ae0afbe5eedd5c5460d15","false","false","Rabbit","https://kisumu-drawings.s3-us-west-1.amazonaws.com/90-007.png","4","Cat","90-007.png"
"","5302","image-button-response","41","null","374416","685c6ca90f751d3aae6b1794","685c6e187f09923e9f0c90df","668ae0afbe5eedd5c5460d15","false","false","Rabbit","https://kisumu-drawings.s3-us-west-1.amazonaws.com/3-014.png","4","Cat","3-014.png"
"","1998","image-button-response","42","null","376917","685c6ca90f751d3aae6b1794","685c6e187f09923e9f0c90df","668ae0afbe5eedd5c5460d15","false","false","Bird","https://kisumu-drawings.s3-us-west-1.amazonaws.com/90-010.png","0","Airplane","90-010.png"
"","6021","image-button-response","43","null","383439","685c6ca90f751d3aae6b1794","685c6e187f09923e9f0c90df","668ae0afbe5eedd5c5460d15","false","false","Hat","https://kisumu-drawings.s3-us-west-1.amazonaws.com/90-009.png","7","Hat","90-009.png"
"","1965","image-button-response","44","null","385907","685c6ca90f751d3aae6b1794","685c6e187f09923e9f0c90df","668ae0afbe5eedd5c5460d15","false","false","Watch","https://kisumu-drawings.s3-us-west-1.amazonaws.com/65-010.png","11","Watch","65-010.png"
"","4681","image-button-response","45","null","391091","685c6ca90f751d3aae6b1794","685c6e187f09923e9f0c90df","668ae0afbe5eedd5c5460d15","false","false","Rabbit","https://kisumu-drawings.s3-us-west-1.amazonaws.com/65-016.png","4","Cat","65-016.png"
"","3305","image-button-response","46","null","394899","685c6ca90f751d3aae6b1794","685c6e187f09923e9f0c90df","668ae0afbe5eedd5c5460d15","false","false","Car","https://kisumu-drawings.s3-us-west-1.amazonaws.com/24-005.png","3","Car","24-005.png"
"","2791","image-button-response","47","null","398192","685c6ca90f751d3aae6b1794","685c6e187f09923e9f0c90df","668ae0afbe5eedd5c5460d15","false","false","Airplane","https://kisumu-drawings.s3-us-west-1.amazonaws.com/4-006.png","0","Airplane","4-006.png"
"","3587","image-button-response","48","null","402282","685c6ca90f751d3aae6b1794","685c6e187f09923e9f0c90df","668ae0afbe5eedd5c5460d15","false","false","Airplane","https://kisumu-drawings.s3-us-west-1.amazonaws.com/66-011.png","0","Airplane","66-011.png"
"","1378","image-button-response","49","null","404163","685c6ca90f751d3aae6b1794","685c6e187f09923e9f0c90df","668ae0afbe5eedd5c5460d15","true","false","airplane","stimuli/catch_trials/0_airplane_catch.jpg","0","Airplane",""
"","2615","image-button-response","50","null","407281","685c6ca90f751d3aae6b1794","685c6e187f09923e9f0c90df","668ae0afbe5eedd5c5460d15","false","false","House","https://kisumu-drawings.s3-us-west-1.amazonaws.com/65-009.png","8","House","65-009.png"
"","13175","image-button-response","51","null","420959","685c6ca90f751d3aae6b1794","685c6e187f09923e9f0c90df","668ae0afbe5eedd5c5460d15","false","false","Chair","https://kisumu-drawings.s3-us-west-1.amazonaws.com/65-012.png","5","Chair","65-012.png"
"","9002","image-button-response","52","null","430463","685c6ca90f751d3aae6b1794","685c6e187f09923e9f0c90df","668ae0afbe5eedd5c5460d15","false","false","Hat","https://kisumu-drawings.s3-us-west-1.amazonaws.com/104-010.png","7","Hat","104-010.png"
"","9616","image-button-response","53","null","440582","685c6ca90f751d3aae6b1794","685c6e187f09923e9f0c90df","668ae0afbe5eedd5c5460d15","false","false","Cat","https://kisumu-drawings.s3-us-west-1.amazonaws.com/3-009.png","4","Cat","3-009.png"
"","2444","image-button-response","54","null","443529","685c6ca90f751d3aae6b1794","685c6e187f09923e9f0c90df","668ae0afbe5eedd5c5460d15","false","false","Chair","https://kisumu-drawings.s3-us-west-1.amazonaws.com/104-009.png","5","Chair","104-009.png"
"","10720","image-button-response","55","null","454749","685c6ca90f751d3aae6b1794","685c6e187f09923e9f0c90df","668ae0afbe5eedd5c5460d15","false","false","Bicycle","https://kisumu-drawings.s3-us-west-1.amazonaws.com/59-012.png","1","Bicycle","59-012.png"
"","5669","image-button-response","56","null","460921","685c6ca90f751d3aae6b1794","685c6e187f09923e9f0c90df","668ae0afbe5eedd5c5460d15","false","false","Bird","https://kisumu-drawings.s3-us-west-1.amazonaws.com/105-007.png","9","Rabbit","105-007.png"
"","1503","image-button-response","57","null","462925","685c6ca90f751d3aae6b1794","685c6e187f09923e9f0c90df","668ae0afbe5eedd5c5460d15","false","false","Tree","https://kisumu-drawings.s3-us-west-1.amazonaws.com/90-006.png","10","Tree","90-006.png"
"","2012","image-button-response","58","null","465441","685c6ca90f751d3aae6b1794","685c6e187f09923e9f0c90df","668ae0afbe5eedd5c5460d15","false","false","House","https://kisumu-drawings.s3-us-west-1.amazonaws.com/58-005.png","8","House","58-005.png"
"","1846","image-button-response","59","null","467789","685c6ca90f751d3aae6b1794","685c6e187f09923e9f0c90df","668ae0afbe5eedd5c5460d15","false","false","Cat","https://kisumu-drawings.s3-us-west-1.amazonaws.com/90-013.png","4","Cat","90-013.png"
"","2629","image-button-response","60","null","470921","685c6ca90f751d3aae6b1794","685c6e187f09923e9f0c90df","668ae0afbe5eedd5c5460d15","false","false","Cup","https://kisumu-drawings.s3-us-west-1.amazonaws.com/104-008.png","6","Cup","104-008.png"
"","2038","image-button-response","61","null","473461","685c6ca90f751d3aae6b1794","685c6e187f09923e9f0c90df","668ae0afbe5eedd5c5460d15","false","false","Rabbit","https://kisumu-drawings.s3-us-west-1.amazonaws.com/24-011.png","4","Cat","24-011.png"
"","12162","image-button-response","62","null","486126","685c6ca90f751d3aae6b1794","685c6e187f09923e9f0c90df","668ae0afbe5eedd5c5460d15","false","false","Hat","https://kisumu-drawings.s3-us-west-1.amazonaws.com/58-012.png","7","Hat","58-012.png"
"","2334","image-button-response","63","null","488963","685c6ca90f751d3aae6b1794","685c6e187f09923e9f0c90df","668ae0afbe5eedd5c5460d15","false","false","Cup","https://kisumu-drawings.s3-us-west-1.amazonaws.com/65-008.png","6","Cup","65-008.png"
"","1613","image-button-response","64","null","491078","685c6ca90f751d3aae6b1794","685c6e187f09923e9f0c90df","668ae0afbe5eedd5c5460d15","false","false","Airplane","https://kisumu-drawings.s3-us-west-1.amazonaws.com/105-009.png","0","Airplane","105-009.png"
"","2822","image-button-response","65","null","494402","685c6ca90f751d3aae6b1794","685c6e187f09923e9f0c90df","668ae0afbe5eedd5c5460d15","false","false","Rabbit","https://kisumu-drawings.s3-us-west-1.amazonaws.com/58-007.png","4","Cat","58-007.png"
"","3096","image-button-response","66","null","498001","685c6ca90f751d3aae6b1794","685c6e187f09923e9f0c90df","668ae0afbe5eedd5c5460d15","false","false","Rabbit","https://kisumu-drawings.s3-us-west-1.amazonaws.com/104-012.png","9","Rabbit","104-012.png"
"","1580","image-button-response","67","null","500085","685c6ca90f751d3aae6b1794","685c6e187f09923e9f0c90df","668ae0afbe5eedd5c5460d15","false","false","Bicycle","https://kisumu-drawings.s3-us-west-1.amazonaws.com/104-016.png","1","Bicycle","104-016.png"
"","14483","image-button-response","68","null","515070","685c6ca90f751d3aae6b1794","685c6e187f09923e9f0c90df","668ae0afbe5eedd5c5460d15","false","false","Bird","https://kisumu-drawings.s3-us-west-1.amazonaws.com/3-007.png","0","Airplane","3-007.png"
"","2678","image-button-response","69","null","518251","685c6ca90f751d3aae6b1794","685c6e187f09923e9f0c90df","668ae0afbe5eedd5c5460d15","false","false","Car","https://kisumu-drawings.s3-us-west-1.amazonaws.com/104-014.png","3","Car","104-014.png"
"","1885","image-button-response","70","null","520639","685c6ca90f751d3aae6b1794","685c6e187f09923e9f0c90df","668ae0afbe5eedd5c5460d15","false","false","Cup","https://kisumu-drawings.s3-us-west-1.amazonaws.com/24-014.png","6","Cup","24-014.png"
"","1709","image-button-response","71","null","522851","685c6ca90f751d3aae6b1794","685c6e187f09923e9f0c90df","668ae0afbe5eedd5c5460d15","false","false","Chair","https://kisumu-drawings.s3-us-west-1.amazonaws.com/90-011.png","5","Chair","90-011.png"
"","1610","image-button-response","72","null","524963","685c6ca90f751d3aae6b1794","685c6e187f09923e9f0c90df","668ae0afbe5eedd5c5460d15","false","false","Cat","https://kisumu-drawings.s3-us-west-1.amazonaws.com/65-015.png","4","Cat","65-015.png"
"","1632","image-button-response","73","null","527097","685c6ca90f751d3aae6b1794","685c6e187f09923e9f0c90df","668ae0afbe5eedd5c5460d15","false","false","Watch","https://kisumu-drawings.s3-us-west-1.amazonaws.com/90-005.png","11","Watch","90-005.png"
"","4520","image-button-response","74","null","532120","685c6ca90f751d3aae6b1794","685c6e187f09923e9f0c90df","668ae0afbe5eedd5c5460d15","false","false","Hat","https://kisumu-drawings.s3-us-west-1.amazonaws.com/65-014.png","7","Hat","65-014.png"
"","26531","image-button-response","75","null","559154","685c6ca90f751d3aae6b1794","685c6e187f09923e9f0c90df","668ae0afbe5eedd5c5460d15","false","false","Bicycle","https://kisumu-drawings.s3-us-west-1.amazonaws.com/4-007.png","1","Bicycle","4-007.png"
