"view_history","rt","trial_type","trial_index","plugin_version","time_elapsed","study_id","session_id","participant_id","catch_trial","prep_trial","sketcher_category","stimulus","response","response_category","sketch_id"
"[{""page_index"":0,""viewing_time"":11760},{""page_index"":1,""viewing_time"":5919},{""page_index"":2,""viewing_time"":6826},{""page_index"":3,""viewing_time"":16296}]","40802","instructions","0","null","40837","685c6ca90f751d3aae6b1794","685c6e274bd9c83d8500c2d4","66cbd449c6029aaeeafcb71f","","","","","","",""
"","2541","image-button-response","1","null","44408","685c6ca90f751d3aae6b1794","685c6e274bd9c83d8500c2d4","66cbd449c6029aaeeafcb71f","false","true","car","stimuli/prep_trials/1_car_prep.png","3","Car",""
"","1899","image-button-response","2","null","46833","685c6ca90f751d3aae6b1794","685c6e274bd9c83d8500c2d4","66cbd449c6029aaeeafcb71f","false","true","cat","stimuli/prep_trials/0_cat_prep.jpg","4","Cat",""
"","8360","image-button-response","3","null","55711","685c6ca90f751d3aae6b1794","685c6e274bd9c83d8500c2d4","66cbd449c6029aaeeafcb71f","false","false","Car","https://kisumu-drawings.s3-us-west-1.amazonaws.com/69-016.png","3","Car","69-016.png"
"","4826","image-button-response","4","null","61063","685c6ca90f751d3aae6b1794","685c6e274bd9c83d8500c2d4","66cbd449c6029aaeeafcb71f","false","false","Watch","https://kisumu-drawings.s3-us-west-1.amazonaws.com/69-012.png","11","Watch","69-012.png"
"","16639","image-button-response","5","null","78223","685c6ca90f751d3aae6b1794","685c6e274bd9c83d8500c2d4","66cbd449c6029aaeeafcb71f","false","false","Tree","https://kisumu-drawings.s3-us-west-1.amazonaws.com/29-014.png","7","Hat","29-014.png"
"","25582","image-button-response","6","null","104320","685c6ca90f751d3aae6b1794","685c6e274bd9c83d8500c2d4","66cbd449c6029aaeeafcb71f","false","false","Watch","https://kisumu-drawings.s3-us-west-1.amazonaws.com/29-012.png","1","Bicycle","29-012.png"
"","5892","image-button-response","7","null","110723","685c6ca90f751d3aae6b1794","685c6e274bd9c83d8500c2d4","66cbd449c6029aaeeafcb71f","false","false","Bird","https://kisumu-drawings.s3-us-west-1.amazonaws.com/7-010.png","10","Tree","7-010.png"
"","9473","image-button-response","8","null","120720","685c6ca90f751d3aae6b1794","685c6e274bd9c83d8500c2d4","66cbd449c6029aaeeafcb71f","false","false","Cup","https://kisumu-drawings.s3-us-west-1.amazonaws.com/8-010.png","10","Tree","8-010.png"
"","4037","image-button-response","9","null","125268","685c6ca90f751d3aae6b1794","685c6e274bd9c83d8500c2d4","66cbd449c6029aaeeafcb71f","false","false","Chair","https://kisumu-drawings.s3-us-west-1.amazonaws.com/28-009.png","5","Chair","28-009.png"
"","3735","image-button-response","10","null","129521","685c6ca90f751d3aae6b1794","685c6e274bd9c83d8500c2d4","66cbd449c6029aaeeafcb71f","false","false","Watch","https://kisumu-drawings.s3-us-west-1.amazonaws.com/95-015.png","11","Watch","95-015.png"
"","9156","image-button-response","11","null","139191","685c6ca90f751d3aae6b1794","685c6e274bd9c83d8500c2d4","66cbd449c6029aaeeafcb71f","false","false","Bird","https://kisumu-drawings.s3-us-west-1.amazonaws.com/27-007.png","11","Watch","27-007.png"
"","5391","image-button-response","12","null","145098","685c6ca90f751d3aae6b1794","685c6e274bd9c83d8500c2d4","66cbd449c6029aaeeafcb71f","false","false","Cat","https://kisumu-drawings.s3-us-west-1.amazonaws.com/28-008.png","4","Cat","28-008.png"
"","5236","image-button-response","13","null","150852","685c6ca90f751d3aae6b1794","685c6e274bd9c83d8500c2d4","66cbd449c6029aaeeafcb71f","false","false","Tree","https://kisumu-drawings.s3-us-west-1.amazonaws.com/110-009.png","10","Tree","110-009.png"
"","5287","image-button-response","14","null","156663","685c6ca90f751d3aae6b1794","685c6e274bd9c83d8500c2d4","66cbd449c6029aaeeafcb71f","false","false","Tree","https://kisumu-drawings.s3-us-west-1.amazonaws.com/96-005.png","10","Tree","96-005.png"
"","4022","image-button-response","15","null","161194","685c6ca90f751d3aae6b1794","685c6e274bd9c83d8500c2d4","66cbd449c6029aaeeafcb71f","false","false","Hat","https://kisumu-drawings.s3-us-west-1.amazonaws.com/110-015.png","7","Hat","110-015.png"
"","7853","image-button-response","16","null","169553","685c6ca90f751d3aae6b1794","685c6e274bd9c83d8500c2d4","66cbd449c6029aaeeafcb71f","false","false","House","https://kisumu-drawings.s3-us-west-1.amazonaws.com/8-012.png","6","Cup","8-012.png"
"","6387","image-button-response","17","null","176460","685c6ca90f751d3aae6b1794","685c6e274bd9c83d8500c2d4","66cbd449c6029aaeeafcb71f","false","false","Airplane","https://kisumu-drawings.s3-us-west-1.amazonaws.com/51-006.png","0","Airplane","51-006.png"
"","10763","image-button-response","18","null","187735","685c6ca90f751d3aae6b1794","685c6e274bd9c83d8500c2d4","66cbd449c6029aaeeafcb71f","false","false","Cat","https://kisumu-drawings.s3-us-west-1.amazonaws.com/52-014.png","4","Cat","52-014.png"
"","4592","image-button-response","19","null","192849","685c6ca90f751d3aae6b1794","685c6e274bd9c83d8500c2d4","66cbd449c6029aaeeafcb71f","false","false","Cup","https://kisumu-drawings.s3-us-west-1.amazonaws.com/109-007.png","6","Cup","109-007.png"
"","17789","image-button-response","20","null","211162","685c6ca90f751d3aae6b1794","685c6e274bd9c83d8500c2d4","66cbd449c6029aaeeafcb71f","false","false","Watch","https://kisumu-drawings.s3-us-west-1.amazonaws.com/53-016.png","11","Watch","53-016.png"
"","7413","image-button-response","21","null","219093","685c6ca90f751d3aae6b1794","685c6e274bd9c83d8500c2d4","66cbd449c6029aaeeafcb71f","false","false","Rabbit","https://kisumu-drawings.s3-us-west-1.amazonaws.com/110-008.png","9","Rabbit","110-008.png"
"","8499","image-button-response","22","null","228105","685c6ca90f751d3aae6b1794","685c6e274bd9c83d8500c2d4","66cbd449c6029aaeeafcb71f","false","false","Rabbit","https://kisumu-drawings.s3-us-west-1.amazonaws.com/28-013.png","2","Bird","28-013.png"
"","3428","image-button-response","23","null","232051","685c6ca90f751d3aae6b1794","685c6e274bd9c83d8500c2d4","66cbd449c6029aaeeafcb71f","false","false","House","https://kisumu-drawings.s3-us-west-1.amazonaws.com/52-010.png","8","House","52-010.png"
"","10401","image-button-response","24","null","242971","685c6ca90f751d3aae6b1794","685c6e274bd9c83d8500c2d4","66cbd449c6029aaeeafcb71f","false","false","Chair","https://kisumu-drawings.s3-us-west-1.amazonaws.com/95-012.png","5","Chair","95-012.png"
"","5534","image-button-response","25","null","249022","685c6ca90f751d3aae6b1794","685c6e274bd9c83d8500c2d4","66cbd449c6029aaeeafcb71f","false","false","Tree","https://kisumu-drawings.s3-us-west-1.amazonaws.com/9-016.png","8","House","9-016.png"
"","4136","image-button-response","26","null","253670","685c6ca90f751d3aae6b1794","685c6e274bd9c83d8500c2d4","66cbd449c6029aaeeafcb71f","false","false","Rabbit","https://kisumu-drawings.s3-us-west-1.amazonaws.com/9-014.png","8","House","9-014.png"
"","6221","image-button-response","27","null","260402","685c6ca90f751d3aae6b1794","685c6e274bd9c83d8500c2d4","66cbd449c6029aaeeafcb71f","false","false","Watch","https://kisumu-drawings.s3-us-west-1.amazonaws.com/109-006.png","11","Watch","109-006.png"
"","4449","image-button-response","28","null","265364","685c6ca90f751d3aae6b1794","685c6e274bd9c83d8500c2d4","66cbd449c6029aaeeafcb71f","false","false","Cup","https://kisumu-drawings.s3-us-west-1.amazonaws.com/95-013.png","6","Cup","95-013.png"
"","5186","image-button-response","29","null","271068","685c6ca90f751d3aae6b1794","685c6e274bd9c83d8500c2d4","66cbd449c6029aaeeafcb71f","false","false","Car","https://kisumu-drawings.s3-us-west-1.amazonaws.com/109-014.png","3","Car","109-014.png"
"","13840","image-button-response","30","null","285420","685c6ca90f751d3aae6b1794","685c6e274bd9c83d8500c2d4","66cbd449c6029aaeeafcb71f","false","false","Airplane","https://kisumu-drawings.s3-us-west-1.amazonaws.com/7-009.png","7","Hat","7-009.png"
"","8876","image-button-response","31","null","294821","685c6ca90f751d3aae6b1794","685c6e274bd9c83d8500c2d4","66cbd449c6029aaeeafcb71f","false","false","Chair","https://kisumu-drawings.s3-us-west-1.amazonaws.com/8-008.png","10","Tree","8-008.png"
"","6107","image-button-response","32","null","301453","685c6ca90f751d3aae6b1794","685c6e274bd9c83d8500c2d4","66cbd449c6029aaeeafcb71f","false","false","Tree","https://kisumu-drawings.s3-us-west-1.amazonaws.com/70-015.png","10","Tree","70-015.png"
"","4648","image-button-response","33","null","306619","685c6ca90f751d3aae6b1794","685c6e274bd9c83d8500c2d4","66cbd449c6029aaeeafcb71f","false","false","Tree","https://kisumu-drawings.s3-us-west-1.amazonaws.com/52-012.png","10","Tree","52-012.png"
"","4148","image-button-response","34","null","311282","685c6ca90f751d3aae6b1794","685c6e274bd9c83d8500c2d4","66cbd449c6029aaeeafcb71f","false","false","Bird","https://kisumu-drawings.s3-us-west-1.amazonaws.com/109-013.png","2","Bird","109-013.png"
"","6321","image-button-response","35","null","318122","685c6ca90f751d3aae6b1794","685c6e274bd9c83d8500c2d4","66cbd449c6029aaeeafcb71f","false","false","Airplane","https://kisumu-drawings.s3-us-west-1.amazonaws.com/108-014.png","0","Airplane","108-014.png"
"","9544","image-button-response","36","null","328182","685c6ca90f751d3aae6b1794","685c6e274bd9c83d8500c2d4","66cbd449c6029aaeeafcb71f","false","false","Bird","https://kisumu-drawings.s3-us-west-1.amazonaws.com/51-008.png","0","Airplane","51-008.png"
"","5174","image-button-response","37","null","333876","685c6ca90f751d3aae6b1794","685c6e274bd9c83d8500c2d4","66cbd449c6029aaeeafcb71f","false","false","Cat","https://kisumu-drawings.s3-us-west-1.amazonaws.com/8-007.png","10","Tree","8-007.png"
"","4786","image-button-response","38","null","339182","685c6ca90f751d3aae6b1794","685c6e274bd9c83d8500c2d4","66cbd449c6029aaeeafcb71f","false","false","House","https://kisumu-drawings.s3-us-west-1.amazonaws.com/110-016.png","8","House","110-016.png"
"","3122","image-button-response","39","null","342814","685c6ca90f751d3aae6b1794","685c6e274bd9c83d8500c2d4","66cbd449c6029aaeeafcb71f","false","false","Hat","https://kisumu-drawings.s3-us-west-1.amazonaws.com/52-009.png","7","Hat","52-009.png"
"","7003","image-button-response","40","null","350336","685c6ca90f751d3aae6b1794","685c6e274bd9c83d8500c2d4","66cbd449c6029aaeeafcb71f","false","false","Hat","https://kisumu-drawings.s3-us-west-1.amazonaws.com/28-011.png","3","Car","28-011.png"
"","6311","image-button-response","41","null","357160","685c6ca90f751d3aae6b1794","685c6e274bd9c83d8500c2d4","66cbd449c6029aaeeafcb71f","false","false","Bicycle","https://kisumu-drawings.s3-us-west-1.amazonaws.com/95-010.png","3","Car","95-010.png"
"","3756","image-button-response","42","null","361428","685c6ca90f751d3aae6b1794","685c6e274bd9c83d8500c2d4","66cbd449c6029aaeeafcb71f","false","false","Chair","https://kisumu-drawings.s3-us-west-1.amazonaws.com/52-016.png","5","Chair","52-016.png"
"","4065","image-button-response","43","null","366005","685c6ca90f751d3aae6b1794","685c6e274bd9c83d8500c2d4","66cbd449c6029aaeeafcb71f","false","false","House","https://kisumu-drawings.s3-us-west-1.amazonaws.com/69-009.png","8","House","69-009.png"
"","8705","image-button-response","44","null","375226","685c6ca90f751d3aae6b1794","685c6e274bd9c83d8500c2d4","66cbd449c6029aaeeafcb71f","false","false","Rabbit","https://kisumu-drawings.s3-us-west-1.amazonaws.com/52-011.png","9","Rabbit","52-011.png"
"","8774","image-button-response","45","null","384510","685c6ca90f751d3aae6b1794","685c6e274bd9c83d8500c2d4","66cbd449c6029aaeeafcb71f","false","false","Rabbit","https://kisumu-drawings.s3-us-west-1.amazonaws.com/69-010.png","4","Cat","69-010.png"
"","3800","image-button-response","46","null","388829","685c6ca90f751d3aae6b1794","685c6e274bd9c83d8500c2d4","66cbd449c6029aaeeafcb71f","false","false","Cat","https://kisumu-drawings.s3-us-west-1.amazonaws.com/95-011.png","4","Cat","95-011.png"
"","4831","image-button-response","47","null","394182","685c6ca90f751d3aae6b1794","685c6e274bd9c83d8500c2d4","66cbd449c6029aaeeafcb71f","false","false","Airplane","https://kisumu-drawings.s3-us-west-1.amazonaws.com/27-005.png","2","Bird","27-005.png"
"","3763","image-button-response","48","null","398457","685c6ca90f751d3aae6b1794","685c6e274bd9c83d8500c2d4","66cbd449c6029aaeeafcb71f","false","false","Hat","https://kisumu-drawings.s3-us-west-1.amazonaws.com/8-011.png","10","Tree","8-011.png"
"","10813","image-button-response","49","null","409789","685c6ca90f751d3aae6b1794","685c6e274bd9c83d8500c2d4","66cbd449c6029aaeeafcb71f","false","false","Bicycle","https://kisumu-drawings.s3-us-west-1.amazonaws.com/27-006.png","3","Car","27-006.png"
"","3412","image-button-response","50","null","413707","685c6ca90f751d3aae6b1794","685c6e274bd9c83d8500c2d4","66cbd449c6029aaeeafcb71f","false","false","Bicycle","https://kisumu-drawings.s3-us-west-1.amazonaws.com/69-014.png","3","Car","69-014.png"
"","2043","image-button-response","51","null","416273","685c6ca90f751d3aae6b1794","685c6e274bd9c83d8500c2d4","66cbd449c6029aaeeafcb71f","false","false","Chair","https://kisumu-drawings.s3-us-west-1.amazonaws.com/69-006.png","5","Chair","69-006.png"
"","19585","image-button-response","52","null","436376","685c6ca90f751d3aae6b1794","685c6e274bd9c83d8500c2d4","66cbd449c6029aaeeafcb71f","false","false","House","https://kisumu-drawings.s3-us-west-1.amazonaws.com/29-011.png","6","Cup","29-011.png"
"","4173","image-button-response","53","null","441067","685c6ca90f751d3aae6b1794","685c6e274bd9c83d8500c2d4","66cbd449c6029aaeeafcb71f","false","false","Cat","https://kisumu-drawings.s3-us-west-1.amazonaws.com/109-005.png","4","Cat","109-005.png"
"","6804","image-button-response","54","null","448385","685c6ca90f751d3aae6b1794","685c6e274bd9c83d8500c2d4","66cbd449c6029aaeeafcb71f","false","false","Cat","https://kisumu-drawings.s3-us-west-1.amazonaws.com/69-005.png","4","Cat","69-005.png"
"","10700","image-button-response","55","null","459606","685c6ca90f751d3aae6b1794","685c6e274bd9c83d8500c2d4","66cbd449c6029aaeeafcb71f","false","false","Watch","https://kisumu-drawings.s3-us-west-1.amazonaws.com/8-009.png","11","Watch","8-009.png"
"","4637","image-button-response","56","null","464762","685c6ca90f751d3aae6b1794","685c6e274bd9c83d8500c2d4","66cbd449c6029aaeeafcb71f","false","false","Cup","https://kisumu-drawings.s3-us-west-1.amazonaws.com/52-008.png","6","Cup","52-008.png"
"","2648","image-button-response","57","null","467926","685c6ca90f751d3aae6b1794","685c6e274bd9c83d8500c2d4","66cbd449c6029aaeeafcb71f","false","false","Bird","https://kisumu-drawings.s3-us-west-1.amazonaws.com/63-011.png","2","Bird","63-011.png"
"","5787","image-button-response","58","null","474234","685c6ca90f751d3aae6b1794","685c6e274bd9c83d8500c2d4","66cbd449c6029aaeeafcb71f","false","false","Bird","https://kisumu-drawings.s3-us-west-1.amazonaws.com/94-013.png","4","Cat","94-013.png"
"","8392","image-button-response","59","null","483147","685c6ca90f751d3aae6b1794","685c6e274bd9c83d8500c2d4","66cbd449c6029aaeeafcb71f","false","false","Bicycle","https://kisumu-drawings.s3-us-west-1.amazonaws.com/51-007.png","1","Bicycle","51-007.png"
"","4995","image-button-response","60","null","488654","685c6ca90f751d3aae6b1794","685c6e274bd9c83d8500c2d4","66cbd449c6029aaeeafcb71f","false","false","Chair","https://kisumu-drawings.s3-us-west-1.amazonaws.com/109-010.png","5","Chair","109-010.png"
"","6715","image-button-response","61","null","495889","685c6ca90f751d3aae6b1794","685c6e274bd9c83d8500c2d4","66cbd449c6029aaeeafcb71f","false","false","Rabbit","https://kisumu-drawings.s3-us-west-1.amazonaws.com/95-016.png","4","Cat","95-016.png"
"","3824","image-button-response","62","null","500232","685c6ca90f751d3aae6b1794","685c6e274bd9c83d8500c2d4","66cbd449c6029aaeeafcb71f","false","false","Cup","https://kisumu-drawings.s3-us-west-1.amazonaws.com/69-007.png","6","Cup","69-007.png"
"","11342","image-button-response","63","null","512098","685c6ca90f751d3aae6b1794","685c6e274bd9c83d8500c2d4","66cbd449c6029aaeeafcb71f","false","false","Car","https://kisumu-drawings.s3-us-west-1.amazonaws.com/52-006.png","3","Car","52-006.png"
"","3438","image-button-response","64","null","516048","685c6ca90f751d3aae6b1794","685c6e274bd9c83d8500c2d4","66cbd449c6029aaeeafcb71f","false","false","Hat","https://kisumu-drawings.s3-us-west-1.amazonaws.com/95-005.png","7","Hat","95-005.png"
"","1802","image-button-response","65","null","518363","685c6ca90f751d3aae6b1794","685c6e274bd9c83d8500c2d4","66cbd449c6029aaeeafcb71f","true","false","airplane","stimuli/catch_trials/0_airplane_catch.jpg","0","Airplane",""
"","3704","image-button-response","66","null","522595","685c6ca90f751d3aae6b1794","685c6e274bd9c83d8500c2d4","66cbd449c6029aaeeafcb71f","false","false","Cup","https://kisumu-drawings.s3-us-west-1.amazonaws.com/28-010.png","6","Cup","28-010.png"
"","15143","image-button-response","67","null","538261","685c6ca90f751d3aae6b1794","685c6e274bd9c83d8500c2d4","66cbd449c6029aaeeafcb71f","false","false","Car","https://kisumu-drawings.s3-us-west-1.amazonaws.com/95-007.png","3","Car","95-007.png"
"","9599","image-button-response","68","null","548380","685c6ca90f751d3aae6b1794","685c6e274bd9c83d8500c2d4","66cbd449c6029aaeeafcb71f","false","false","Car","https://kisumu-drawings.s3-us-west-1.amazonaws.com/7-006.png","5","Chair","7-006.png"
"","8862","image-button-response","69","null","557757","685c6ca90f751d3aae6b1794","685c6e274bd9c83d8500c2d4","66cbd449c6029aaeeafcb71f","false","false","Car","https://kisumu-drawings.s3-us-west-1.amazonaws.com/28-007.png","3","Car","28-007.png"
"","4563","image-button-response","70","null","562828","685c6ca90f751d3aae6b1794","685c6e274bd9c83d8500c2d4","66cbd449c6029aaeeafcb71f","false","false","Airplane","https://kisumu-drawings.s3-us-west-1.amazonaws.com/69-013.png","0","Airplane","69-013.png"
"","9836","image-button-response","71","null","573189","685c6ca90f751d3aae6b1794","685c6e274bd9c83d8500c2d4","66cbd449c6029aaeeafcb71f","false","false","Airplane","https://kisumu-drawings.s3-us-west-1.amazonaws.com/95-009.png","0","Airplane","95-009.png"
"","6261","image-button-response","72","null","579970","685c6ca90f751d3aae6b1794","685c6e274bd9c83d8500c2d4","66cbd449c6029aaeeafcb71f","false","false","Bicycle","https://kisumu-drawings.s3-us-west-1.amazonaws.com/7-008.png","3","Car","7-008.png"
"","3903","image-button-response","73","null","584389","685c6ca90f751d3aae6b1794","685c6e274bd9c83d8500c2d4","66cbd449c6029aaeeafcb71f","false","false","Bicycle","https://kisumu-drawings.s3-us-west-1.amazonaws.com/109-016.png","1","Bicycle","109-016.png"
"","5972","image-button-response","74","null","590875","685c6ca90f751d3aae6b1794","685c6e274bd9c83d8500c2d4","66cbd449c6029aaeeafcb71f","false","false","House","https://kisumu-drawings.s3-us-west-1.amazonaws.com/96-007.png","8","House","96-007.png"
"","22300","image-button-response","75","null","613699","685c6ca90f751d3aae6b1794","685c6e274bd9c83d8500c2d4","66cbd449c6029aaeeafcb71f","false","false","Hat","https://kisumu-drawings.s3-us-west-1.amazonaws.com/69-008.png","8","House","69-008.png"
