"view_history","rt","trial_type","trial_index","plugin_version","time_elapsed","study_id","session_id","participant_id","catch_trial","prep_trial","sketcher_category","stimulus","response","response_category","sketch_id"
"[{""page_index"":0,""viewing_time"":7304},{""page_index"":1,""viewing_time"":5798},{""page_index"":2,""viewing_time"":6546},{""page_index"":3,""viewing_time"":4492}]","24139","instructions","0","null","24147","685c6ca90f751d3aae6b1794","685c6e2beb83ce66e5fa0e46","66d36598db306c67c37bde18","","","","","","",""
"","2811","image-button-response","1","null","27961","685c6ca90f751d3aae6b1794","685c6e2beb83ce66e5fa0e46","66d36598db306c67c37bde18","false","true","car","stimuli/prep_trials/1_car_prep.png","3","Car",""
"","3308","image-button-response","2","null","31771","685c6ca90f751d3aae6b1794","685c6e2beb83ce66e5fa0e46","66d36598db306c67c37bde18","false","true","cat","stimuli/prep_trials/0_cat_prep.jpg","4","Cat",""
"","14612","image-button-response","3","null","46887","685c6ca90f751d3aae6b1794","685c6e2beb83ce66e5fa0e46","66d36598db306c67c37bde18","false","false","Airplane","https://kisumu-drawings.s3-us-west-1.amazonaws.com/63-009.png","0","Airplane","63-009.png"
"","14764","image-button-response","4","null","62157","685c6ca90f751d3aae6b1794","685c6e2beb83ce66e5fa0e46","66d36598db306c67c37bde18","false","false","Airplane","https://kisumu-drawings.s3-us-west-1.amazonaws.com/7-009.png","7","Hat","7-009.png"
"","6939","image-button-response","5","null","69605","685c6ca90f751d3aae6b1794","685c6e2beb83ce66e5fa0e46","66d36598db306c67c37bde18","false","false","Cat","https://kisumu-drawings.s3-us-west-1.amazonaws.com/108-015.png","4","Cat","108-015.png"
"","2510","image-button-response","6","null","72628","685c6ca90f751d3aae6b1794","685c6e2beb83ce66e5fa0e46","66d36598db306c67c37bde18","true","false","airplane","stimuli/catch_trials/0_airplane_catch.jpg","0","Airplane",""
"","4973","image-button-response","7","null","78103","685c6ca90f751d3aae6b1794","685c6e2beb83ce66e5fa0e46","66d36598db306c67c37bde18","false","false","Rabbit","https://kisumu-drawings.s3-us-west-1.amazonaws.com/63-010.png","4","Cat","63-010.png"
"","21295","image-button-response","8","null","99900","685c6ca90f751d3aae6b1794","685c6e2beb83ce66e5fa0e46","66d36598db306c67c37bde18","false","false","Bird","https://kisumu-drawings.s3-us-west-1.amazonaws.com/51-008.png","0","Airplane","51-008.png"
"","5686","image-button-response","9","null","106087","685c6ca90f751d3aae6b1794","685c6e2beb83ce66e5fa0e46","66d36598db306c67c37bde18","false","false","Rabbit","https://kisumu-drawings.s3-us-west-1.amazonaws.com/51-012.png","4","Cat","51-012.png"
"","6253","image-button-response","10","null","112846","685c6ca90f751d3aae6b1794","685c6e2beb83ce66e5fa0e46","66d36598db306c67c37bde18","false","false","Airplane","https://kisumu-drawings.s3-us-west-1.amazonaws.com/51-006.png","0","Airplane","51-006.png"
"","12516","image-button-response","11","null","125864","685c6ca90f751d3aae6b1794","685c6e2beb83ce66e5fa0e46","66d36598db306c67c37bde18","false","false","Watch","https://kisumu-drawings.s3-us-west-1.amazonaws.com/7-016.png","11","Watch","7-016.png"
"","8555","image-button-response","12","null","134920","685c6ca90f751d3aae6b1794","685c6e2beb83ce66e5fa0e46","66d36598db306c67c37bde18","false","false","Rabbit","https://kisumu-drawings.s3-us-west-1.amazonaws.com/94-008.png","9","Rabbit","94-008.png"
"","4784","image-button-response","13","null","140214","685c6ca90f751d3aae6b1794","685c6e2beb83ce66e5fa0e46","66d36598db306c67c37bde18","false","false","Bird","https://kisumu-drawings.s3-us-west-1.amazonaws.com/63-011.png","2","Bird","63-011.png"
"","5075","image-button-response","14","null","145804","685c6ca90f751d3aae6b1794","685c6e2beb83ce66e5fa0e46","66d36598db306c67c37bde18","false","false","Bicycle","https://kisumu-drawings.s3-us-west-1.amazonaws.com/94-012.png","1","Bicycle","94-012.png"
"","4758","image-button-response","15","null","151063","685c6ca90f751d3aae6b1794","685c6e2beb83ce66e5fa0e46","66d36598db306c67c37bde18","false","false","Tree","https://kisumu-drawings.s3-us-west-1.amazonaws.com/108-012.png","10","Tree","108-012.png"
"","4793","image-button-response","16","null","156358","685c6ca90f751d3aae6b1794","685c6e2beb83ce66e5fa0e46","66d36598db306c67c37bde18","false","false","Tree","https://kisumu-drawings.s3-us-west-1.amazonaws.com/63-016.png","10","Tree","63-016.png"
"","8984","image-button-response","17","null","165843","685c6ca90f751d3aae6b1794","685c6e2beb83ce66e5fa0e46","66d36598db306c67c37bde18","false","false","Chair","https://kisumu-drawings.s3-us-west-1.amazonaws.com/94-010.png","5","Chair","94-010.png"
"","10818","image-button-response","18","null","177164","685c6ca90f751d3aae6b1794","685c6e2beb83ce66e5fa0e46","66d36598db306c67c37bde18","false","false","Hat","https://kisumu-drawings.s3-us-west-1.amazonaws.com/94-015.png","7","Hat","94-015.png"
"","6448","image-button-response","19","null","184113","685c6ca90f751d3aae6b1794","685c6e2beb83ce66e5fa0e46","66d36598db306c67c37bde18","false","false","Cup","https://kisumu-drawings.s3-us-west-1.amazonaws.com/7-012.png","6","Cup","7-012.png"
"","6921","image-button-response","20","null","191543","685c6ca90f751d3aae6b1794","685c6e2beb83ce66e5fa0e46","66d36598db306c67c37bde18","false","false","Bicycle","https://kisumu-drawings.s3-us-west-1.amazonaws.com/108-016.png","1","Bicycle","108-016.png"
"","5165","image-button-response","21","null","197216","685c6ca90f751d3aae6b1794","685c6e2beb83ce66e5fa0e46","66d36598db306c67c37bde18","false","false","Cup","https://kisumu-drawings.s3-us-west-1.amazonaws.com/27-014.png","6","Cup","27-014.png"
"","4556","image-button-response","22","null","202274","685c6ca90f751d3aae6b1794","685c6e2beb83ce66e5fa0e46","66d36598db306c67c37bde18","false","false","Watch","https://kisumu-drawings.s3-us-west-1.amazonaws.com/94-006.png","11","Watch","94-006.png"
"","19715","image-button-response","23","null","222491","685c6ca90f751d3aae6b1794","685c6e2beb83ce66e5fa0e46","66d36598db306c67c37bde18","false","false","Cat","https://kisumu-drawings.s3-us-west-1.amazonaws.com/7-005.png","5","Chair","7-005.png"
"","5626","image-button-response","24","null","228619","685c6ca90f751d3aae6b1794","685c6e2beb83ce66e5fa0e46","66d36598db306c67c37bde18","false","false","Hat","https://kisumu-drawings.s3-us-west-1.amazonaws.com/63-014.png","11","Watch","63-014.png"
"","4547","image-button-response","25","null","233668","685c6ca90f751d3aae6b1794","685c6e2beb83ce66e5fa0e46","66d36598db306c67c37bde18","false","false","Chair","https://kisumu-drawings.s3-us-west-1.amazonaws.com/51-009.png","5","Chair","51-009.png"
"","5310","image-button-response","26","null","239480","685c6ca90f751d3aae6b1794","685c6e2beb83ce66e5fa0e46","66d36598db306c67c37bde18","false","false","Chair","https://kisumu-drawings.s3-us-west-1.amazonaws.com/7-007.png","5","Chair","7-007.png"
"","3941","image-button-response","27","null","243929","685c6ca90f751d3aae6b1794","685c6e2beb83ce66e5fa0e46","66d36598db306c67c37bde18","false","false","Car","https://kisumu-drawings.s3-us-west-1.amazonaws.com/63-007.png","3","Car","63-007.png"
"","2726","image-button-response","28","null","247157","685c6ca90f751d3aae6b1794","685c6e2beb83ce66e5fa0e46","66d36598db306c67c37bde18","false","false","Car","https://kisumu-drawings.s3-us-west-1.amazonaws.com/108-013.png","3","Car","108-013.png"
"","4631","image-button-response","29","null","252297","685c6ca90f751d3aae6b1794","685c6e2beb83ce66e5fa0e46","66d36598db306c67c37bde18","false","false","Bird","https://kisumu-drawings.s3-us-west-1.amazonaws.com/26-008.png","9","Rabbit","26-008.png"
"","2031","image-button-response","30","null","254830","685c6ca90f751d3aae6b1794","685c6e2beb83ce66e5fa0e46","66d36598db306c67c37bde18","false","false","Watch","https://kisumu-drawings.s3-us-west-1.amazonaws.com/63-005.png","11","Watch","63-005.png"
"","2875","image-button-response","31","null","258206","685c6ca90f751d3aae6b1794","685c6e2beb83ce66e5fa0e46","66d36598db306c67c37bde18","false","false","Cat","https://kisumu-drawings.s3-us-west-1.amazonaws.com/63-008.png","4","Cat","63-008.png"
"","7264","image-button-response","32","null","265972","685c6ca90f751d3aae6b1794","685c6e2beb83ce66e5fa0e46","66d36598db306c67c37bde18","false","false","Hat","https://kisumu-drawings.s3-us-west-1.amazonaws.com/6-005.png","7","Hat","6-005.png"
"","2661","image-button-response","33","null","269139","685c6ca90f751d3aae6b1794","685c6e2beb83ce66e5fa0e46","66d36598db306c67c37bde18","false","false","Watch","https://kisumu-drawings.s3-us-west-1.amazonaws.com/27-013.png","11","Watch","27-013.png"
"","2668","image-button-response","34","null","272308","685c6ca90f751d3aae6b1794","685c6e2beb83ce66e5fa0e46","66d36598db306c67c37bde18","false","false","Watch","https://kisumu-drawings.s3-us-west-1.amazonaws.com/108-010.png","11","Watch","108-010.png"
"","2430","image-button-response","35","null","275243","685c6ca90f751d3aae6b1794","685c6e2beb83ce66e5fa0e46","66d36598db306c67c37bde18","false","false","Car","https://kisumu-drawings.s3-us-west-1.amazonaws.com/27-016.png","3","Car","27-016.png"
"","3410","image-button-response","36","null","279155","685c6ca90f751d3aae6b1794","685c6e2beb83ce66e5fa0e46","66d36598db306c67c37bde18","false","false","Cat","https://kisumu-drawings.s3-us-west-1.amazonaws.com/27-008.png","4","Cat","27-008.png"
"","4434","image-button-response","37","null","284091","685c6ca90f751d3aae6b1794","685c6e2beb83ce66e5fa0e46","66d36598db306c67c37bde18","false","false","Bird","https://kisumu-drawings.s3-us-west-1.amazonaws.com/108-011.png","2","Bird","108-011.png"
"","7017","image-button-response","38","null","291610","685c6ca90f751d3aae6b1794","685c6e2beb83ce66e5fa0e46","66d36598db306c67c37bde18","false","false","Bird","https://kisumu-drawings.s3-us-west-1.amazonaws.com/94-013.png","4","Cat","94-013.png"
"","4528","image-button-response","39","null","296639","685c6ca90f751d3aae6b1794","685c6e2beb83ce66e5fa0e46","66d36598db306c67c37bde18","false","false","Rabbit","https://kisumu-drawings.s3-us-west-1.amazonaws.com/7-011.png","6","Cup","7-011.png"
"","8857","image-button-response","40","null","305999","685c6ca90f751d3aae6b1794","685c6e2beb83ce66e5fa0e46","66d36598db306c67c37bde18","false","false","Hat","https://kisumu-drawings.s3-us-west-1.amazonaws.com/51-011.png","7","Hat","51-011.png"
"","7494","image-button-response","41","null","313995","685c6ca90f751d3aae6b1794","685c6e2beb83ce66e5fa0e46","66d36598db306c67c37bde18","false","false","Bird","https://kisumu-drawings.s3-us-west-1.amazonaws.com/7-010.png","6","Cup","7-010.png"
"","6268","image-button-response","42","null","320764","685c6ca90f751d3aae6b1794","685c6e2beb83ce66e5fa0e46","66d36598db306c67c37bde18","false","false","Bicycle","https://kisumu-drawings.s3-us-west-1.amazonaws.com/7-008.png","3","Car","7-008.png"
"","2747","image-button-response","43","null","324017","685c6ca90f751d3aae6b1794","685c6e2beb83ce66e5fa0e46","66d36598db306c67c37bde18","false","false","Cup","https://kisumu-drawings.s3-us-west-1.amazonaws.com/63-015.png","6","Cup","63-015.png"
"","4121","image-button-response","44","null","328639","685c6ca90f751d3aae6b1794","685c6e2beb83ce66e5fa0e46","66d36598db306c67c37bde18","false","false","Cat","https://kisumu-drawings.s3-us-west-1.amazonaws.com/51-016.png","4","Cat","51-016.png"
"","3905","image-button-response","45","null","333048","685c6ca90f751d3aae6b1794","685c6e2beb83ce66e5fa0e46","66d36598db306c67c37bde18","false","false","Tree","https://kisumu-drawings.s3-us-west-1.amazonaws.com/27-012.png","9","Rabbit","27-012.png"
"","5782","image-button-response","46","null","339331","685c6ca90f751d3aae6b1794","685c6e2beb83ce66e5fa0e46","66d36598db306c67c37bde18","false","false","Cat","https://kisumu-drawings.s3-us-west-1.amazonaws.com/94-009.png","4","Cat","94-009.png"
"","6439","image-button-response","47","null","346272","685c6ca90f751d3aae6b1794","685c6e2beb83ce66e5fa0e46","66d36598db306c67c37bde18","false","false","Bicycle","https://kisumu-drawings.s3-us-west-1.amazonaws.com/27-006.png","6","Cup","27-006.png"
"","9145","image-button-response","48","null","355918","685c6ca90f751d3aae6b1794","685c6e2beb83ce66e5fa0e46","66d36598db306c67c37bde18","false","false","Watch","https://kisumu-drawings.s3-us-west-1.amazonaws.com/51-014.png","11","Watch","51-014.png"
"","3076","image-button-response","49","null","359498","685c6ca90f751d3aae6b1794","685c6e2beb83ce66e5fa0e46","66d36598db306c67c37bde18","false","false","Cup","https://kisumu-drawings.s3-us-west-1.amazonaws.com/51-010.png","6","Cup","51-010.png"
"","2797","image-button-response","50","null","362796","685c6ca90f751d3aae6b1794","685c6e2beb83ce66e5fa0e46","66d36598db306c67c37bde18","false","false","Chair","https://kisumu-drawings.s3-us-west-1.amazonaws.com/108-007.png","5","Chair","108-007.png"
"","3865","image-button-response","51","null","367162","685c6ca90f751d3aae6b1794","685c6e2beb83ce66e5fa0e46","66d36598db306c67c37bde18","false","false","House","https://kisumu-drawings.s3-us-west-1.amazonaws.com/94-016.png","8","House","94-016.png"
"","3738","image-button-response","52","null","371406","685c6ca90f751d3aae6b1794","685c6e2beb83ce66e5fa0e46","66d36598db306c67c37bde18","false","false","Cup","https://kisumu-drawings.s3-us-west-1.amazonaws.com/94-005.png","6","Cup","94-005.png"
"","3091","image-button-response","53","null","375006","685c6ca90f751d3aae6b1794","685c6e2beb83ce66e5fa0e46","66d36598db306c67c37bde18","false","false","Hat","https://kisumu-drawings.s3-us-west-1.amazonaws.com/108-006.png","7","Hat","108-006.png"
"","4540","image-button-response","54","null","380057","685c6ca90f751d3aae6b1794","685c6e2beb83ce66e5fa0e46","66d36598db306c67c37bde18","false","false","Tree","https://kisumu-drawings.s3-us-west-1.amazonaws.com/7-015.png","5","Chair","7-015.png"
"","2760","image-button-response","55","null","383318","685c6ca90f751d3aae6b1794","685c6e2beb83ce66e5fa0e46","66d36598db306c67c37bde18","false","false","Bicycle","https://kisumu-drawings.s3-us-west-1.amazonaws.com/63-012.png","1","Bicycle","63-012.png"
"","2731","image-button-response","56","null","386550","685c6ca90f751d3aae6b1794","685c6e2beb83ce66e5fa0e46","66d36598db306c67c37bde18","false","false","Chair","https://kisumu-drawings.s3-us-west-1.amazonaws.com/27-011.png","6","Cup","27-011.png"
"","11434","image-button-response","57","null","398486","685c6ca90f751d3aae6b1794","685c6e2beb83ce66e5fa0e46","66d36598db306c67c37bde18","false","false","Bicycle","https://kisumu-drawings.s3-us-west-1.amazonaws.com/51-007.png","11","Watch","51-007.png"
"","3018","image-button-response","58","null","402009","685c6ca90f751d3aae6b1794","685c6e2beb83ce66e5fa0e46","66d36598db306c67c37bde18","false","false","Tree","https://kisumu-drawings.s3-us-west-1.amazonaws.com/51-013.png","10","Tree","51-013.png"
"","2466","image-button-response","59","null","404979","685c6ca90f751d3aae6b1794","685c6e2beb83ce66e5fa0e46","66d36598db306c67c37bde18","false","false","Hat","https://kisumu-drawings.s3-us-west-1.amazonaws.com/26-011.png","6","Cup","26-011.png"
"","3606","image-button-response","60","null","409086","685c6ca90f751d3aae6b1794","685c6e2beb83ce66e5fa0e46","66d36598db306c67c37bde18","false","false","Car","https://kisumu-drawings.s3-us-west-1.amazonaws.com/94-014.png","3","Car","94-014.png"
"","2302","image-button-response","61","null","411903","685c6ca90f751d3aae6b1794","685c6e2beb83ce66e5fa0e46","66d36598db306c67c37bde18","false","false","Car","https://kisumu-drawings.s3-us-west-1.amazonaws.com/51-015.png","3","Car","51-015.png"
"","3512","image-button-response","62","null","415930","685c6ca90f751d3aae6b1794","685c6e2beb83ce66e5fa0e46","66d36598db306c67c37bde18","false","false","Tree","https://kisumu-drawings.s3-us-west-1.amazonaws.com/94-007.png","10","Tree","94-007.png"
"","2887","image-button-response","63","null","419319","685c6ca90f751d3aae6b1794","685c6e2beb83ce66e5fa0e46","66d36598db306c67c37bde18","false","false","House","https://kisumu-drawings.s3-us-west-1.amazonaws.com/7-013.png","8","House","7-013.png"
"","2806","image-button-response","64","null","422628","685c6ca90f751d3aae6b1794","685c6e2beb83ce66e5fa0e46","66d36598db306c67c37bde18","false","false","House","https://kisumu-drawings.s3-us-west-1.amazonaws.com/108-008.png","8","House","108-008.png"
"","4320","image-button-response","65","null","427458","685c6ca90f751d3aae6b1794","685c6e2beb83ce66e5fa0e46","66d36598db306c67c37bde18","false","false","Rabbit","https://kisumu-drawings.s3-us-west-1.amazonaws.com/108-009.png","4","Cat","108-009.png"
"","8493","image-button-response","66","null","436455","685c6ca90f751d3aae6b1794","685c6e2beb83ce66e5fa0e46","66d36598db306c67c37bde18","false","false","Airplane","https://kisumu-drawings.s3-us-west-1.amazonaws.com/94-011.png","0","Airplane","94-011.png"
"","3144","image-button-response","67","null","440100","685c6ca90f751d3aae6b1794","685c6e2beb83ce66e5fa0e46","66d36598db306c67c37bde18","false","false","House","https://kisumu-drawings.s3-us-west-1.amazonaws.com/51-005.png","8","House","51-005.png"
"","2180","image-button-response","68","null","442786","685c6ca90f751d3aae6b1794","685c6e2beb83ce66e5fa0e46","66d36598db306c67c37bde18","false","false","Chair","https://kisumu-drawings.s3-us-west-1.amazonaws.com/63-013.png","5","Chair","63-013.png"
"","4772","image-button-response","69","null","448060","685c6ca90f751d3aae6b1794","685c6e2beb83ce66e5fa0e46","66d36598db306c67c37bde18","false","false","House","https://kisumu-drawings.s3-us-west-1.amazonaws.com/27-009.png","8","House","27-009.png"
"","4559","image-button-response","70","null","453127","685c6ca90f751d3aae6b1794","685c6e2beb83ce66e5fa0e46","66d36598db306c67c37bde18","false","false","Airplane","https://kisumu-drawings.s3-us-west-1.amazonaws.com/108-014.png","0","Airplane","108-014.png"
"","12532","image-button-response","71","null","466170","685c6ca90f751d3aae6b1794","685c6e2beb83ce66e5fa0e46","66d36598db306c67c37bde18","false","false","Car","https://kisumu-drawings.s3-us-west-1.amazonaws.com/7-006.png","3","Car","7-006.png"
"","4541","image-button-response","72","null","471223","685c6ca90f751d3aae6b1794","685c6e2beb83ce66e5fa0e46","66d36598db306c67c37bde18","false","false","Rabbit","https://kisumu-drawings.s3-us-west-1.amazonaws.com/27-010.png","9","Rabbit","27-010.png"
"","2064","image-button-response","73","null","473788","685c6ca90f751d3aae6b1794","685c6e2beb83ce66e5fa0e46","66d36598db306c67c37bde18","false","false","House","https://kisumu-drawings.s3-us-west-1.amazonaws.com/63-006.png","8","House","63-006.png"
"","2701","image-button-response","74","null","476991","685c6ca90f751d3aae6b1794","685c6e2beb83ce66e5fa0e46","66d36598db306c67c37bde18","false","false","Airplane","https://kisumu-drawings.s3-us-west-1.amazonaws.com/27-005.png","0","Airplane","27-005.png"
"","2936","image-button-response","75","null","480435","685c6ca90f751d3aae6b1794","685c6e2beb83ce66e5fa0e46","66d36598db306c67c37bde18","false","false","Cup","https://kisumu-drawings.s3-us-west-1.amazonaws.com/108-005.png","6","Cup","108-005.png"
