"view_history","rt","trial_type","trial_index","plugin_version","time_elapsed","study_id","session_id","participant_id","catch_trial","prep_trial","sketcher_category","stimulus","response","response_category","sketch_id"
"[{""page_index"":0,""viewing_time"":20993},{""page_index"":1,""viewing_time"":2967},{""page_index"":2,""viewing_time"":2983},{""page_index"":3,""viewing_time"":3945}]","30888","instructions","0","null","30895","685c6ca90f751d3aae6b1794","685c6e1fee038fbffbb57bb8","66d62734985c822b67585824","","","","","","",""
"","3435","image-button-response","1","null","35343","685c6ca90f751d3aae6b1794","685c6e1fee038fbffbb57bb8","66d62734985c822b67585824","false","true","car","stimuli/prep_trials/1_car_prep.png","3","Car",""
"","2534","image-button-response","2","null","38383","685c6ca90f751d3aae6b1794","685c6e1fee038fbffbb57bb8","66d62734985c822b67585824","false","true","cat","stimuli/prep_trials/0_cat_prep.jpg","4","Cat",""
"","5561","image-button-response","3","null","44447","685c6ca90f751d3aae6b1794","685c6e1fee038fbffbb57bb8","66d62734985c822b67585824","false","false","Tree","https://kisumu-drawings.s3-us-west-1.amazonaws.com/108-012.png","10","Tree","108-012.png"
"","10002","image-button-response","4","null","54951","685c6ca90f751d3aae6b1794","685c6e1fee038fbffbb57bb8","66d62734985c822b67585824","false","false","Airplane","https://kisumu-drawings.s3-us-west-1.amazonaws.com/51-006.png","11","Watch","51-006.png"
"","6457","image-button-response","5","null","61911","685c6ca90f751d3aae6b1794","685c6e1fee038fbffbb57bb8","66d62734985c822b67585824","false","false","Airplane","https://kisumu-drawings.s3-us-west-1.amazonaws.com/108-014.png","0","Airplane","108-014.png"
"","13954","image-button-response","6","null","76375","685c6ca90f751d3aae6b1794","685c6e1fee038fbffbb57bb8","66d62734985c822b67585824","false","false","Chair","https://kisumu-drawings.s3-us-west-1.amazonaws.com/7-007.png","7","Hat","7-007.png"
"","7114","image-button-response","7","null","83998","685c6ca90f751d3aae6b1794","685c6e1fee038fbffbb57bb8","66d62734985c822b67585824","false","false","Watch","https://kisumu-drawings.s3-us-west-1.amazonaws.com/94-006.png","11","Watch","94-006.png"
"","6463","image-button-response","8","null","90966","685c6ca90f751d3aae6b1794","685c6e1fee038fbffbb57bb8","66d62734985c822b67585824","false","false","Bicycle","https://kisumu-drawings.s3-us-west-1.amazonaws.com/108-016.png","1","Bicycle","108-016.png"
"","8223","image-button-response","9","null","99695","685c6ca90f751d3aae6b1794","685c6e1fee038fbffbb57bb8","66d62734985c822b67585824","false","false","Tree","https://kisumu-drawings.s3-us-west-1.amazonaws.com/7-015.png","7","Hat","7-015.png"
"","3758","image-button-response","10","null","103959","685c6ca90f751d3aae6b1794","685c6e1fee038fbffbb57bb8","66d62734985c822b67585824","false","false","Bicycle","https://kisumu-drawings.s3-us-west-1.amazonaws.com/94-012.png","1","Bicycle","94-012.png"
"","10774","image-button-response","11","null","115239","685c6ca90f751d3aae6b1794","685c6e1fee038fbffbb57bb8","66d62734985c822b67585824","false","false","Cat","https://kisumu-drawings.s3-us-west-1.amazonaws.com/7-005.png","5","Chair","7-005.png"
"","4654","image-button-response","12","null","120398","685c6ca90f751d3aae6b1794","685c6e1fee038fbffbb57bb8","66d62734985c822b67585824","false","false","Tree","https://kisumu-drawings.s3-us-west-1.amazonaws.com/94-007.png","10","Tree","94-007.png"
"","3921","image-button-response","13","null","124823","685c6ca90f751d3aae6b1794","685c6e1fee038fbffbb57bb8","66d62734985c822b67585824","false","false","Watch","https://kisumu-drawings.s3-us-west-1.amazonaws.com/63-005.png","11","Watch","63-005.png"
"","4536","image-button-response","14","null","129870","685c6ca90f751d3aae6b1794","685c6e1fee038fbffbb57bb8","66d62734985c822b67585824","false","false","Cup","https://kisumu-drawings.s3-us-west-1.amazonaws.com/63-015.png","6","Cup","63-015.png"
"","7936","image-button-response","15","null","138320","685c6ca90f751d3aae6b1794","685c6e1fee038fbffbb57bb8","66d62734985c822b67585824","false","false","Bird","https://kisumu-drawings.s3-us-west-1.amazonaws.com/51-008.png","11","Watch","51-008.png"
"","7559","image-button-response","16","null","146390","685c6ca90f751d3aae6b1794","685c6e1fee038fbffbb57bb8","66d62734985c822b67585824","false","false","Car","https://kisumu-drawings.s3-us-west-1.amazonaws.com/63-007.png","3","Car","63-007.png"
"","9028","image-button-response","17","null","155926","685c6ca90f751d3aae6b1794","685c6e1fee038fbffbb57bb8","66d62734985c822b67585824","false","false","Chair","https://kisumu-drawings.s3-us-west-1.amazonaws.com/94-010.png","5","Chair","94-010.png"
"","7121","image-button-response","18","null","163551","685c6ca90f751d3aae6b1794","685c6e1fee038fbffbb57bb8","66d62734985c822b67585824","false","false","Hat","https://kisumu-drawings.s3-us-west-1.amazonaws.com/51-011.png","1","Bicycle","51-011.png"
"","2914","image-button-response","19","null","166967","685c6ca90f751d3aae6b1794","685c6e1fee038fbffbb57bb8","66d62734985c822b67585824","false","false","House","https://kisumu-drawings.s3-us-west-1.amazonaws.com/63-006.png","8","House","63-006.png"
"","2470","image-button-response","20","null","169951","685c6ca90f751d3aae6b1794","685c6e1fee038fbffbb57bb8","66d62734985c822b67585824","false","false","Car","https://kisumu-drawings.s3-us-west-1.amazonaws.com/27-016.png","3","Car","27-016.png"
"","3450","image-button-response","21","null","173903","685c6ca90f751d3aae6b1794","685c6e1fee038fbffbb57bb8","66d62734985c822b67585824","false","false","Chair","https://kisumu-drawings.s3-us-west-1.amazonaws.com/108-007.png","5","Chair","108-007.png"
"","7850","image-button-response","22","null","182254","685c6ca90f751d3aae6b1794","685c6e1fee038fbffbb57bb8","66d62734985c822b67585824","false","false","Hat","https://kisumu-drawings.s3-us-west-1.amazonaws.com/94-015.png","8","House","94-015.png"
"","2955","image-button-response","23","null","185727","685c6ca90f751d3aae6b1794","685c6e1fee038fbffbb57bb8","66d62734985c822b67585824","true","false","airplane","stimuli/catch_trials/0_airplane_catch.jpg","0","Airplane",""
"","5349","image-button-response","24","null","191582","685c6ca90f751d3aae6b1794","685c6e1fee038fbffbb57bb8","66d62734985c822b67585824","false","false","Car","https://kisumu-drawings.s3-us-west-1.amazonaws.com/51-015.png","3","Car","51-015.png"
"","6565","image-button-response","25","null","198664","685c6ca90f751d3aae6b1794","685c6e1fee038fbffbb57bb8","66d62734985c822b67585824","false","false","Cup","https://kisumu-drawings.s3-us-west-1.amazonaws.com/27-014.png","5","Chair","27-014.png"
"","6670","image-button-response","26","null","205847","685c6ca90f751d3aae6b1794","685c6e1fee038fbffbb57bb8","66d62734985c822b67585824","false","false","Watch","https://kisumu-drawings.s3-us-west-1.amazonaws.com/7-016.png","2","Bird","7-016.png"
"","5977","image-button-response","27","null","212327","685c6ca90f751d3aae6b1794","685c6e1fee038fbffbb57bb8","66d62734985c822b67585824","false","false","Hat","https://kisumu-drawings.s3-us-west-1.amazonaws.com/108-006.png","8","House","108-006.png"
"","2474","image-button-response","28","null","215318","685c6ca90f751d3aae6b1794","685c6e1fee038fbffbb57bb8","66d62734985c822b67585824","false","false","House","https://kisumu-drawings.s3-us-west-1.amazonaws.com/108-008.png","8","House","108-008.png"
"","4646","image-button-response","29","null","220479","685c6ca90f751d3aae6b1794","685c6e1fee038fbffbb57bb8","66d62734985c822b67585824","false","false","Cat","https://kisumu-drawings.s3-us-west-1.amazonaws.com/63-008.png","4","Cat","63-008.png"
"","4969","image-button-response","30","null","225950","685c6ca90f751d3aae6b1794","685c6e1fee038fbffbb57bb8","66d62734985c822b67585824","false","false","Bicycle","https://kisumu-drawings.s3-us-west-1.amazonaws.com/63-012.png","1","Bicycle","63-012.png"
"","4587","image-button-response","31","null","231038","685c6ca90f751d3aae6b1794","685c6e1fee038fbffbb57bb8","66d62734985c822b67585824","false","false","Bicycle","https://kisumu-drawings.s3-us-west-1.amazonaws.com/51-007.png","2","Bird","51-007.png"
"","5826","image-button-response","32","null","237374","685c6ca90f751d3aae6b1794","685c6e1fee038fbffbb57bb8","66d62734985c822b67585824","false","false","Airplane","https://kisumu-drawings.s3-us-west-1.amazonaws.com/94-011.png","0","Airplane","94-011.png"
"","6963","image-button-response","33","null","244849","685c6ca90f751d3aae6b1794","685c6e1fee038fbffbb57bb8","66d62734985c822b67585824","false","false","Airplane","https://kisumu-drawings.s3-us-west-1.amazonaws.com/27-005.png","9","Rabbit","27-005.png"
"","9363","image-button-response","34","null","254719","685c6ca90f751d3aae6b1794","685c6e1fee038fbffbb57bb8","66d62734985c822b67585824","false","false","Rabbit","https://kisumu-drawings.s3-us-west-1.amazonaws.com/94-008.png","2","Bird","94-008.png"
"","5516","image-button-response","35","null","260751","685c6ca90f751d3aae6b1794","685c6e1fee038fbffbb57bb8","66d62734985c822b67585824","false","false","Watch","https://kisumu-drawings.s3-us-west-1.amazonaws.com/108-010.png","11","Watch","108-010.png"
"","6564","image-button-response","36","null","267831","685c6ca90f751d3aae6b1794","685c6e1fee038fbffbb57bb8","66d62734985c822b67585824","false","false","Cup","https://kisumu-drawings.s3-us-west-1.amazonaws.com/7-012.png","6","Cup","7-012.png"
"","5010","image-button-response","37","null","273350","685c6ca90f751d3aae6b1794","685c6e1fee038fbffbb57bb8","66d62734985c822b67585824","false","false","Chair","https://kisumu-drawings.s3-us-west-1.amazonaws.com/51-009.png","7","Hat","51-009.png"
"","4825","image-button-response","38","null","278679","685c6ca90f751d3aae6b1794","685c6e1fee038fbffbb57bb8","66d62734985c822b67585824","false","false","Cat","https://kisumu-drawings.s3-us-west-1.amazonaws.com/27-008.png","1","Bicycle","27-008.png"
"","3098","image-button-response","39","null","282295","685c6ca90f751d3aae6b1794","685c6e1fee038fbffbb57bb8","66d62734985c822b67585824","false","false","Bicycle","https://kisumu-drawings.s3-us-west-1.amazonaws.com/27-006.png","1","Bicycle","27-006.png"
"","6449","image-button-response","40","null","289247","685c6ca90f751d3aae6b1794","685c6e1fee038fbffbb57bb8","66d62734985c822b67585824","false","false","Airplane","https://kisumu-drawings.s3-us-west-1.amazonaws.com/8-015.png","5","Chair","8-015.png"
"","3152","image-button-response","41","null","292902","685c6ca90f751d3aae6b1794","685c6e1fee038fbffbb57bb8","66d62734985c822b67585824","false","false","Tree","https://kisumu-drawings.s3-us-west-1.amazonaws.com/51-013.png","10","Tree","51-013.png"
"","7812","image-button-response","42","null","301230","685c6ca90f751d3aae6b1794","685c6e1fee038fbffbb57bb8","66d62734985c822b67585824","false","false","Hat","https://kisumu-drawings.s3-us-west-1.amazonaws.com/63-014.png","6","Cup","63-014.png"
"","2951","image-button-response","43","null","304686","685c6ca90f751d3aae6b1794","685c6e1fee038fbffbb57bb8","66d62734985c822b67585824","false","false","Hat","https://kisumu-drawings.s3-us-west-1.amazonaws.com/27-015.png","2","Bird","27-015.png"
"","4833","image-button-response","44","null","310022","685c6ca90f751d3aae6b1794","685c6e1fee038fbffbb57bb8","66d62734985c822b67585824","false","false","Car","https://kisumu-drawings.s3-us-west-1.amazonaws.com/108-013.png","3","Car","108-013.png"
"","5697","image-button-response","45","null","316232","685c6ca90f751d3aae6b1794","685c6e1fee038fbffbb57bb8","66d62734985c822b67585824","false","false","Bird","https://kisumu-drawings.s3-us-west-1.amazonaws.com/94-013.png","4","Cat","94-013.png"
"","4051","image-button-response","46","null","320798","685c6ca90f751d3aae6b1794","685c6e1fee038fbffbb57bb8","66d62734985c822b67585824","false","false","Rabbit","https://kisumu-drawings.s3-us-west-1.amazonaws.com/7-011.png","8","House","7-011.png"
"","2735","image-button-response","47","null","324039","685c6ca90f751d3aae6b1794","685c6e1fee038fbffbb57bb8","66d62734985c822b67585824","false","false","Tree","https://kisumu-drawings.s3-us-west-1.amazonaws.com/63-016.png","10","Tree","63-016.png"
"","7945","image-button-response","48","null","332495","685c6ca90f751d3aae6b1794","685c6e1fee038fbffbb57bb8","66d62734985c822b67585824","false","false","Cat","https://kisumu-drawings.s3-us-west-1.amazonaws.com/51-016.png","4","Cat","51-016.png"
"","2326","image-button-response","49","null","335327","685c6ca90f751d3aae6b1794","685c6e1fee038fbffbb57bb8","66d62734985c822b67585824","false","false","Chair","https://kisumu-drawings.s3-us-west-1.amazonaws.com/63-013.png","5","Chair","63-013.png"
"","2625","image-button-response","50","null","338454","685c6ca90f751d3aae6b1794","685c6e1fee038fbffbb57bb8","66d62734985c822b67585824","false","false","Rabbit","https://kisumu-drawings.s3-us-west-1.amazonaws.com/27-010.png","4","Cat","27-010.png"
"","2429","image-button-response","51","null","341399","685c6ca90f751d3aae6b1794","685c6e1fee038fbffbb57bb8","66d62734985c822b67585824","false","false","Rabbit","https://kisumu-drawings.s3-us-west-1.amazonaws.com/63-010.png","5","Chair","63-010.png"
"","2951","image-button-response","52","null","344863","685c6ca90f751d3aae6b1794","685c6e1fee038fbffbb57bb8","66d62734985c822b67585824","false","false","Bird","https://kisumu-drawings.s3-us-west-1.amazonaws.com/108-011.png","2","Bird","108-011.png"
"","2587","image-button-response","53","null","347951","685c6ca90f751d3aae6b1794","685c6e1fee038fbffbb57bb8","66d62734985c822b67585824","false","false","Rabbit","https://kisumu-drawings.s3-us-west-1.amazonaws.com/51-012.png","4","Cat","51-012.png"
"","2507","image-button-response","54","null","350975","685c6ca90f751d3aae6b1794","685c6e1fee038fbffbb57bb8","66d62734985c822b67585824","false","false","Watch","https://kisumu-drawings.s3-us-west-1.amazonaws.com/27-013.png","1","Bicycle","27-013.png"
"","5376","image-button-response","55","null","356854","685c6ca90f751d3aae6b1794","685c6e1fee038fbffbb57bb8","66d62734985c822b67585824","false","false","House","https://kisumu-drawings.s3-us-west-1.amazonaws.com/51-005.png","8","House","51-005.png"
"","4310","image-button-response","56","null","361670","685c6ca90f751d3aae6b1794","685c6e1fee038fbffbb57bb8","66d62734985c822b67585824","false","false","Bird","https://kisumu-drawings.s3-us-west-1.amazonaws.com/27-007.png","2","Bird","27-007.png"
"","5351","image-button-response","57","null","367535","685c6ca90f751d3aae6b1794","685c6e1fee038fbffbb57bb8","66d62734985c822b67585824","false","false","Hat","https://kisumu-drawings.s3-us-west-1.amazonaws.com/7-014.png","7","Hat","7-014.png"
"","4753","image-button-response","58","null","372791","685c6ca90f751d3aae6b1794","685c6e1fee038fbffbb57bb8","66d62734985c822b67585824","false","false","Watch","https://kisumu-drawings.s3-us-west-1.amazonaws.com/51-014.png","11","Watch","51-014.png"
"","2414","image-button-response","59","null","375718","685c6ca90f751d3aae6b1794","685c6e1fee038fbffbb57bb8","66d62734985c822b67585824","false","false","Tree","https://kisumu-drawings.s3-us-west-1.amazonaws.com/27-012.png","10","Tree","27-012.png"
"","3864","image-button-response","60","null","380095","685c6ca90f751d3aae6b1794","685c6e1fee038fbffbb57bb8","66d62734985c822b67585824","false","false","House","https://kisumu-drawings.s3-us-west-1.amazonaws.com/27-009.png","8","House","27-009.png"
"","2319","image-button-response","61","null","382919","685c6ca90f751d3aae6b1794","685c6e1fee038fbffbb57bb8","66d62734985c822b67585824","false","false","Chair","https://kisumu-drawings.s3-us-west-1.amazonaws.com/27-011.png","8","House","27-011.png"
"","5309","image-button-response","62","null","388743","685c6ca90f751d3aae6b1794","685c6e1fee038fbffbb57bb8","66d62734985c822b67585824","false","false","Car","https://kisumu-drawings.s3-us-west-1.amazonaws.com/95-007.png","8","House","95-007.png"
"","3302","image-button-response","63","null","392551","685c6ca90f751d3aae6b1794","685c6e1fee038fbffbb57bb8","66d62734985c822b67585824","false","false","House","https://kisumu-drawings.s3-us-west-1.amazonaws.com/7-013.png","8","House","7-013.png"
"","5543","image-button-response","64","null","398607","685c6ca90f751d3aae6b1794","685c6e1fee038fbffbb57bb8","66d62734985c822b67585824","false","false","Car","https://kisumu-drawings.s3-us-west-1.amazonaws.com/7-006.png","3","Car","7-006.png"
"","3222","image-button-response","65","null","402335","685c6ca90f751d3aae6b1794","685c6e1fee038fbffbb57bb8","66d62734985c822b67585824","false","false","Bird","https://kisumu-drawings.s3-us-west-1.amazonaws.com/63-011.png","2","Bird","63-011.png"
"","7754","image-button-response","66","null","410590","685c6ca90f751d3aae6b1794","685c6e1fee038fbffbb57bb8","66d62734985c822b67585824","false","false","Cat","https://kisumu-drawings.s3-us-west-1.amazonaws.com/94-009.png","2","Bird","94-009.png"
"","2822","image-button-response","67","null","413918","685c6ca90f751d3aae6b1794","685c6e1fee038fbffbb57bb8","66d62734985c822b67585824","false","false","Cat","https://kisumu-drawings.s3-us-west-1.amazonaws.com/108-015.png","4","Cat","108-015.png"
"","4026","image-button-response","68","null","418446","685c6ca90f751d3aae6b1794","685c6e1fee038fbffbb57bb8","66d62734985c822b67585824","false","false","Cup","https://kisumu-drawings.s3-us-west-1.amazonaws.com/108-005.png","6","Cup","108-005.png"
"","4084","image-button-response","69","null","423039","685c6ca90f751d3aae6b1794","685c6e1fee038fbffbb57bb8","66d62734985c822b67585824","false","false","Rabbit","https://kisumu-drawings.s3-us-west-1.amazonaws.com/108-009.png","4","Cat","108-009.png"
"","4455","image-button-response","70","null","427998","685c6ca90f751d3aae6b1794","685c6e1fee038fbffbb57bb8","66d62734985c822b67585824","false","false","House","https://kisumu-drawings.s3-us-west-1.amazonaws.com/94-016.png","8","House","94-016.png"
"","2823","image-button-response","71","null","431335","685c6ca90f751d3aae6b1794","685c6e1fee038fbffbb57bb8","66d62734985c822b67585824","false","false","Cup","https://kisumu-drawings.s3-us-west-1.amazonaws.com/51-010.png","6","Cup","51-010.png"
"","3418","image-button-response","72","null","435255","685c6ca90f751d3aae6b1794","685c6e1fee038fbffbb57bb8","66d62734985c822b67585824","false","false","Cup","https://kisumu-drawings.s3-us-west-1.amazonaws.com/94-005.png","6","Cup","94-005.png"
"","4342","image-button-response","73","null","440102","685c6ca90f751d3aae6b1794","685c6e1fee038fbffbb57bb8","66d62734985c822b67585824","false","false","Bicycle","https://kisumu-drawings.s3-us-west-1.amazonaws.com/7-008.png","3","Car","7-008.png"
"","6900","image-button-response","74","null","447519","685c6ca90f751d3aae6b1794","685c6e1fee038fbffbb57bb8","66d62734985c822b67585824","false","false","Bird","https://kisumu-drawings.s3-us-west-1.amazonaws.com/7-010.png","11","Watch","7-010.png"
"","4986","image-button-response","75","null","453007","685c6ca90f751d3aae6b1794","685c6e1fee038fbffbb57bb8","66d62734985c822b67585824","false","false","Airplane","https://kisumu-drawings.s3-us-west-1.amazonaws.com/69-013.png","0","Airplane","69-013.png"
