"view_history","rt","trial_type","trial_index","plugin_version","time_elapsed","study_id","session_id","participant_id","catch_trial","prep_trial","sketcher_category","stimulus","response","response_category","sketch_id"
"[{""page_index"":0,""viewing_time"":6770},{""page_index"":1,""viewing_time"":2381},{""page_index"":2,""viewing_time"":4388},{""page_index"":3,""viewing_time"":7008}]","20546","instructions","0","null","20558","685c6ca90f751d3aae6b1794","685c6e24fe8d6b3f08ccb9bd","66e99d20cc408a0176e37b3a","","","","","","",""
"","3796","image-button-response","1","null","25357","685c6ca90f751d3aae6b1794","685c6e24fe8d6b3f08ccb9bd","66e99d20cc408a0176e37b3a","false","true","car","stimuli/prep_trials/1_car_prep.png","3","Car",""
"","2079","image-button-response","2","null","27953","685c6ca90f751d3aae6b1794","685c6e24fe8d6b3f08ccb9bd","66e99d20cc408a0176e37b3a","false","true","cat","stimuli/prep_trials/0_cat_prep.jpg","4","Cat",""
"","9170","image-button-response","3","null","37639","685c6ca90f751d3aae6b1794","685c6e24fe8d6b3f08ccb9bd","66e99d20cc408a0176e37b3a","false","false","Cat","https://kisumu-drawings.s3-us-west-1.amazonaws.com/107-013.png","4","Cat","107-013.png"
"","7970","image-button-response","4","null","46111","685c6ca90f751d3aae6b1794","685c6e24fe8d6b3f08ccb9bd","66e99d20cc408a0176e37b3a","false","false","Airplane","https://kisumu-drawings.s3-us-west-1.amazonaws.com/50-005.png","0","Airplane","50-005.png"
"","15707","image-button-response","5","null","62322","685c6ca90f751d3aae6b1794","685c6e24fe8d6b3f08ccb9bd","66e99d20cc408a0176e37b3a","false","false","Cat","https://kisumu-drawings.s3-us-west-1.amazonaws.com/6-011.png","6","Cup","6-011.png"
"","3347","image-button-response","6","null","66172","685c6ca90f751d3aae6b1794","685c6e24fe8d6b3f08ccb9bd","66e99d20cc408a0176e37b3a","false","false","Tree","https://kisumu-drawings.s3-us-west-1.amazonaws.com/68-015.png","10","Tree","68-015.png"
"","3926","image-button-response","7","null","70600","685c6ca90f751d3aae6b1794","685c6e24fe8d6b3f08ccb9bd","66e99d20cc408a0176e37b3a","false","false","Watch","https://kisumu-drawings.s3-us-west-1.amazonaws.com/93-016.png","11","Watch","93-016.png"
"","1835","image-button-response","8","null","72936","685c6ca90f751d3aae6b1794","685c6e24fe8d6b3f08ccb9bd","66e99d20cc408a0176e37b3a","false","false","Tree","https://kisumu-drawings.s3-us-west-1.amazonaws.com/93-014.png","10","Tree","93-014.png"
"","1625","image-button-response","9","null","75077","685c6ca90f751d3aae6b1794","685c6e24fe8d6b3f08ccb9bd","66e99d20cc408a0176e37b3a","false","false","Tree","https://kisumu-drawings.s3-us-west-1.amazonaws.com/107-010.png","10","Tree","107-010.png"
"","3259","image-button-response","10","null","78838","685c6ca90f751d3aae6b1794","685c6e24fe8d6b3f08ccb9bd","66e99d20cc408a0176e37b3a","false","false","Hat","https://kisumu-drawings.s3-us-west-1.amazonaws.com/26-011.png","8","House","26-011.png"
"","1254","image-button-response","11","null","80605","685c6ca90f751d3aae6b1794","685c6e24fe8d6b3f08ccb9bd","66e99d20cc408a0176e37b3a","false","false","Cup","https://kisumu-drawings.s3-us-west-1.amazonaws.com/26-012.png","8","House","26-012.png"
"","1049","image-button-response","12","null","82156","685c6ca90f751d3aae6b1794","685c6e24fe8d6b3f08ccb9bd","66e99d20cc408a0176e37b3a","false","false","House","https://kisumu-drawings.s3-us-west-1.amazonaws.com/26-014.png","8","House","26-014.png"
"","2793","image-button-response","13","null","85459","685c6ca90f751d3aae6b1794","685c6e24fe8d6b3f08ccb9bd","66e99d20cc408a0176e37b3a","false","false","Car","https://kisumu-drawings.s3-us-west-1.amazonaws.com/6-010.png","8","House","6-010.png"
"","3423","image-button-response","14","null","89391","685c6ca90f751d3aae6b1794","685c6e24fe8d6b3f08ccb9bd","66e99d20cc408a0176e37b3a","false","false","Cup","https://kisumu-drawings.s3-us-west-1.amazonaws.com/93-005.png","6","Cup","93-005.png"
"","3730","image-button-response","15","null","93625","685c6ca90f751d3aae6b1794","685c6e24fe8d6b3f08ccb9bd","66e99d20cc408a0176e37b3a","false","false","Chair","https://kisumu-drawings.s3-us-west-1.amazonaws.com/50-014.png","0","Airplane","50-014.png"
"","8037","image-button-response","16","null","102173","685c6ca90f751d3aae6b1794","685c6e24fe8d6b3f08ccb9bd","66e99d20cc408a0176e37b3a","false","false","Rabbit","https://kisumu-drawings.s3-us-west-1.amazonaws.com/93-012.png","2","Bird","93-012.png"
"","10532","image-button-response","17","null","113208","685c6ca90f751d3aae6b1794","685c6e24fe8d6b3f08ccb9bd","66e99d20cc408a0176e37b3a","false","false","Car","https://kisumu-drawings.s3-us-west-1.amazonaws.com/50-015.png","3","Car","50-015.png"
"","16629","image-button-response","18","null","130354","685c6ca90f751d3aae6b1794","685c6e24fe8d6b3f08ccb9bd","66e99d20cc408a0176e37b3a","false","false","Rabbit","https://kisumu-drawings.s3-us-west-1.amazonaws.com/107-005.png","9","Rabbit","107-005.png"
"","3393","image-button-response","19","null","134259","685c6ca90f751d3aae6b1794","685c6e24fe8d6b3f08ccb9bd","66e99d20cc408a0176e37b3a","false","false","Airplane","https://kisumu-drawings.s3-us-west-1.amazonaws.com/107-012.png","0","Airplane","107-012.png"
"","6058","image-button-response","20","null","140829","685c6ca90f751d3aae6b1794","685c6e24fe8d6b3f08ccb9bd","66e99d20cc408a0176e37b3a","false","false","Airplane","https://kisumu-drawings.s3-us-west-1.amazonaws.com/26-006.png","3","Car","26-006.png"
"","9132","image-button-response","21","null","150465","685c6ca90f751d3aae6b1794","685c6e24fe8d6b3f08ccb9bd","66e99d20cc408a0176e37b3a","false","false","House","https://kisumu-drawings.s3-us-west-1.amazonaws.com/93-010.png","8","House","93-010.png"
"","7140","image-button-response","22","null","158108","685c6ca90f751d3aae6b1794","685c6e24fe8d6b3f08ccb9bd","66e99d20cc408a0176e37b3a","false","false","Chair","https://kisumu-drawings.s3-us-west-1.amazonaws.com/68-012.png","5","Chair","68-012.png"
"","9664","image-button-response","23","null","168284","685c6ca90f751d3aae6b1794","685c6e24fe8d6b3f08ccb9bd","66e99d20cc408a0176e37b3a","false","false","Airplane","https://kisumu-drawings.s3-us-west-1.amazonaws.com/6-007.png","7","Hat","6-007.png"
"","24329","image-button-response","24","null","193116","685c6ca90f751d3aae6b1794","685c6e24fe8d6b3f08ccb9bd","66e99d20cc408a0176e37b3a","false","false","Rabbit","https://kisumu-drawings.s3-us-west-1.amazonaws.com/6-008.png","6","Cup","6-008.png"
"","6539","image-button-response","25","null","200173","685c6ca90f751d3aae6b1794","685c6e24fe8d6b3f08ccb9bd","66e99d20cc408a0176e37b3a","false","false","Watch","https://kisumu-drawings.s3-us-west-1.amazonaws.com/26-015.png","11","Watch","26-015.png"
"","13393","image-button-response","26","null","214082","685c6ca90f751d3aae6b1794","685c6e24fe8d6b3f08ccb9bd","66e99d20cc408a0176e37b3a","false","false","Bicycle","https://kisumu-drawings.s3-us-west-1.amazonaws.com/6-016.png","5","Chair","6-016.png"
"","10236","image-button-response","27","null","224829","685c6ca90f751d3aae6b1794","685c6e24fe8d6b3f08ccb9bd","66e99d20cc408a0176e37b3a","false","false","Cat","https://kisumu-drawings.s3-us-west-1.amazonaws.com/26-010.png","4","Cat","26-010.png"
"","8697","image-button-response","28","null","234028","685c6ca90f751d3aae6b1794","685c6e24fe8d6b3f08ccb9bd","66e99d20cc408a0176e37b3a","false","false","Bird","https://kisumu-drawings.s3-us-west-1.amazonaws.com/6-009.png","2","Bird","6-009.png"
"","7048","image-button-response","29","null","241589","685c6ca90f751d3aae6b1794","685c6e24fe8d6b3f08ccb9bd","66e99d20cc408a0176e37b3a","false","false","Chair","https://kisumu-drawings.s3-us-west-1.amazonaws.com/26-009.png","5","Chair","26-009.png"
"","6920","image-button-response","30","null","249024","685c6ca90f751d3aae6b1794","685c6e24fe8d6b3f08ccb9bd","66e99d20cc408a0176e37b3a","false","false","Watch","https://kisumu-drawings.s3-us-west-1.amazonaws.com/68-016.png","5","Chair","68-016.png"
"","4941","image-button-response","31","null","254481","685c6ca90f751d3aae6b1794","685c6e24fe8d6b3f08ccb9bd","66e99d20cc408a0176e37b3a","false","false","Cup","https://kisumu-drawings.s3-us-west-1.amazonaws.com/68-006.png","6","Cup","68-006.png"
"","5523","image-button-response","32","null","260506","685c6ca90f751d3aae6b1794","685c6e24fe8d6b3f08ccb9bd","66e99d20cc408a0176e37b3a","false","false","Cup","https://kisumu-drawings.s3-us-west-1.amazonaws.com/107-008.png","6","Cup","107-008.png"
"","7668","image-button-response","33","null","268679","685c6ca90f751d3aae6b1794","685c6e24fe8d6b3f08ccb9bd","66e99d20cc408a0176e37b3a","false","false","Hat","https://kisumu-drawings.s3-us-west-1.amazonaws.com/6-005.png","5","Chair","6-005.png"
"","10440","image-button-response","34","null","279622","685c6ca90f751d3aae6b1794","685c6e24fe8d6b3f08ccb9bd","66e99d20cc408a0176e37b3a","false","false","Bird","https://kisumu-drawings.s3-us-west-1.amazonaws.com/68-007.png","2","Bird","68-007.png"
"","5396","image-button-response","35","null","285520","685c6ca90f751d3aae6b1794","685c6e24fe8d6b3f08ccb9bd","66e99d20cc408a0176e37b3a","false","false","Bicycle","https://kisumu-drawings.s3-us-west-1.amazonaws.com/107-015.png","1","Bicycle","107-015.png"
"","8923","image-button-response","36","null","294945","685c6ca90f751d3aae6b1794","685c6e24fe8d6b3f08ccb9bd","66e99d20cc408a0176e37b3a","false","false","Cat","https://kisumu-drawings.s3-us-west-1.amazonaws.com/93-007.png","4","Cat","93-007.png"
"","1203909","image-button-response","37","null","1499355","685c6ca90f751d3aae6b1794","685c6e24fe8d6b3f08ccb9bd","66e99d20cc408a0176e37b3a","false","false","Hat","https://kisumu-drawings.s3-us-west-1.amazonaws.com/50-012.png","7","Hat","50-012.png"
"","3724","image-button-response","38","null","1503586","685c6ca90f751d3aae6b1794","685c6e24fe8d6b3f08ccb9bd","66e99d20cc408a0176e37b3a","false","false","Bicycle","https://kisumu-drawings.s3-us-west-1.amazonaws.com/93-013.png","1","Bicycle","93-013.png"
"","2078","image-button-response","39","null","1506173","685c6ca90f751d3aae6b1794","685c6e24fe8d6b3f08ccb9bd","66e99d20cc408a0176e37b3a","false","false","Car","https://kisumu-drawings.s3-us-west-1.amazonaws.com/93-009.png","3","Car","93-009.png"
"","3744","image-button-response","40","null","1510429","685c6ca90f751d3aae6b1794","685c6e24fe8d6b3f08ccb9bd","66e99d20cc408a0176e37b3a","false","false","Cup","https://kisumu-drawings.s3-us-west-1.amazonaws.com/6-013.png","0","Airplane","6-013.png"
"","1704","image-button-response","41","null","1512643","685c6ca90f751d3aae6b1794","685c6e24fe8d6b3f08ccb9bd","66e99d20cc408a0176e37b3a","false","false","Airplane","https://kisumu-drawings.s3-us-west-1.amazonaws.com/68-008.png","0","Airplane","68-008.png"
"","1937","image-button-response","42","null","1515094","685c6ca90f751d3aae6b1794","685c6e24fe8d6b3f08ccb9bd","66e99d20cc408a0176e37b3a","false","false","Hat","https://kisumu-drawings.s3-us-west-1.amazonaws.com/68-013.png","7","Hat","68-013.png"
"","17008","image-button-response","43","null","1532612","685c6ca90f751d3aae6b1794","685c6e24fe8d6b3f08ccb9bd","66e99d20cc408a0176e37b3a","false","false","Rabbit","https://kisumu-drawings.s3-us-west-1.amazonaws.com/26-013.png","2","Bird","26-013.png"
"","7003","image-button-response","44","null","1540120","685c6ca90f751d3aae6b1794","685c6e24fe8d6b3f08ccb9bd","66e99d20cc408a0176e37b3a","false","false","Car","https://kisumu-drawings.s3-us-west-1.amazonaws.com/26-007.png","3","Car","26-007.png"
"","5400","image-button-response","45","null","1546022","685c6ca90f751d3aae6b1794","685c6e24fe8d6b3f08ccb9bd","66e99d20cc408a0176e37b3a","false","false","Tree","https://kisumu-drawings.s3-us-west-1.amazonaws.com/6-014.png","0","Airplane","6-014.png"
"","2939","image-button-response","46","null","1549468","685c6ca90f751d3aae6b1794","685c6e24fe8d6b3f08ccb9bd","66e99d20cc408a0176e37b3a","false","false","Hat","https://kisumu-drawings.s3-us-west-1.amazonaws.com/93-008.png","7","Hat","93-008.png"
"","2855","image-button-response","47","null","1552824","685c6ca90f751d3aae6b1794","685c6e24fe8d6b3f08ccb9bd","66e99d20cc408a0176e37b3a","false","false","Cat","https://kisumu-drawings.s3-us-west-1.amazonaws.com/68-011.png","4","Cat","68-011.png"
"","19752","image-button-response","48","null","1573079","685c6ca90f751d3aae6b1794","685c6e24fe8d6b3f08ccb9bd","66e99d20cc408a0176e37b3a","false","false","Bird","https://kisumu-drawings.s3-us-west-1.amazonaws.com/25-008.png","2","Bird","25-008.png"
"","10097","image-button-response","49","null","1583677","685c6ca90f751d3aae6b1794","685c6e24fe8d6b3f08ccb9bd","66e99d20cc408a0176e37b3a","false","false","Bicycle","https://kisumu-drawings.s3-us-west-1.amazonaws.com/50-006.png","3","Car","50-006.png"
"","4782","image-button-response","50","null","1588962","685c6ca90f751d3aae6b1794","685c6e24fe8d6b3f08ccb9bd","66e99d20cc408a0176e37b3a","false","false","Cat","https://kisumu-drawings.s3-us-west-1.amazonaws.com/50-016.png","4","Cat","50-016.png"
"","4166","image-button-response","51","null","1593630","685c6ca90f751d3aae6b1794","685c6e24fe8d6b3f08ccb9bd","66e99d20cc408a0176e37b3a","false","false","Bird","https://kisumu-drawings.s3-us-west-1.amazonaws.com/107-016.png","2","Bird","107-016.png"
"","2429","image-button-response","52","null","1596565","685c6ca90f751d3aae6b1794","685c6e24fe8d6b3f08ccb9bd","66e99d20cc408a0176e37b3a","false","false","Tree","https://kisumu-drawings.s3-us-west-1.amazonaws.com/26-016.png","10","Tree","26-016.png"
"","3219","image-button-response","53","null","1600296","685c6ca90f751d3aae6b1794","685c6e24fe8d6b3f08ccb9bd","66e99d20cc408a0176e37b3a","false","false","Car","https://kisumu-drawings.s3-us-west-1.amazonaws.com/107-009.png","3","Car","107-009.png"
"","3525","image-button-response","54","null","1604338","685c6ca90f751d3aae6b1794","685c6e24fe8d6b3f08ccb9bd","66e99d20cc408a0176e37b3a","false","false","Watch","https://kisumu-drawings.s3-us-west-1.amazonaws.com/6-015.png","10","Tree","6-015.png"
"","4079","image-button-response","55","null","1608931","685c6ca90f751d3aae6b1794","685c6e24fe8d6b3f08ccb9bd","66e99d20cc408a0176e37b3a","false","false","Chair","https://kisumu-drawings.s3-us-west-1.amazonaws.com/93-006.png","5","Chair","93-006.png"
"","8332","image-button-response","56","null","1617765","685c6ca90f751d3aae6b1794","685c6e24fe8d6b3f08ccb9bd","66e99d20cc408a0176e37b3a","false","false","Rabbit","https://kisumu-drawings.s3-us-west-1.amazonaws.com/68-005.png","9","Rabbit","68-005.png"
"","13961","image-button-response","57","null","1632229","685c6ca90f751d3aae6b1794","685c6e24fe8d6b3f08ccb9bd","66e99d20cc408a0176e37b3a","false","false","Watch","https://kisumu-drawings.s3-us-west-1.amazonaws.com/50-010.png","10","Tree","50-010.png"
"","8614","image-button-response","58","null","1641357","685c6ca90f751d3aae6b1794","685c6e24fe8d6b3f08ccb9bd","66e99d20cc408a0176e37b3a","false","false","Cup","https://kisumu-drawings.s3-us-west-1.amazonaws.com/50-011.png","6","Cup","50-011.png"
"","4008","image-button-response","59","null","1645877","685c6ca90f751d3aae6b1794","685c6e24fe8d6b3f08ccb9bd","66e99d20cc408a0176e37b3a","false","false","Tree","https://kisumu-drawings.s3-us-west-1.amazonaws.com/50-009.png","10","Tree","50-009.png"
"","4423","image-button-response","60","null","1650805","685c6ca90f751d3aae6b1794","685c6e24fe8d6b3f08ccb9bd","66e99d20cc408a0176e37b3a","false","false","Airplane","https://kisumu-drawings.s3-us-west-1.amazonaws.com/93-015.png","0","Airplane","93-015.png"
"","3731","image-button-response","61","null","1655038","685c6ca90f751d3aae6b1794","685c6e24fe8d6b3f08ccb9bd","66e99d20cc408a0176e37b3a","false","false","Bird","https://kisumu-drawings.s3-us-west-1.amazonaws.com/93-011.png","2","Bird","93-011.png"
"","3623","image-button-response","62","null","1659165","685c6ca90f751d3aae6b1794","685c6e24fe8d6b3f08ccb9bd","66e99d20cc408a0176e37b3a","false","false","Chair","https://kisumu-drawings.s3-us-west-1.amazonaws.com/6-012.png","2","Bird","6-012.png"
"","14651","image-button-response","63","null","1674322","685c6ca90f751d3aae6b1794","685c6e24fe8d6b3f08ccb9bd","66e99d20cc408a0176e37b3a","false","false","Chair","https://kisumu-drawings.s3-us-west-1.amazonaws.com/107-014.png","5","Chair","107-014.png"
"","37352","image-button-response","64","null","1712187","685c6ca90f751d3aae6b1794","685c6e24fe8d6b3f08ccb9bd","66e99d20cc408a0176e37b3a","false","false","Bicycle","https://kisumu-drawings.s3-us-west-1.amazonaws.com/26-005.png","1","Bicycle","26-005.png"
"","8576","image-button-response","65","null","1721266","685c6ca90f751d3aae6b1794","685c6e24fe8d6b3f08ccb9bd","66e99d20cc408a0176e37b3a","false","false","House","https://kisumu-drawings.s3-us-west-1.amazonaws.com/6-006.png","5","Chair","6-006.png"
"","4384","image-button-response","66","null","1726152","685c6ca90f751d3aae6b1794","685c6e24fe8d6b3f08ccb9bd","66e99d20cc408a0176e37b3a","false","false","Car","https://kisumu-drawings.s3-us-west-1.amazonaws.com/68-010.png","0","Airplane","68-010.png"
"","3109","image-button-response","67","null","1729764","685c6ca90f751d3aae6b1794","685c6e24fe8d6b3f08ccb9bd","66e99d20cc408a0176e37b3a","false","false","House","https://kisumu-drawings.s3-us-west-1.amazonaws.com/68-014.png","8","House","68-014.png"
"","2123","image-button-response","68","null","1732402","685c6ca90f751d3aae6b1794","685c6e24fe8d6b3f08ccb9bd","66e99d20cc408a0176e37b3a","false","false","Hat","https://kisumu-drawings.s3-us-west-1.amazonaws.com/107-007.png","10","Tree","107-007.png"
"","2750","image-button-response","69","null","1735666","685c6ca90f751d3aae6b1794","685c6e24fe8d6b3f08ccb9bd","66e99d20cc408a0176e37b3a","false","false","Watch","https://kisumu-drawings.s3-us-west-1.amazonaws.com/107-011.png","11","Watch","107-011.png"
"","1649","image-button-response","70","null","1737816","685c6ca90f751d3aae6b1794","685c6e24fe8d6b3f08ccb9bd","66e99d20cc408a0176e37b3a","true","false","airplane","stimuli/catch_trials/0_airplane_catch.jpg","0","Airplane",""
"","2492","image-button-response","71","null","1740809","685c6ca90f751d3aae6b1794","685c6e24fe8d6b3f08ccb9bd","66e99d20cc408a0176e37b3a","false","false","House","https://kisumu-drawings.s3-us-west-1.amazonaws.com/107-006.png","8","House","107-006.png"
"","1951","image-button-response","72","null","1743267","685c6ca90f751d3aae6b1794","685c6e24fe8d6b3f08ccb9bd","66e99d20cc408a0176e37b3a","false","false","Bird","https://kisumu-drawings.s3-us-west-1.amazonaws.com/50-013.png","0","Airplane","50-013.png"
"","3332","image-button-response","73","null","1747101","685c6ca90f751d3aae6b1794","685c6e24fe8d6b3f08ccb9bd","66e99d20cc408a0176e37b3a","false","false","House","https://kisumu-drawings.s3-us-west-1.amazonaws.com/50-007.png","8","House","50-007.png"
"","2306","image-button-response","74","null","1749909","685c6ca90f751d3aae6b1794","685c6e24fe8d6b3f08ccb9bd","66e99d20cc408a0176e37b3a","false","false","Rabbit","https://kisumu-drawings.s3-us-west-1.amazonaws.com/50-008.png","4","Cat","50-008.png"
"","3181","image-button-response","75","null","1753593","685c6ca90f751d3aae6b1794","685c6e24fe8d6b3f08ccb9bd","66e99d20cc408a0176e37b3a","false","false","Bicycle","https://kisumu-drawings.s3-us-west-1.amazonaws.com/68-009.png","1","Bicycle","68-009.png"
