"view_history","rt","trial_type","trial_index","plugin_version","time_elapsed","study_id","session_id","participant_id","catch_trial","prep_trial","sketcher_category","stimulus","response","response_category","sketch_id"
"[{""page_index"":0,""viewing_time"":14923},{""page_index"":1,""viewing_time"":6569},{""page_index"":2,""viewing_time"":9873},{""page_index"":3,""viewing_time"":11385}]","42751","instructions","0","null","42770","685c6ca90f751d3aae6b1794","685c6e2c2e7207a674be918c","66f59bc8a771db6db1bc18b6","","","","","","",""
"","3769","image-button-response","1","null","47544","685c6ca90f751d3aae6b1794","685c6e2c2e7207a674be918c","66f59bc8a771db6db1bc18b6","false","true","car","stimuli/prep_trials/1_car_prep.png","3","Car",""
"","1838","image-button-response","2","null","49886","685c6ca90f751d3aae6b1794","685c6e2c2e7207a674be918c","66f59bc8a771db6db1bc18b6","false","true","cat","stimuli/prep_trials/0_cat_prep.jpg","4","Cat",""
"","26426","image-button-response","3","null","76815","685c6ca90f751d3aae6b1794","685c6e2c2e7207a674be918c","66f59bc8a771db6db1bc18b6","false","false","Car","https://kisumu-drawings.s3-us-west-1.amazonaws.com/9-010.png","7","Hat","9-010.png"
"","20142","image-button-response","4","null","97460","685c6ca90f751d3aae6b1794","685c6e2c2e7207a674be918c","66f59bc8a771db6db1bc18b6","false","false","Bicycle","https://kisumu-drawings.s3-us-west-1.amazonaws.com/53-010.png","9","Rabbit","53-010.png"
"","17753","image-button-response","5","null","115716","685c6ca90f751d3aae6b1794","685c6e2c2e7207a674be918c","66f59bc8a771db6db1bc18b6","false","false","Bird","https://kisumu-drawings.s3-us-west-1.amazonaws.com/29-006.png","0","Airplane","29-006.png"
"","3264","image-button-response","6","null","119482","685c6ca90f751d3aae6b1794","685c6e2c2e7207a674be918c","66f59bc8a771db6db1bc18b6","false","false","Cup","https://kisumu-drawings.s3-us-west-1.amazonaws.com/30-011.png","6","Cup","30-011.png"
"","2459","image-button-response","7","null","122444","685c6ca90f751d3aae6b1794","685c6e2c2e7207a674be918c","66f59bc8a771db6db1bc18b6","false","false","House","https://kisumu-drawings.s3-us-west-1.amazonaws.com/30-013.png","8","House","30-013.png"
"","3396","image-button-response","8","null","126343","685c6ca90f751d3aae6b1794","685c6e2c2e7207a674be918c","66f59bc8a771db6db1bc18b6","false","false","Tree","https://kisumu-drawings.s3-us-west-1.amazonaws.com/54-011.png","10","Tree","54-011.png"
"","3091","image-button-response","9","null","129938","685c6ca90f751d3aae6b1794","685c6e2c2e7207a674be918c","66f59bc8a771db6db1bc18b6","false","false","Tree","https://kisumu-drawings.s3-us-west-1.amazonaws.com/97-016.png","10","Tree","97-016.png"
"","2186","image-button-response","10","null","132626","685c6ca90f751d3aae6b1794","685c6e2c2e7207a674be918c","66f59bc8a771db6db1bc18b6","false","false","Airplane","https://kisumu-drawings.s3-us-west-1.amazonaws.com/97-013.png","0","Airplane","97-013.png"
"","23666","image-button-response","11","null","156795","685c6ca90f751d3aae6b1794","685c6e2c2e7207a674be918c","66f59bc8a771db6db1bc18b6","false","false","Cat","https://kisumu-drawings.s3-us-west-1.amazonaws.com/29-008.png","5","Chair","29-008.png"
"","4601","image-button-response","12","null","161897","685c6ca90f751d3aae6b1794","685c6e2c2e7207a674be918c","66f59bc8a771db6db1bc18b6","false","false","House","https://kisumu-drawings.s3-us-west-1.amazonaws.com/111-014.png","8","House","111-014.png"
"","4613","image-button-response","13","null","167013","685c6ca90f751d3aae6b1794","685c6e2c2e7207a674be918c","66f59bc8a771db6db1bc18b6","false","false","Bird","https://kisumu-drawings.s3-us-west-1.amazonaws.com/9-011.png","7","Hat","9-011.png"
"","2813","image-button-response","14","null","170328","685c6ca90f751d3aae6b1794","685c6e2c2e7207a674be918c","66f59bc8a771db6db1bc18b6","false","false","Chair","https://kisumu-drawings.s3-us-west-1.amazonaws.com/111-005.png","5","Chair","111-005.png"
"","3113","image-button-response","15","null","173942","685c6ca90f751d3aae6b1794","685c6e2c2e7207a674be918c","66f59bc8a771db6db1bc18b6","false","false","Cat","https://kisumu-drawings.s3-us-west-1.amazonaws.com/70-012.png","4","Cat","70-012.png"
"","2487","image-button-response","16","null","176931","685c6ca90f751d3aae6b1794","685c6e2c2e7207a674be918c","66f59bc8a771db6db1bc18b6","false","false","Car","https://kisumu-drawings.s3-us-west-1.amazonaws.com/110-010.png","3","Car","110-010.png"
"","3670","image-button-response","17","null","181102","685c6ca90f751d3aae6b1794","685c6e2c2e7207a674be918c","66f59bc8a771db6db1bc18b6","false","false","Watch","https://kisumu-drawings.s3-us-west-1.amazonaws.com/71-015.png","11","Watch","71-015.png"
"","3590","image-button-response","18","null","185195","685c6ca90f751d3aae6b1794","685c6e2c2e7207a674be918c","66f59bc8a771db6db1bc18b6","false","false","Cat","https://kisumu-drawings.s3-us-west-1.amazonaws.com/96-012.png","4","Cat","96-012.png"
"","4884","image-button-response","19","null","190581","685c6ca90f751d3aae6b1794","685c6e2c2e7207a674be918c","66f59bc8a771db6db1bc18b6","false","false","Bicycle","https://kisumu-drawings.s3-us-west-1.amazonaws.com/9-008.png","7","Hat","9-008.png"
"","3049","image-button-response","20","null","194132","685c6ca90f751d3aae6b1794","685c6e2c2e7207a674be918c","66f59bc8a771db6db1bc18b6","false","false","Bicycle","https://kisumu-drawings.s3-us-west-1.amazonaws.com/97-006.png","1","Bicycle","97-006.png"
"","11930","image-button-response","21","null","206564","685c6ca90f751d3aae6b1794","685c6e2c2e7207a674be918c","66f59bc8a771db6db1bc18b6","false","false","Tree","https://kisumu-drawings.s3-us-west-1.amazonaws.com/71-014.png","10","Tree","71-014.png"
"","4218","image-button-response","22","null","211284","685c6ca90f751d3aae6b1794","685c6e2c2e7207a674be918c","66f59bc8a771db6db1bc18b6","false","false","Rabbit","https://kisumu-drawings.s3-us-west-1.amazonaws.com/71-005.png","4","Cat","71-005.png"
"","27207","image-button-response","23","null","238992","685c6ca90f751d3aae6b1794","685c6e2c2e7207a674be918c","66f59bc8a771db6db1bc18b6","false","false","Chair","https://kisumu-drawings.s3-us-west-1.amazonaws.com/29-009.png","7","Hat","29-009.png"
"","34986","image-button-response","24","null","274481","685c6ca90f751d3aae6b1794","685c6e2c2e7207a674be918c","66f59bc8a771db6db1bc18b6","false","false","Cat","https://kisumu-drawings.s3-us-west-1.amazonaws.com/10-008.png","2","Bird","10-008.png"
"","21115","image-button-response","25","null","296098","685c6ca90f751d3aae6b1794","685c6e2c2e7207a674be918c","66f59bc8a771db6db1bc18b6","false","false","Watch","https://kisumu-drawings.s3-us-west-1.amazonaws.com/97-010.png","6","Cup","97-010.png"
"","3215","image-button-response","26","null","299816","685c6ca90f751d3aae6b1794","685c6e2c2e7207a674be918c","66f59bc8a771db6db1bc18b6","false","false","Watch","https://kisumu-drawings.s3-us-west-1.amazonaws.com/54-012.png","11","Watch","54-012.png"
"","2697","image-button-response","27","null","303015","685c6ca90f751d3aae6b1794","685c6e2c2e7207a674be918c","66f59bc8a771db6db1bc18b6","false","false","Hat","https://kisumu-drawings.s3-us-west-1.amazonaws.com/97-005.png","7","Hat","97-005.png"
"","3221","image-button-response","28","null","306738","685c6ca90f751d3aae6b1794","685c6e2c2e7207a674be918c","66f59bc8a771db6db1bc18b6","false","false","Bicycle","https://kisumu-drawings.s3-us-west-1.amazonaws.com/111-010.png","1","Bicycle","111-010.png"
"","2140","image-button-response","29","null","309380","685c6ca90f751d3aae6b1794","685c6e2c2e7207a674be918c","66f59bc8a771db6db1bc18b6","false","false","Chair","https://kisumu-drawings.s3-us-west-1.amazonaws.com/71-011.png","5","Chair","71-011.png"
"","11639","image-button-response","30","null","321520","685c6ca90f751d3aae6b1794","685c6e2c2e7207a674be918c","66f59bc8a771db6db1bc18b6","false","false","Rabbit","https://kisumu-drawings.s3-us-west-1.amazonaws.com/10-010.png","6","Cup","10-010.png"
"","3002","image-button-response","31","null","325024","685c6ca90f751d3aae6b1794","685c6e2c2e7207a674be918c","66f59bc8a771db6db1bc18b6","false","false","Hat","https://kisumu-drawings.s3-us-west-1.amazonaws.com/71-006.png","6","Cup","71-006.png"
"","13011","image-button-response","32","null","338538","685c6ca90f751d3aae6b1794","685c6e2c2e7207a674be918c","66f59bc8a771db6db1bc18b6","false","false","Watch","https://kisumu-drawings.s3-us-west-1.amazonaws.com/10-012.png","11","Watch","10-012.png"
"","13924","image-button-response","33","null","352966","685c6ca90f751d3aae6b1794","685c6e2c2e7207a674be918c","66f59bc8a771db6db1bc18b6","false","false","House","https://kisumu-drawings.s3-us-west-1.amazonaws.com/10-009.png","8","House","10-009.png"
"","5354","image-button-response","34","null","358824","685c6ca90f751d3aae6b1794","685c6e2c2e7207a674be918c","66f59bc8a771db6db1bc18b6","false","false","Airplane","https://kisumu-drawings.s3-us-west-1.amazonaws.com/9-009.png","8","House","9-009.png"
"","5997","image-button-response","35","null","365322","685c6ca90f751d3aae6b1794","685c6e2c2e7207a674be918c","66f59bc8a771db6db1bc18b6","false","false","Car","https://kisumu-drawings.s3-us-west-1.amazonaws.com/29-007.png","2","Bird","29-007.png"
"","10347","image-button-response","36","null","376172","685c6ca90f751d3aae6b1794","685c6e2c2e7207a674be918c","66f59bc8a771db6db1bc18b6","false","false","Car","https://kisumu-drawings.s3-us-west-1.amazonaws.com/53-006.png","3","Car","53-006.png"
"","2986","image-button-response","37","null","379661","685c6ca90f751d3aae6b1794","685c6e2c2e7207a674be918c","66f59bc8a771db6db1bc18b6","false","false","Chair","https://kisumu-drawings.s3-us-west-1.amazonaws.com/97-009.png","5","Chair","97-009.png"
"","3641","image-button-response","38","null","383804","685c6ca90f751d3aae6b1794","685c6e2c2e7207a674be918c","66f59bc8a771db6db1bc18b6","false","false","Tree","https://kisumu-drawings.s3-us-west-1.amazonaws.com/111-008.png","10","Tree","111-008.png"
"","24220","image-button-response","39","null","408527","685c6ca90f751d3aae6b1794","685c6e2c2e7207a674be918c","66f59bc8a771db6db1bc18b6","false","false","Airplane","https://kisumu-drawings.s3-us-west-1.amazonaws.com/71-012.png","0","Airplane","71-012.png"
"","3689","image-button-response","40","null","412719","685c6ca90f751d3aae6b1794","685c6e2c2e7207a674be918c","66f59bc8a771db6db1bc18b6","false","false","Bicycle","https://kisumu-drawings.s3-us-west-1.amazonaws.com/29-005.png","2","Bird","29-005.png"
"","2410","image-button-response","41","null","415631","685c6ca90f751d3aae6b1794","685c6e2c2e7207a674be918c","66f59bc8a771db6db1bc18b6","false","false","Airplane","https://kisumu-drawings.s3-us-west-1.amazonaws.com/29-016.png","2","Bird","29-016.png"
"","2292","image-button-response","42","null","418425","685c6ca90f751d3aae6b1794","685c6e2c2e7207a674be918c","66f59bc8a771db6db1bc18b6","false","false","Bird","https://kisumu-drawings.s3-us-west-1.amazonaws.com/53-005.png","2","Bird","53-005.png"
"","3160","image-button-response","43","null","422095","685c6ca90f751d3aae6b1794","685c6e2c2e7207a674be918c","66f59bc8a771db6db1bc18b6","false","false","House","https://kisumu-drawings.s3-us-west-1.amazonaws.com/97-011.png","8","House","97-011.png"
"","3625","image-button-response","44","null","426223","685c6ca90f751d3aae6b1794","685c6e2c2e7207a674be918c","66f59bc8a771db6db1bc18b6","false","false","Cat","https://kisumu-drawings.s3-us-west-1.amazonaws.com/110-011.png","4","Cat","110-011.png"
"","3598","image-button-response","45","null","430324","685c6ca90f751d3aae6b1794","685c6e2c2e7207a674be918c","66f59bc8a771db6db1bc18b6","false","false","Tree","https://kisumu-drawings.s3-us-west-1.amazonaws.com/30-015.png","10","Tree","30-015.png"
"","2549","image-button-response","46","null","433375","685c6ca90f751d3aae6b1794","685c6e2c2e7207a674be918c","66f59bc8a771db6db1bc18b6","false","false","Hat","https://kisumu-drawings.s3-us-west-1.amazonaws.com/111-013.png","7","Hat","111-013.png"
"","2508","image-button-response","47","null","436385","685c6ca90f751d3aae6b1794","685c6e2c2e7207a674be918c","66f59bc8a771db6db1bc18b6","false","false","Cup","https://kisumu-drawings.s3-us-west-1.amazonaws.com/71-007.png","6","Cup","71-007.png"
"","5552","image-button-response","48","null","442438","685c6ca90f751d3aae6b1794","685c6e2c2e7207a674be918c","66f59bc8a771db6db1bc18b6","false","false","Rabbit","https://kisumu-drawings.s3-us-west-1.amazonaws.com/97-012.png","9","Rabbit","97-012.png"
"","8687","image-button-response","49","null","451628","685c6ca90f751d3aae6b1794","685c6e2c2e7207a674be918c","66f59bc8a771db6db1bc18b6","false","false","Cup","https://kisumu-drawings.s3-us-west-1.amazonaws.com/9-013.png","8","House","9-013.png"
"","4265","image-button-response","50","null","456395","685c6ca90f751d3aae6b1794","685c6e2c2e7207a674be918c","66f59bc8a771db6db1bc18b6","false","false","Cat","https://kisumu-drawings.s3-us-west-1.amazonaws.com/53-007.png","4","Cat","53-007.png"
"","2896","image-button-response","51","null","459793","685c6ca90f751d3aae6b1794","685c6e2c2e7207a674be918c","66f59bc8a771db6db1bc18b6","false","false","Car","https://kisumu-drawings.s3-us-west-1.amazonaws.com/70-011.png","3","Car","70-011.png"
"","1631","image-button-response","52","null","461927","685c6ca90f751d3aae6b1794","685c6e2c2e7207a674be918c","66f59bc8a771db6db1bc18b6","true","false","airplane","stimuli/catch_trials/0_airplane_catch.jpg","0","Airplane",""
"","2578","image-button-response","53","null","465006","685c6ca90f751d3aae6b1794","685c6e2c2e7207a674be918c","66f59bc8a771db6db1bc18b6","false","false","Airplane","https://kisumu-drawings.s3-us-west-1.amazonaws.com/110-014.png","0","Airplane","110-014.png"
"","2849","image-button-response","54","null","468357","685c6ca90f751d3aae6b1794","685c6e2c2e7207a674be918c","66f59bc8a771db6db1bc18b6","false","false","Bird","https://kisumu-drawings.s3-us-west-1.amazonaws.com/110-007.png","2","Bird","110-007.png"
"","20550","image-button-response","55","null","489409","685c6ca90f751d3aae6b1794","685c6e2c2e7207a674be918c","66f59bc8a771db6db1bc18b6","false","false","Bird","https://kisumu-drawings.s3-us-west-1.amazonaws.com/70-010.png","2","Bird","70-010.png"
"","2901","image-button-response","56","null","492813","685c6ca90f751d3aae6b1794","685c6e2c2e7207a674be918c","66f59bc8a771db6db1bc18b6","false","false","Car","https://kisumu-drawings.s3-us-west-1.amazonaws.com/97-014.png","3","Car","97-014.png"
"","2438","image-button-response","57","null","495753","685c6ca90f751d3aae6b1794","685c6e2c2e7207a674be918c","66f59bc8a771db6db1bc18b6","false","false","Cup","https://kisumu-drawings.s3-us-west-1.amazonaws.com/96-010.png","6","Cup","96-010.png"
"","6718","image-button-response","58","null","502974","685c6ca90f751d3aae6b1794","685c6e2c2e7207a674be918c","66f59bc8a771db6db1bc18b6","false","false","Bicycle","https://kisumu-drawings.s3-us-west-1.amazonaws.com/70-009.png","1","Bicycle","70-009.png"
"","3320","image-button-response","59","null","506796","685c6ca90f751d3aae6b1794","685c6e2c2e7207a674be918c","66f59bc8a771db6db1bc18b6","false","false","Watch","https://kisumu-drawings.s3-us-west-1.amazonaws.com/111-015.png","11","Watch","111-015.png"
"","5446","image-button-response","60","null","512745","685c6ca90f751d3aae6b1794","685c6e2c2e7207a674be918c","66f59bc8a771db6db1bc18b6","false","false","Chair","https://kisumu-drawings.s3-us-west-1.amazonaws.com/53-008.png","5","Chair","53-008.png"
"","2201","image-button-response","61","null","515449","685c6ca90f751d3aae6b1794","685c6e2c2e7207a674be918c","66f59bc8a771db6db1bc18b6","false","false","Hat","https://kisumu-drawings.s3-us-west-1.amazonaws.com/29-015.png","2","Bird","29-015.png"
"","2465","image-button-response","62","null","518416","685c6ca90f751d3aae6b1794","685c6e2c2e7207a674be918c","66f59bc8a771db6db1bc18b6","false","false","Cup","https://kisumu-drawings.s3-us-west-1.amazonaws.com/111-006.png","6","Cup","111-006.png"
"","5915","image-button-response","63","null","524833","685c6ca90f751d3aae6b1794","685c6e2c2e7207a674be918c","66f59bc8a771db6db1bc18b6","false","false","Rabbit","https://kisumu-drawings.s3-us-west-1.amazonaws.com/111-011.png","4","Cat","111-011.png"
"","16861","image-button-response","64","null","542196","685c6ca90f751d3aae6b1794","685c6e2c2e7207a674be918c","66f59bc8a771db6db1bc18b6","false","false","Rabbit","https://kisumu-drawings.s3-us-west-1.amazonaws.com/30-014.png","8","House","30-014.png"
"","2463","image-button-response","65","null","545161","685c6ca90f751d3aae6b1794","685c6e2c2e7207a674be918c","66f59bc8a771db6db1bc18b6","false","false","House","https://kisumu-drawings.s3-us-west-1.amazonaws.com/71-008.png","8","House","71-008.png"
"","3181","image-button-response","66","null","548845","685c6ca90f751d3aae6b1794","685c6e2c2e7207a674be918c","66f59bc8a771db6db1bc18b6","false","false","Tree","https://kisumu-drawings.s3-us-west-1.amazonaws.com/10-011.png","10","Tree","10-011.png"
"","11020","image-button-response","67","null","560368","685c6ca90f751d3aae6b1794","685c6e2c2e7207a674be918c","66f59bc8a771db6db1bc18b6","false","false","Hat","https://kisumu-drawings.s3-us-west-1.amazonaws.com/9-006.png","6","Cup","9-006.png"
"","3404","image-button-response","68","null","564273","685c6ca90f751d3aae6b1794","685c6e2c2e7207a674be918c","66f59bc8a771db6db1bc18b6","false","false","House","https://kisumu-drawings.s3-us-west-1.amazonaws.com/54-015.png","8","House","54-015.png"
"","2791","image-button-response","69","null","567568","685c6ca90f751d3aae6b1794","685c6e2c2e7207a674be918c","66f59bc8a771db6db1bc18b6","false","false","Chair","https://kisumu-drawings.s3-us-west-1.amazonaws.com/10-016.png","5","Chair","10-016.png"
"","4050","image-button-response","70","null","572121","685c6ca90f751d3aae6b1794","685c6e2c2e7207a674be918c","66f59bc8a771db6db1bc18b6","false","false","Rabbit","https://kisumu-drawings.s3-us-west-1.amazonaws.com/54-016.png","4","Cat","54-016.png"
"","3174","image-button-response","71","null","575797","685c6ca90f751d3aae6b1794","685c6e2c2e7207a674be918c","66f59bc8a771db6db1bc18b6","false","false","Bird","https://kisumu-drawings.s3-us-west-1.amazonaws.com/96-015.png","2","Bird","96-015.png"
"","3461","image-button-response","72","null","579761","685c6ca90f751d3aae6b1794","685c6e2c2e7207a674be918c","66f59bc8a771db6db1bc18b6","false","false","Cup","https://kisumu-drawings.s3-us-west-1.amazonaws.com/54-013.png","6","Cup","54-013.png"
"","13340","image-button-response","73","null","593603","685c6ca90f751d3aae6b1794","685c6e2c2e7207a674be918c","66f59bc8a771db6db1bc18b6","false","false","Airplane","https://kisumu-drawings.s3-us-west-1.amazonaws.com/53-009.png","4","Cat","53-009.png"
"","3352","image-button-response","74","null","597458","685c6ca90f751d3aae6b1794","685c6e2c2e7207a674be918c","66f59bc8a771db6db1bc18b6","false","false","Hat","https://kisumu-drawings.s3-us-west-1.amazonaws.com/54-014.png","7","Hat","54-014.png"
"","2005","image-button-response","75","null","599966","685c6ca90f751d3aae6b1794","685c6e2c2e7207a674be918c","66f59bc8a771db6db1bc18b6","false","false","Watch","https://kisumu-drawings.s3-us-west-1.amazonaws.com/30-016.png","7","Hat","30-016.png"
