"view_history","rt","trial_type","trial_index","plugin_version","time_elapsed","study_id","session_id","participant_id","catch_trial","prep_trial","sketcher_category","stimulus","response","response_category","sketch_id"
"[{""page_index"":0,""viewing_time"":52588},{""page_index"":1,""viewing_time"":10875},{""page_index"":2,""viewing_time"":4976},{""page_index"":3,""viewing_time"":9961}]","78400","instructions","0","null","78505","685c6ca90f751d3aae6b1794","685c6eb22b0820d14f2c4200","66f99b8e907d2350127aa0ae","","","","","","",""
"","4203","image-button-response","1","null","83729","685c6ca90f751d3aae6b1794","685c6eb22b0820d14f2c4200","66f99b8e907d2350127aa0ae","false","true","car","stimuli/prep_trials/1_car_prep.png","3","Car",""
"","3428","image-button-response","2","null","87666","685c6ca90f751d3aae6b1794","685c6eb22b0820d14f2c4200","66f99b8e907d2350127aa0ae","false","true","cat","stimuli/prep_trials/0_cat_prep.jpg","4","Cat",""
"","18741","image-button-response","3","null","106925","685c6ca90f751d3aae6b1794","685c6eb22b0820d14f2c4200","66f99b8e907d2350127aa0ae","false","false","Watch","https://kisumu-drawings.s3-us-west-1.amazonaws.com/101-015.png","11","Watch","101-015.png"
"","39751","image-button-response","4","null","147188","685c6ca90f751d3aae6b1794","685c6eb22b0820d14f2c4200","66f99b8e907d2350127aa0ae","false","false","Hat","https://kisumu-drawings.s3-us-west-1.amazonaws.com/99-007.png","6","Cup","99-007.png"
"","16561","image-button-response","5","null","164268","685c6ca90f751d3aae6b1794","685c6eb22b0820d14f2c4200","66f99b8e907d2350127aa0ae","false","false","Hat","https://kisumu-drawings.s3-us-west-1.amazonaws.com/112-014.png","7","Hat","112-014.png"
"","19604","image-button-response","6","null","184380","685c6ca90f751d3aae6b1794","685c6eb22b0820d14f2c4200","66f99b8e907d2350127aa0ae","false","false","Car","https://kisumu-drawings.s3-us-west-1.amazonaws.com/48-005.png","3","Car","48-005.png"
"","14503","image-button-response","7","null","199388","685c6ca90f751d3aae6b1794","685c6eb22b0820d14f2c4200","66f99b8e907d2350127aa0ae","false","false","Cat","https://kisumu-drawings.s3-us-west-1.amazonaws.com/1-012.png","9","Rabbit","1-012.png"
"","12242","image-button-response","8","null","212135","685c6ca90f751d3aae6b1794","685c6eb22b0820d14f2c4200","66f99b8e907d2350127aa0ae","false","false","Rabbit","https://kisumu-drawings.s3-us-west-1.amazonaws.com/19-007.png","10","Tree","19-007.png"
"","16932","image-button-response","9","null","229580","685c6ca90f751d3aae6b1794","685c6eb22b0820d14f2c4200","66f99b8e907d2350127aa0ae","false","false","House","https://kisumu-drawings.s3-us-west-1.amazonaws.com/45-010.png","8","House","45-010.png"
"","18821","image-button-response","10","null","248919","685c6ca90f751d3aae6b1794","685c6eb22b0820d14f2c4200","66f99b8e907d2350127aa0ae","false","false","Airplane","https://kisumu-drawings.s3-us-west-1.amazonaws.com/37-008.png","2","Bird","37-008.png"
"","19907","image-button-response","11","null","269340","685c6ca90f751d3aae6b1794","685c6eb22b0820d14f2c4200","66f99b8e907d2350127aa0ae","false","false","Tree","https://kisumu-drawings.s3-us-west-1.amazonaws.com/55-009.png","10","Tree","55-009.png"
"","13478","image-button-response","12","null","283323","685c6ca90f751d3aae6b1794","685c6eb22b0820d14f2c4200","66f99b8e907d2350127aa0ae","false","false","Tree","https://kisumu-drawings.s3-us-west-1.amazonaws.com/72-006.png","10","Tree","72-006.png"
"","18446","image-button-response","13","null","302279","685c6ca90f751d3aae6b1794","685c6eb22b0820d14f2c4200","66f99b8e907d2350127aa0ae","false","false","House","https://kisumu-drawings.s3-us-west-1.amazonaws.com/31-013.png","6","Cup","31-013.png"
"","14098","image-button-response","14","null","316883","685c6ca90f751d3aae6b1794","685c6eb22b0820d14f2c4200","66f99b8e907d2350127aa0ae","false","false","Cat","https://kisumu-drawings.s3-us-west-1.amazonaws.com/51-016.png","9","Rabbit","51-016.png"
"","17556","image-button-response","15","null","334945","685c6ca90f751d3aae6b1794","685c6eb22b0820d14f2c4200","66f99b8e907d2350127aa0ae","false","false","Rabbit","https://kisumu-drawings.s3-us-west-1.amazonaws.com/92-016.png","4","Cat","92-016.png"
"","13265","image-button-response","16","null","348718","685c6ca90f751d3aae6b1794","685c6eb22b0820d14f2c4200","66f99b8e907d2350127aa0ae","false","false","Watch","https://kisumu-drawings.s3-us-west-1.amazonaws.com/37-005.png","11","Watch","37-005.png"
"","30061","image-button-response","17","null","379284","685c6ca90f751d3aae6b1794","685c6eb22b0820d14f2c4200","66f99b8e907d2350127aa0ae","false","false","Hat","https://kisumu-drawings.s3-us-west-1.amazonaws.com/69-008.png","8","House","69-008.png"
"","62762","image-button-response","18","null","442558","685c6ca90f751d3aae6b1794","685c6eb22b0820d14f2c4200","66f99b8e907d2350127aa0ae","false","false","Bicycle","https://kisumu-drawings.s3-us-west-1.amazonaws.com/18-012.png","6","Cup","18-012.png"
"","12480","image-button-response","19","null","455545","685c6ca90f751d3aae6b1794","685c6eb22b0820d14f2c4200","66f99b8e907d2350127aa0ae","false","false","Airplane","https://kisumu-drawings.s3-us-west-1.amazonaws.com/86-009.png","0","Airplane","86-009.png"
"","17100","image-button-response","20","null","473149","685c6ca90f751d3aae6b1794","685c6eb22b0820d14f2c4200","66f99b8e907d2350127aa0ae","false","false","Watch","https://kisumu-drawings.s3-us-west-1.amazonaws.com/88-005.png","11","Watch","88-005.png"
"","114412","image-button-response","21","null","588070","685c6ca90f751d3aae6b1794","685c6eb22b0820d14f2c4200","66f99b8e907d2350127aa0ae","false","false","Bicycle","https://kisumu-drawings.s3-us-west-1.amazonaws.com/120-010.png","0","Airplane","120-010.png"
"","9809","image-button-response","22","null","598384","685c6ca90f751d3aae6b1794","685c6eb22b0820d14f2c4200","66f99b8e907d2350127aa0ae","false","false","Chair","https://kisumu-drawings.s3-us-west-1.amazonaws.com/99-012.png","5","Chair","99-012.png"
"","24910","image-button-response","23","null","623804","685c6ca90f751d3aae6b1794","685c6eb22b0820d14f2c4200","66f99b8e907d2350127aa0ae","false","false","Cup","https://kisumu-drawings.s3-us-west-1.amazonaws.com/9-013.png","5","Chair","9-013.png"
"","43683","image-button-response","24","null","667994","685c6ca90f751d3aae6b1794","685c6eb22b0820d14f2c4200","66f99b8e907d2350127aa0ae","false","false","Cup","https://kisumu-drawings.s3-us-west-1.amazonaws.com/91-015.png","5","Chair","91-015.png"
"","22548","image-button-response","25","null","691056","685c6ca90f751d3aae6b1794","685c6eb22b0820d14f2c4200","66f99b8e907d2350127aa0ae","false","false","Tree","https://kisumu-drawings.s3-us-west-1.amazonaws.com/34-010.png","10","Tree","34-010.png"
"","23497","image-button-response","26","null","715065","685c6ca90f751d3aae6b1794","685c6eb22b0820d14f2c4200","66f99b8e907d2350127aa0ae","false","false","Bicycle","https://kisumu-drawings.s3-us-west-1.amazonaws.com/79-013.png","1","Bicycle","79-013.png"
"","41389","image-button-response","27","null","756970","685c6ca90f751d3aae6b1794","685c6eb22b0820d14f2c4200","66f99b8e907d2350127aa0ae","false","false","Watch","https://kisumu-drawings.s3-us-west-1.amazonaws.com/5-009.png","5","Chair","5-009.png"
"","41048","image-button-response","28","null","798525","685c6ca90f751d3aae6b1794","685c6eb22b0820d14f2c4200","66f99b8e907d2350127aa0ae","false","false","Rabbit","https://kisumu-drawings.s3-us-west-1.amazonaws.com/30-014.png","9","Rabbit","30-014.png"
"","13614","image-button-response","29","null","812651","685c6ca90f751d3aae6b1794","685c6eb22b0820d14f2c4200","66f99b8e907d2350127aa0ae","false","false","Tree","https://kisumu-drawings.s3-us-west-1.amazonaws.com/101-007.png","10","Tree","101-007.png"
"","14472","image-button-response","30","null","827630","685c6ca90f751d3aae6b1794","685c6eb22b0820d14f2c4200","66f99b8e907d2350127aa0ae","false","false","Cat","https://kisumu-drawings.s3-us-west-1.amazonaws.com/61-013.png","4","Cat","61-013.png"
"","18440","image-button-response","31","null","846584","685c6ca90f751d3aae6b1794","685c6eb22b0820d14f2c4200","66f99b8e907d2350127aa0ae","false","false","Cup","https://kisumu-drawings.s3-us-west-1.amazonaws.com/38-010.png","6","Cup","38-010.png"
"","20127","image-button-response","32","null","867216","685c6ca90f751d3aae6b1794","685c6eb22b0820d14f2c4200","66f99b8e907d2350127aa0ae","false","false","House","https://kisumu-drawings.s3-us-west-1.amazonaws.com/7-013.png","8","House","7-013.png"
"","29565","image-button-response","33","null","897288","685c6ca90f751d3aae6b1794","685c6eb22b0820d14f2c4200","66f99b8e907d2350127aa0ae","false","false","Airplane","https://kisumu-drawings.s3-us-west-1.amazonaws.com/17-005.png","0","Airplane","17-005.png"
"","11651","image-button-response","34","null","909449","685c6ca90f751d3aae6b1794","685c6eb22b0820d14f2c4200","66f99b8e907d2350127aa0ae","false","false","House","https://kisumu-drawings.s3-us-west-1.amazonaws.com/116-015.png","8","House","116-015.png"
"","17327","image-button-response","35","null","927279","685c6ca90f751d3aae6b1794","685c6eb22b0820d14f2c4200","66f99b8e907d2350127aa0ae","false","false","Car","https://kisumu-drawings.s3-us-west-1.amazonaws.com/19-015.png","5","Chair","19-015.png"
"","9482","image-button-response","36","null","937273","685c6ca90f751d3aae6b1794","685c6eb22b0820d14f2c4200","66f99b8e907d2350127aa0ae","false","false","Chair","https://kisumu-drawings.s3-us-west-1.amazonaws.com/21-006.png","5","Chair","21-006.png"
"","14952","image-button-response","37","null","952734","685c6ca90f751d3aae6b1794","685c6eb22b0820d14f2c4200","66f99b8e907d2350127aa0ae","false","false","Car","https://kisumu-drawings.s3-us-west-1.amazonaws.com/61-012.png","3","Car","61-012.png"
"","11144","image-button-response","38","null","964395","685c6ca90f751d3aae6b1794","685c6eb22b0820d14f2c4200","66f99b8e907d2350127aa0ae","false","false","Cup","https://kisumu-drawings.s3-us-west-1.amazonaws.com/105-011.png","6","Cup","105-011.png"
"","13773","image-button-response","39","null","978682","685c6ca90f751d3aae6b1794","685c6eb22b0820d14f2c4200","66f99b8e907d2350127aa0ae","false","false","Rabbit","https://kisumu-drawings.s3-us-west-1.amazonaws.com/55-008.png","10","Tree","55-008.png"
"","8171","image-button-response","40","null","987361","685c6ca90f751d3aae6b1794","685c6eb22b0820d14f2c4200","66f99b8e907d2350127aa0ae","false","false","Watch","https://kisumu-drawings.s3-us-west-1.amazonaws.com/61-011.png","11","Watch","61-011.png"
"","7028","image-button-response","41","null","994899","685c6ca90f751d3aae6b1794","685c6eb22b0820d14f2c4200","66f99b8e907d2350127aa0ae","false","false","Cat","https://kisumu-drawings.s3-us-west-1.amazonaws.com/21-005.png","4","Cat","21-005.png"
"","7496","image-button-response","42","null","1002905","685c6ca90f751d3aae6b1794","685c6eb22b0820d14f2c4200","66f99b8e907d2350127aa0ae","false","false","Cat","https://kisumu-drawings.s3-us-west-1.amazonaws.com/88-013.png","4","Cat","88-013.png"
"","8747","image-button-response","43","null","1012167","685c6ca90f751d3aae6b1794","685c6eb22b0820d14f2c4200","66f99b8e907d2350127aa0ae","false","false","Chair","https://kisumu-drawings.s3-us-west-1.amazonaws.com/49-005.png","8","House","49-005.png"
"","43158","image-button-response","44","null","1055835","685c6ca90f751d3aae6b1794","685c6eb22b0820d14f2c4200","66f99b8e907d2350127aa0ae","false","false","Watch","https://kisumu-drawings.s3-us-west-1.amazonaws.com/49-015.png","11","Watch","49-015.png"
"","12514","image-button-response","45","null","1068862","685c6ca90f751d3aae6b1794","685c6eb22b0820d14f2c4200","66f99b8e907d2350127aa0ae","false","false","Cup","https://kisumu-drawings.s3-us-west-1.amazonaws.com/65-008.png","6","Cup","65-008.png"
"","17917","image-button-response","46","null","1087297","685c6ca90f751d3aae6b1794","685c6eb22b0820d14f2c4200","66f99b8e907d2350127aa0ae","false","false","Bicycle","https://kisumu-drawings.s3-us-west-1.amazonaws.com/86-010.png","0","Airplane","86-010.png"
"","12548","image-button-response","47","null","1100351","685c6ca90f751d3aae6b1794","685c6eb22b0820d14f2c4200","66f99b8e907d2350127aa0ae","false","false","Airplane","https://kisumu-drawings.s3-us-west-1.amazonaws.com/78-008.png","0","Airplane","78-008.png"
"","9352","image-button-response","48","null","1110213","685c6ca90f751d3aae6b1794","685c6eb22b0820d14f2c4200","66f99b8e907d2350127aa0ae","false","false","Bird","https://kisumu-drawings.s3-us-west-1.amazonaws.com/40-007.png","0","Airplane","40-007.png"
"","12574","image-button-response","49","null","1123296","685c6ca90f751d3aae6b1794","685c6eb22b0820d14f2c4200","66f99b8e907d2350127aa0ae","false","false","Bird","https://kisumu-drawings.s3-us-west-1.amazonaws.com/87-016.png","0","Airplane","87-016.png"
"","6660","image-button-response","50","null","1130497","685c6ca90f751d3aae6b1794","685c6eb22b0820d14f2c4200","66f99b8e907d2350127aa0ae","true","false","airplane","stimuli/catch_trials/0_airplane_catch.jpg","0","Airplane",""
"","17420","image-button-response","51","null","1148421","685c6ca90f751d3aae6b1794","685c6eb22b0820d14f2c4200","66f99b8e907d2350127aa0ae","false","false","Car","https://kisumu-drawings.s3-us-west-1.amazonaws.com/40-005.png","3","Car","40-005.png"
"","13589","image-button-response","52","null","1162515","685c6ca90f751d3aae6b1794","685c6eb22b0820d14f2c4200","66f99b8e907d2350127aa0ae","false","false","House","https://kisumu-drawings.s3-us-west-1.amazonaws.com/73-013.png","8","House","73-013.png"
"","12062","image-button-response","53","null","1175081","685c6ca90f751d3aae6b1794","685c6eb22b0820d14f2c4200","66f99b8e907d2350127aa0ae","false","false","Hat","https://kisumu-drawings.s3-us-west-1.amazonaws.com/54-014.png","7","Hat","54-014.png"
"","11419","image-button-response","54","null","1187007","685c6ca90f751d3aae6b1794","685c6eb22b0820d14f2c4200","66f99b8e907d2350127aa0ae","false","false","Car","https://kisumu-drawings.s3-us-west-1.amazonaws.com/101-013.png","3","Car","101-013.png"
"","11967","image-button-response","55","null","1199478","685c6ca90f751d3aae6b1794","685c6eb22b0820d14f2c4200","66f99b8e907d2350127aa0ae","false","false","Rabbit","https://kisumu-drawings.s3-us-west-1.amazonaws.com/68-005.png","9","Rabbit","68-005.png"
"","8746","image-button-response","56","null","1208744","685c6ca90f751d3aae6b1794","685c6eb22b0820d14f2c4200","66f99b8e907d2350127aa0ae","false","false","Chair","https://kisumu-drawings.s3-us-west-1.amazonaws.com/103-013.png","5","Chair","103-013.png"
"","10604","image-button-response","57","null","1219862","685c6ca90f751d3aae6b1794","685c6eb22b0820d14f2c4200","66f99b8e907d2350127aa0ae","false","false","Cat","https://kisumu-drawings.s3-us-west-1.amazonaws.com/101-011.png","4","Cat","101-011.png"
"","12612","image-button-response","58","null","1232990","685c6ca90f751d3aae6b1794","685c6eb22b0820d14f2c4200","66f99b8e907d2350127aa0ae","false","false","Airplane","https://kisumu-drawings.s3-us-west-1.amazonaws.com/120-005.png","3","Car","120-005.png"
"","9330","image-button-response","59","null","1242833","685c6ca90f751d3aae6b1794","685c6eb22b0820d14f2c4200","66f99b8e907d2350127aa0ae","false","false","Airplane","https://kisumu-drawings.s3-us-west-1.amazonaws.com/46-006.png","0","Airplane","46-006.png"
"","9597","image-button-response","60","null","1252963","685c6ca90f751d3aae6b1794","685c6eb22b0820d14f2c4200","66f99b8e907d2350127aa0ae","false","false","Bird","https://kisumu-drawings.s3-us-west-1.amazonaws.com/47-005.png","4","Cat","47-005.png"
"","9833","image-button-response","61","null","1263305","685c6ca90f751d3aae6b1794","685c6eb22b0820d14f2c4200","66f99b8e907d2350127aa0ae","false","false","Bird","https://kisumu-drawings.s3-us-west-1.amazonaws.com/18-013.png","11","Watch","18-013.png"
"","11892","image-button-response","62","null","1275705","685c6ca90f751d3aae6b1794","685c6eb22b0820d14f2c4200","66f99b8e907d2350127aa0ae","false","false","Chair","https://kisumu-drawings.s3-us-west-1.amazonaws.com/3-010.png","10","Tree","3-010.png"
"","14382","image-button-response","63","null","1290592","685c6ca90f751d3aae6b1794","685c6eb22b0820d14f2c4200","66f99b8e907d2350127aa0ae","false","false","Hat","https://kisumu-drawings.s3-us-west-1.amazonaws.com/25-011.png","3","Car","25-011.png"
"","9805","image-button-response","64","null","1300909","685c6ca90f751d3aae6b1794","685c6eb22b0820d14f2c4200","66f99b8e907d2350127aa0ae","false","false","Rabbit","https://kisumu-drawings.s3-us-west-1.amazonaws.com/109-008.png","9","Rabbit","109-008.png"
"","15031","image-button-response","65","null","1316457","685c6ca90f751d3aae6b1794","685c6eb22b0820d14f2c4200","66f99b8e907d2350127aa0ae","false","false","Cup","https://kisumu-drawings.s3-us-west-1.amazonaws.com/45-008.png","6","Cup","45-008.png"
"","16134","image-button-response","66","null","1333103","685c6ca90f751d3aae6b1794","685c6eb22b0820d14f2c4200","66f99b8e907d2350127aa0ae","false","false","Tree","https://kisumu-drawings.s3-us-west-1.amazonaws.com/93-014.png","10","Tree","93-014.png"
"","9954","image-button-response","67","null","1343569","685c6ca90f751d3aae6b1794","685c6eb22b0820d14f2c4200","66f99b8e907d2350127aa0ae","false","false","House","https://kisumu-drawings.s3-us-west-1.amazonaws.com/88-010.png","8","House","88-010.png"
"","12400","image-button-response","68","null","1356479","685c6ca90f751d3aae6b1794","685c6eb22b0820d14f2c4200","66f99b8e907d2350127aa0ae","false","false","Bicycle","https://kisumu-drawings.s3-us-west-1.amazonaws.com/39-009.png","2","Bird","39-009.png"
"","11009","image-button-response","69","null","1367995","685c6ca90f751d3aae6b1794","685c6eb22b0820d14f2c4200","66f99b8e907d2350127aa0ae","false","false","Bird","https://kisumu-drawings.s3-us-west-1.amazonaws.com/101-012.png","2","Bird","101-012.png"
"","11487","image-button-response","70","null","1379992","685c6ca90f751d3aae6b1794","685c6eb22b0820d14f2c4200","66f99b8e907d2350127aa0ae","false","false","Bird","https://kisumu-drawings.s3-us-west-1.amazonaws.com/80-008.png","2","Bird","80-008.png"
"","5455","image-button-response","71","null","1385962","685c6ca90f751d3aae6b1794","685c6eb22b0820d14f2c4200","66f99b8e907d2350127aa0ae","false","false","Tree","https://kisumu-drawings.s3-us-west-1.amazonaws.com/1-005.png","9","Rabbit","1-005.png"
"","6848","image-button-response","72","null","1393322","685c6ca90f751d3aae6b1794","685c6eb22b0820d14f2c4200","66f99b8e907d2350127aa0ae","false","false","Bicycle","https://kisumu-drawings.s3-us-west-1.amazonaws.com/47-009.png","3","Car","47-009.png"
"","9531","image-button-response","73","null","1403360","685c6ca90f751d3aae6b1794","685c6eb22b0820d14f2c4200","66f99b8e907d2350127aa0ae","false","false","Car","https://kisumu-drawings.s3-us-west-1.amazonaws.com/88-016.png","3","Car","88-016.png"
"","12728","image-button-response","74","null","1416604","685c6ca90f751d3aae6b1794","685c6eb22b0820d14f2c4200","66f99b8e907d2350127aa0ae","false","false","Hat","https://kisumu-drawings.s3-us-west-1.amazonaws.com/5-007.png","5","Chair","5-007.png"
"","9770","image-button-response","75","null","1426884","685c6ca90f751d3aae6b1794","685c6eb22b0820d14f2c4200","66f99b8e907d2350127aa0ae","false","false","Chair","https://kisumu-drawings.s3-us-west-1.amazonaws.com/65-012.png","3","Car","65-012.png"
