"view_history","rt","trial_type","trial_index","plugin_version","time_elapsed","study_id","session_id","participant_id","catch_trial","prep_trial","sketcher_category","stimulus","response","response_category","sketch_id"
"[{""page_index"":0,""viewing_time"":12883},{""page_index"":1,""viewing_time"":5550},{""page_index"":2,""viewing_time"":6133},{""page_index"":3,""viewing_time"":19101}]","43668","instructions","0","null","43683","685c6ca90f751d3aae6b1794","685c6e109c80f13482510c9b","6700913b83a64ec85e20319a","","","","","","",""
"","2075","image-button-response","1","null","46766","685c6ca90f751d3aae6b1794","685c6e109c80f13482510c9b","6700913b83a64ec85e20319a","false","true","car","stimuli/prep_trials/1_car_prep.png","3","Car",""
"","2044","image-button-response","2","null","49316","685c6ca90f751d3aae6b1794","685c6e109c80f13482510c9b","6700913b83a64ec85e20319a","false","true","cat","stimuli/prep_trials/0_cat_prep.jpg","4","Cat",""
"","3179","image-button-response","3","null","52999","685c6ca90f751d3aae6b1794","685c6e109c80f13482510c9b","6700913b83a64ec85e20319a","false","false","Car","https://kisumu-drawings.s3-us-west-1.amazonaws.com/24-005.png","3","Car","24-005.png"
"","16330","image-button-response","4","null","69832","685c6ca90f751d3aae6b1794","685c6e109c80f13482510c9b","6700913b83a64ec85e20319a","false","false","Watch","https://kisumu-drawings.s3-us-west-1.amazonaws.com/24-012.png","10","Tree","24-012.png"
"","23513","image-button-response","5","null","93849","685c6ca90f751d3aae6b1794","685c6e109c80f13482510c9b","6700913b83a64ec85e20319a","false","false","Cat","https://kisumu-drawings.s3-us-west-1.amazonaws.com/3-009.png","4","Cat","3-009.png"
"","10579","image-button-response","6","null","104932","685c6ca90f751d3aae6b1794","685c6e109c80f13482510c9b","6700913b83a64ec85e20319a","false","false","Bicycle","https://kisumu-drawings.s3-us-west-1.amazonaws.com/58-014.png","0","Airplane","58-014.png"
"","6696","image-button-response","7","null","112132","685c6ca90f751d3aae6b1794","685c6e109c80f13482510c9b","6700913b83a64ec85e20319a","false","false","Chair","https://kisumu-drawings.s3-us-west-1.amazonaws.com/104-009.png","5","Chair","104-009.png"
"","16380","image-button-response","8","null","129015","685c6ca90f751d3aae6b1794","685c6e109c80f13482510c9b","6700913b83a64ec85e20319a","false","false","Hat","https://kisumu-drawings.s3-us-west-1.amazonaws.com/24-016.png","6","Cup","24-016.png"
"","10292","image-button-response","9","null","139816","685c6ca90f751d3aae6b1794","685c6e109c80f13482510c9b","6700913b83a64ec85e20319a","false","false","Rabbit","https://kisumu-drawings.s3-us-west-1.amazonaws.com/24-011.png","4","Cat","24-011.png"
"","3146","image-button-response","10","null","143465","685c6ca90f751d3aae6b1794","685c6e109c80f13482510c9b","6700913b83a64ec85e20319a","false","false","Tree","https://kisumu-drawings.s3-us-west-1.amazonaws.com/24-013.png","10","Tree","24-013.png"
"","15630","image-button-response","11","null","159598","685c6ca90f751d3aae6b1794","685c6e109c80f13482510c9b","6700913b83a64ec85e20319a","false","false","Watch","https://kisumu-drawings.s3-us-west-1.amazonaws.com/65-010.png","6","Cup","65-010.png"
"","5414","image-button-response","12","null","165516","685c6ca90f751d3aae6b1794","685c6e109c80f13482510c9b","6700913b83a64ec85e20319a","false","false","Cup","https://kisumu-drawings.s3-us-west-1.amazonaws.com/24-014.png","6","Cup","24-014.png"
"","20063","image-button-response","13","null","186081","685c6ca90f751d3aae6b1794","685c6e109c80f13482510c9b","6700913b83a64ec85e20319a","false","false","Hat","https://kisumu-drawings.s3-us-west-1.amazonaws.com/3-012.png","11","Watch","3-012.png"
"","8730","image-button-response","14","null","195314","685c6ca90f751d3aae6b1794","685c6e109c80f13482510c9b","6700913b83a64ec85e20319a","false","false","Rabbit","https://kisumu-drawings.s3-us-west-1.amazonaws.com/3-014.png","4","Cat","3-014.png"
"","7698","image-button-response","15","null","203515","685c6ca90f751d3aae6b1794","685c6e109c80f13482510c9b","6700913b83a64ec85e20319a","false","false","Chair","https://kisumu-drawings.s3-us-west-1.amazonaws.com/90-011.png","5","Chair","90-011.png"
"","9330","image-button-response","16","null","213348","685c6ca90f751d3aae6b1794","685c6e109c80f13482510c9b","6700913b83a64ec85e20319a","false","false","Watch","https://kisumu-drawings.s3-us-west-1.amazonaws.com/104-005.png","11","Watch","104-005.png"
"","5598","image-button-response","17","null","219449","685c6ca90f751d3aae6b1794","685c6e109c80f13482510c9b","6700913b83a64ec85e20319a","false","false","Bird","https://kisumu-drawings.s3-us-west-1.amazonaws.com/24-009.png","2","Bird","24-009.png"
"","5513","image-button-response","18","null","225457","685c6ca90f751d3aae6b1794","685c6e109c80f13482510c9b","6700913b83a64ec85e20319a","false","false","Bird","https://kisumu-drawings.s3-us-west-1.amazonaws.com/65-005.png","8","House","65-005.png"
"","4330","image-button-response","19","null","230282","685c6ca90f751d3aae6b1794","685c6e109c80f13482510c9b","6700913b83a64ec85e20319a","false","false","Bird","https://kisumu-drawings.s3-us-west-1.amazonaws.com/90-010.png","0","Airplane","90-010.png"
"","6280","image-button-response","20","null","237056","685c6ca90f751d3aae6b1794","685c6e109c80f13482510c9b","6700913b83a64ec85e20319a","false","false","Car","https://kisumu-drawings.s3-us-west-1.amazonaws.com/104-014.png","3","Car","104-014.png"
"","30448","image-button-response","21","null","267993","685c6ca90f751d3aae6b1794","685c6e109c80f13482510c9b","6700913b83a64ec85e20319a","false","false","House","https://kisumu-drawings.s3-us-west-1.amazonaws.com/3-013.png","5","Chair","3-013.png"
"","12597","image-button-response","22","null","281091","685c6ca90f751d3aae6b1794","685c6e109c80f13482510c9b","6700913b83a64ec85e20319a","false","false","Hat","https://kisumu-drawings.s3-us-west-1.amazonaws.com/65-014.png","6","Cup","65-014.png"
"","1630","image-button-response","23","null","283224","685c6ca90f751d3aae6b1794","685c6e109c80f13482510c9b","6700913b83a64ec85e20319a","true","false","airplane","stimuli/catch_trials/0_airplane_catch.jpg","0","Airplane",""
"","8697","image-button-response","24","null","292424","685c6ca90f751d3aae6b1794","685c6e109c80f13482510c9b","6700913b83a64ec85e20319a","false","false","Watch","https://kisumu-drawings.s3-us-west-1.amazonaws.com/90-005.png","11","Watch","90-005.png"
"","3530","image-button-response","25","null","296457","685c6ca90f751d3aae6b1794","685c6e109c80f13482510c9b","6700913b83a64ec85e20319a","false","false","House","https://kisumu-drawings.s3-us-west-1.amazonaws.com/24-015.png","8","House","24-015.png"
"","4947","image-button-response","26","null","301907","685c6ca90f751d3aae6b1794","685c6e109c80f13482510c9b","6700913b83a64ec85e20319a","false","false","Cat","https://kisumu-drawings.s3-us-west-1.amazonaws.com/90-013.png","4","Cat","90-013.png"
"","2214","image-button-response","27","null","304624","685c6ca90f751d3aae6b1794","685c6e109c80f13482510c9b","6700913b83a64ec85e20319a","false","false","Cat","https://kisumu-drawings.s3-us-west-1.amazonaws.com/24-007.png","4","Cat","24-007.png"
"","4147","image-button-response","28","null","309273","685c6ca90f751d3aae6b1794","685c6e109c80f13482510c9b","6700913b83a64ec85e20319a","false","false","Cup","https://kisumu-drawings.s3-us-west-1.amazonaws.com/65-008.png","6","Cup","65-008.png"
"","5580","image-button-response","29","null","315357","685c6ca90f751d3aae6b1794","685c6e109c80f13482510c9b","6700913b83a64ec85e20319a","false","false","Chair","https://kisumu-drawings.s3-us-west-1.amazonaws.com/65-012.png","5","Chair","65-012.png"
"","21114","image-button-response","30","null","336972","685c6ca90f751d3aae6b1794","685c6e109c80f13482510c9b","6700913b83a64ec85e20319a","false","false","Watch","https://kisumu-drawings.s3-us-west-1.amazonaws.com/3-016.png","10","Tree","3-016.png"
"","29565","image-button-response","31","null","367039","685c6ca90f751d3aae6b1794","685c6e109c80f13482510c9b","6700913b83a64ec85e20319a","false","false","Chair","https://kisumu-drawings.s3-us-west-1.amazonaws.com/3-010.png","2","Bird","3-010.png"
"","10531","image-button-response","32","null","378073","685c6ca90f751d3aae6b1794","685c6e109c80f13482510c9b","6700913b83a64ec85e20319a","false","false","Rabbit","https://kisumu-drawings.s3-us-west-1.amazonaws.com/90-007.png","4","Cat","90-007.png"
"","5646","image-button-response","33","null","384222","685c6ca90f751d3aae6b1794","685c6e109c80f13482510c9b","6700913b83a64ec85e20319a","false","false","Car","https://kisumu-drawings.s3-us-west-1.amazonaws.com/90-012.png","3","Car","90-012.png"
"","4148","image-button-response","34","null","388872","685c6ca90f751d3aae6b1794","685c6e109c80f13482510c9b","6700913b83a64ec85e20319a","false","false","Airplane","https://kisumu-drawings.s3-us-west-1.amazonaws.com/58-013.png","0","Airplane","58-013.png"
"","4264","image-button-response","35","null","393638","685c6ca90f751d3aae6b1794","685c6e109c80f13482510c9b","6700913b83a64ec85e20319a","false","false","Car","https://kisumu-drawings.s3-us-west-1.amazonaws.com/58-010.png","3","Car","58-010.png"
"","7697","image-button-response","36","null","401838","685c6ca90f751d3aae6b1794","685c6e109c80f13482510c9b","6700913b83a64ec85e20319a","false","false","Hat","https://kisumu-drawings.s3-us-west-1.amazonaws.com/90-009.png","7","Hat","90-009.png"
"","8364","image-button-response","37","null","410705","685c6ca90f751d3aae6b1794","685c6e109c80f13482510c9b","6700913b83a64ec85e20319a","false","false","Car","https://kisumu-drawings.s3-us-west-1.amazonaws.com/3-008.png","3","Car","3-008.png"
"","3413","image-button-response","38","null","414622","685c6ca90f751d3aae6b1794","685c6e109c80f13482510c9b","6700913b83a64ec85e20319a","false","false","Bicycle","https://kisumu-drawings.s3-us-west-1.amazonaws.com/90-015.png","1","Bicycle","90-015.png"
"","10131","image-button-response","39","null","425255","685c6ca90f751d3aae6b1794","685c6e109c80f13482510c9b","6700913b83a64ec85e20319a","false","false","Cup","https://kisumu-drawings.s3-us-west-1.amazonaws.com/58-011.png","6","Cup","58-011.png"
"","9580","image-button-response","40","null","435338","685c6ca90f751d3aae6b1794","685c6e109c80f13482510c9b","6700913b83a64ec85e20319a","false","false","Rabbit","https://kisumu-drawings.s3-us-west-1.amazonaws.com/58-007.png","2","Bird","58-007.png"
"","5731","image-button-response","41","null","441572","685c6ca90f751d3aae6b1794","685c6e109c80f13482510c9b","6700913b83a64ec85e20319a","false","false","Tree","https://kisumu-drawings.s3-us-west-1.amazonaws.com/90-006.png","10","Tree","90-006.png"
"","7014","image-button-response","42","null","449088","685c6ca90f751d3aae6b1794","685c6e109c80f13482510c9b","6700913b83a64ec85e20319a","false","false","Cup","https://kisumu-drawings.s3-us-west-1.amazonaws.com/104-008.png","6","Cup","104-008.png"
"","5263","image-button-response","43","null","454855","685c6ca90f751d3aae6b1794","685c6e109c80f13482510c9b","6700913b83a64ec85e20319a","false","false","Bird","https://kisumu-drawings.s3-us-west-1.amazonaws.com/58-015.png","2","Bird","58-015.png"
"","24748","image-button-response","44","null","480105","685c6ca90f751d3aae6b1794","685c6e109c80f13482510c9b","6700913b83a64ec85e20319a","false","false","Bird","https://kisumu-drawings.s3-us-west-1.amazonaws.com/3-007.png","8","House","3-007.png"
"","10947","image-button-response","45","null","491554","685c6ca90f751d3aae6b1794","685c6e109c80f13482510c9b","6700913b83a64ec85e20319a","false","false","Bicycle","https://kisumu-drawings.s3-us-west-1.amazonaws.com/65-007.png","1","Bicycle","65-007.png"
"","4080","image-button-response","46","null","496138","685c6ca90f751d3aae6b1794","685c6e109c80f13482510c9b","6700913b83a64ec85e20319a","false","false","Rabbit","https://kisumu-drawings.s3-us-west-1.amazonaws.com/104-012.png","9","Rabbit","104-012.png"
"","3330","image-button-response","47","null","499971","685c6ca90f751d3aae6b1794","685c6e109c80f13482510c9b","6700913b83a64ec85e20319a","false","false","House","https://kisumu-drawings.s3-us-west-1.amazonaws.com/65-009.png","8","House","65-009.png"
"","4445","image-button-response","48","null","504920","685c6ca90f751d3aae6b1794","685c6e109c80f13482510c9b","6700913b83a64ec85e20319a","false","false","Tree","https://kisumu-drawings.s3-us-west-1.amazonaws.com/65-011.png","10","Tree","65-011.png"
"","8897","image-button-response","49","null","514320","685c6ca90f751d3aae6b1794","685c6e109c80f13482510c9b","6700913b83a64ec85e20319a","false","false","Bicycle","https://kisumu-drawings.s3-us-west-1.amazonaws.com/24-010.png","10","Tree","24-010.png"
"","2847","image-button-response","50","null","517670","685c6ca90f751d3aae6b1794","685c6e109c80f13482510c9b","6700913b83a64ec85e20319a","false","false","Cup","https://kisumu-drawings.s3-us-west-1.amazonaws.com/90-008.png","6","Cup","90-008.png"
"","1696","image-button-response","51","null","519870","685c6ca90f751d3aae6b1794","685c6e109c80f13482510c9b","6700913b83a64ec85e20319a","false","false","Airplane","https://kisumu-drawings.s3-us-west-1.amazonaws.com/104-006.png","0","Airplane","104-006.png"
"","9830","image-button-response","52","null","530203","685c6ca90f751d3aae6b1794","685c6e109c80f13482510c9b","6700913b83a64ec85e20319a","false","false","Bicycle","https://kisumu-drawings.s3-us-west-1.amazonaws.com/3-006.png","1","Bicycle","3-006.png"
"","9080","image-button-response","53","null","539787","685c6ca90f751d3aae6b1794","685c6e109c80f13482510c9b","6700913b83a64ec85e20319a","false","false","Airplane","https://kisumu-drawings.s3-us-west-1.amazonaws.com/65-006.png","8","House","65-006.png"
"","3380","image-button-response","54","null","543671","685c6ca90f751d3aae6b1794","685c6e109c80f13482510c9b","6700913b83a64ec85e20319a","false","false","House","https://kisumu-drawings.s3-us-west-1.amazonaws.com/90-016.png","8","House","90-016.png"
"","3696","image-button-response","55","null","547870","685c6ca90f751d3aae6b1794","685c6e109c80f13482510c9b","6700913b83a64ec85e20319a","false","false","Car","https://kisumu-drawings.s3-us-west-1.amazonaws.com/65-013.png","1","Bicycle","65-013.png"
"","22881","image-button-response","56","null","571253","685c6ca90f751d3aae6b1794","685c6e109c80f13482510c9b","6700913b83a64ec85e20319a","false","false","Airplane","https://kisumu-drawings.s3-us-west-1.amazonaws.com/3-005.png","0","Airplane","3-005.png"
"","9697","image-button-response","57","null","581453","685c6ca90f751d3aae6b1794","685c6e109c80f13482510c9b","6700913b83a64ec85e20319a","false","false","Hat","https://kisumu-drawings.s3-us-west-1.amazonaws.com/58-012.png","0","Airplane","58-012.png"
"","5547","image-button-response","58","null","587503","685c6ca90f751d3aae6b1794","685c6e109c80f13482510c9b","6700913b83a64ec85e20319a","false","false","Rabbit","https://kisumu-drawings.s3-us-west-1.amazonaws.com/65-016.png","4","Cat","65-016.png"
"","3379","image-button-response","59","null","591385","685c6ca90f751d3aae6b1794","685c6e109c80f13482510c9b","6700913b83a64ec85e20319a","false","false","House","https://kisumu-drawings.s3-us-west-1.amazonaws.com/58-005.png","8","House","58-005.png"
"","3880","image-button-response","60","null","595770","685c6ca90f751d3aae6b1794","685c6e109c80f13482510c9b","6700913b83a64ec85e20319a","false","false","Chair","https://kisumu-drawings.s3-us-west-1.amazonaws.com/24-006.png","8","House","24-006.png"
"","3797","image-button-response","61","null","600069","685c6ca90f751d3aae6b1794","685c6e109c80f13482510c9b","6700913b83a64ec85e20319a","false","false","Tree","https://kisumu-drawings.s3-us-west-1.amazonaws.com/58-006.png","10","Tree","58-006.png"
"","3913","image-button-response","62","null","604486","685c6ca90f751d3aae6b1794","685c6e109c80f13482510c9b","6700913b83a64ec85e20319a","false","false","Chair","https://kisumu-drawings.s3-us-west-1.amazonaws.com/58-008.png","5","Chair","58-008.png"
"","4597","image-button-response","63","null","609586","685c6ca90f751d3aae6b1794","685c6e109c80f13482510c9b","6700913b83a64ec85e20319a","false","false","Cat","https://kisumu-drawings.s3-us-west-1.amazonaws.com/104-013.png","4","Cat","104-013.png"
"","3897","image-button-response","64","null","613986","685c6ca90f751d3aae6b1794","685c6e109c80f13482510c9b","6700913b83a64ec85e20319a","false","false","Tree","https://kisumu-drawings.s3-us-west-1.amazonaws.com/104-007.png","10","Tree","104-007.png"
"","17381","image-button-response","65","null","631869","685c6ca90f751d3aae6b1794","685c6e109c80f13482510c9b","6700913b83a64ec85e20319a","false","false","Airplane","https://kisumu-drawings.s3-us-west-1.amazonaws.com/24-008.png","2","Bird","24-008.png"
"","2813","image-button-response","66","null","635185","685c6ca90f751d3aae6b1794","685c6e109c80f13482510c9b","6700913b83a64ec85e20319a","false","false","House","https://kisumu-drawings.s3-us-west-1.amazonaws.com/104-011.png","8","House","104-011.png"
"","2065","image-button-response","67","null","637752","685c6ca90f751d3aae6b1794","685c6e109c80f13482510c9b","6700913b83a64ec85e20319a","false","false","Cat","https://kisumu-drawings.s3-us-west-1.amazonaws.com/57-008.png","4","Cat","57-008.png"
"","2647","image-button-response","68","null","640902","685c6ca90f751d3aae6b1794","685c6e109c80f13482510c9b","6700913b83a64ec85e20319a","false","false","Bicycle","https://kisumu-drawings.s3-us-west-1.amazonaws.com/104-016.png","1","Bicycle","104-016.png"
"","2764","image-button-response","69","null","644169","685c6ca90f751d3aae6b1794","685c6e109c80f13482510c9b","6700913b83a64ec85e20319a","false","false","Cup","https://kisumu-drawings.s3-us-west-1.amazonaws.com/3-011.png","6","Cup","3-011.png"
"","2928","image-button-response","70","null","647601","685c6ca90f751d3aae6b1794","685c6e109c80f13482510c9b","6700913b83a64ec85e20319a","false","false","Hat","https://kisumu-drawings.s3-us-west-1.amazonaws.com/104-010.png","7","Hat","104-010.png"
"","3881","image-button-response","71","null","651985","685c6ca90f751d3aae6b1794","685c6e109c80f13482510c9b","6700913b83a64ec85e20319a","false","false","Tree","https://kisumu-drawings.s3-us-west-1.amazonaws.com/3-015.png","10","Tree","3-015.png"
"","2747","image-button-response","72","null","655235","685c6ca90f751d3aae6b1794","685c6e109c80f13482510c9b","6700913b83a64ec85e20319a","false","false","Airplane","https://kisumu-drawings.s3-us-west-1.amazonaws.com/90-014.png","0","Airplane","90-014.png"
"","2881","image-button-response","73","null","658619","685c6ca90f751d3aae6b1794","685c6e109c80f13482510c9b","6700913b83a64ec85e20319a","false","false","Cat","https://kisumu-drawings.s3-us-west-1.amazonaws.com/65-015.png","4","Cat","65-015.png"
"","2979","image-button-response","74","null","662102","685c6ca90f751d3aae6b1794","685c6e109c80f13482510c9b","6700913b83a64ec85e20319a","false","false","Watch","https://kisumu-drawings.s3-us-west-1.amazonaws.com/58-016.png","11","Watch","58-016.png"
"","3797","image-button-response","75","null","666402","685c6ca90f751d3aae6b1794","685c6e109c80f13482510c9b","6700913b83a64ec85e20319a","false","false","Bird","https://kisumu-drawings.s3-us-west-1.amazonaws.com/104-015.png","2","Bird","104-015.png"
