"view_history","rt","trial_type","trial_index","plugin_version","time_elapsed","study_id","session_id","participant_id","catch_trial","prep_trial","sketcher_category","stimulus","response","response_category","sketch_id"
"[{""page_index"":0,""viewing_time"":19364},{""page_index"":1,""viewing_time"":7919},{""page_index"":2,""viewing_time"":9488},{""page_index"":3,""viewing_time"":28997}]","65768","instructions","0","null","65790","685c6ca90f751d3aae6b1794","685c6e395c02f0663230eb36","671047a7ee64aa63b31dd2d9","","","","","","",""
"","5840","image-button-response","1","null","72649","685c6ca90f751d3aae6b1794","685c6e395c02f0663230eb36","671047a7ee64aa63b31dd2d9","false","true","car","stimuli/prep_trials/1_car_prep.png","3","Car",""
"","4013","image-button-response","2","null","77177","685c6ca90f751d3aae6b1794","685c6e395c02f0663230eb36","671047a7ee64aa63b31dd2d9","false","true","cat","stimuli/prep_trials/0_cat_prep.jpg","4","Cat",""
"","6918","image-button-response","3","null","84599","685c6ca90f751d3aae6b1794","685c6e395c02f0663230eb36","671047a7ee64aa63b31dd2d9","false","false","House","https://kisumu-drawings.s3-us-west-1.amazonaws.com/44-009.png","8","House","44-009.png"
"","4186","image-button-response","4","null","89291","685c6ca90f751d3aae6b1794","685c6e395c02f0663230eb36","671047a7ee64aa63b31dd2d9","false","false","Cup","https://kisumu-drawings.s3-us-west-1.amazonaws.com/44-012.png","6","Cup","44-012.png"
"","8102","image-button-response","5","null","97901","685c6ca90f751d3aae6b1794","685c6e395c02f0663230eb36","671047a7ee64aa63b31dd2d9","false","false","Tree","https://kisumu-drawings.s3-us-west-1.amazonaws.com/77-012.png","10","Tree","77-012.png"
"","7682","image-button-response","6","null","106087","685c6ca90f751d3aae6b1794","685c6e395c02f0663230eb36","671047a7ee64aa63b31dd2d9","false","false","Cup","https://kisumu-drawings.s3-us-west-1.amazonaws.com/76-010.png","6","Cup","76-010.png"
"","10208","image-button-response","7","null","116804","685c6ca90f751d3aae6b1794","685c6e395c02f0663230eb36","671047a7ee64aa63b31dd2d9","false","false","House","https://kisumu-drawings.s3-us-west-1.amazonaws.com/36-010.png","8","House","36-010.png"
"","27706","image-button-response","8","null","145029","685c6ca90f751d3aae6b1794","685c6e395c02f0663230eb36","671047a7ee64aa63b31dd2d9","false","false","Rabbit","https://kisumu-drawings.s3-us-west-1.amazonaws.com/45-011.png","2","Bird","45-011.png"
"","21349","image-button-response","9","null","166881","685c6ca90f751d3aae6b1794","685c6e395c02f0663230eb36","671047a7ee64aa63b31dd2d9","false","false","Bicycle","https://kisumu-drawings.s3-us-west-1.amazonaws.com/114-014.png","1","Bicycle","114-014.png"
"","26843","image-button-response","10","null","194243","685c6ca90f751d3aae6b1794","685c6e395c02f0663230eb36","671047a7ee64aa63b31dd2d9","false","false","Airplane","https://kisumu-drawings.s3-us-west-1.amazonaws.com/30-005.png","11","Watch","30-005.png"
"","5103","image-button-response","11","null","199853","685c6ca90f751d3aae6b1794","685c6e395c02f0663230eb36","671047a7ee64aa63b31dd2d9","false","false","Car","https://kisumu-drawings.s3-us-west-1.amazonaws.com/116-011.png","3","Car","116-011.png"
"","24667","image-button-response","12","null","225023","685c6ca90f751d3aae6b1794","685c6e395c02f0663230eb36","671047a7ee64aa63b31dd2d9","false","false","Cat","https://kisumu-drawings.s3-us-west-1.amazonaws.com/76-015.png","9","Rabbit","76-015.png"
"","15162","image-button-response","13","null","240716","685c6ca90f751d3aae6b1794","685c6e395c02f0663230eb36","671047a7ee64aa63b31dd2d9","false","false","Watch","https://kisumu-drawings.s3-us-west-1.amazonaws.com/116-007.png","7","Hat","116-007.png"
"","5052","image-button-response","14","null","246271","685c6ca90f751d3aae6b1794","685c6e395c02f0663230eb36","671047a7ee64aa63b31dd2d9","false","false","Watch","https://kisumu-drawings.s3-us-west-1.amazonaws.com/37-005.png","11","Watch","37-005.png"
"","4734","image-button-response","15","null","251507","685c6ca90f751d3aae6b1794","685c6e395c02f0663230eb36","671047a7ee64aa63b31dd2d9","false","false","Bird","https://kisumu-drawings.s3-us-west-1.amazonaws.com/43-009.png","5","Chair","43-009.png"
"","4893","image-button-response","16","null","256904","685c6ca90f751d3aae6b1794","685c6e395c02f0663230eb36","671047a7ee64aa63b31dd2d9","false","false","Chair","https://kisumu-drawings.s3-us-west-1.amazonaws.com/116-013.png","5","Chair","116-013.png"
"","7980","image-button-response","17","null","265387","685c6ca90f751d3aae6b1794","685c6e395c02f0663230eb36","671047a7ee64aa63b31dd2d9","false","false","Cat","https://kisumu-drawings.s3-us-west-1.amazonaws.com/82-015.png","7","Hat","82-015.png"
"","7587","image-button-response","18","null","273478","685c6ca90f751d3aae6b1794","685c6e395c02f0663230eb36","671047a7ee64aa63b31dd2d9","false","false","Rabbit","https://kisumu-drawings.s3-us-west-1.amazonaws.com/82-009.png","9","Rabbit","82-009.png"
"","9063","image-button-response","19","null","283054","685c6ca90f751d3aae6b1794","685c6e395c02f0663230eb36","671047a7ee64aa63b31dd2d9","false","false","Chair","https://kisumu-drawings.s3-us-west-1.amazonaws.com/15-009.png","8","House","15-009.png"
"","8765","image-button-response","20","null","292334","685c6ca90f751d3aae6b1794","685c6e395c02f0663230eb36","671047a7ee64aa63b31dd2d9","false","false","Watch","https://kisumu-drawings.s3-us-west-1.amazonaws.com/76-007.png","0","Airplane","76-007.png"
"","6500","image-button-response","21","null","299338","685c6ca90f751d3aae6b1794","685c6e395c02f0663230eb36","671047a7ee64aa63b31dd2d9","false","false","Rabbit","https://kisumu-drawings.s3-us-west-1.amazonaws.com/77-009.png","5","Chair","77-009.png"
"","5089","image-button-response","22","null","304931","685c6ca90f751d3aae6b1794","685c6e395c02f0663230eb36","671047a7ee64aa63b31dd2d9","false","false","Bird","https://kisumu-drawings.s3-us-west-1.amazonaws.com/116-010.png","10","Tree","116-010.png"
"","2837","image-button-response","23","null","308272","685c6ca90f751d3aae6b1794","685c6e395c02f0663230eb36","671047a7ee64aa63b31dd2d9","true","false","airplane","stimuli/catch_trials/0_airplane_catch.jpg","0","Airplane",""
"","5640","image-button-response","24","null","314416","685c6ca90f751d3aae6b1794","685c6e395c02f0663230eb36","671047a7ee64aa63b31dd2d9","false","false","Hat","https://kisumu-drawings.s3-us-west-1.amazonaws.com/117-013.png","6","Cup","117-013.png"
"","2895","image-button-response","25","null","317820","685c6ca90f751d3aae6b1794","685c6e395c02f0663230eb36","671047a7ee64aa63b31dd2d9","false","false","Cup","https://kisumu-drawings.s3-us-west-1.amazonaws.com/116-008.png","6","Cup","116-008.png"
"","4321","image-button-response","26","null","322654","685c6ca90f751d3aae6b1794","685c6e395c02f0663230eb36","671047a7ee64aa63b31dd2d9","false","false","House","https://kisumu-drawings.s3-us-west-1.amazonaws.com/15-005.png","8","House","15-005.png"
"","3915","image-button-response","27","null","327083","685c6ca90f751d3aae6b1794","685c6e395c02f0663230eb36","671047a7ee64aa63b31dd2d9","false","false","Watch","https://kisumu-drawings.s3-us-west-1.amazonaws.com/82-008.png","11","Watch","82-008.png"
"","4879","image-button-response","28","null","332464","685c6ca90f751d3aae6b1794","685c6e395c02f0663230eb36","671047a7ee64aa63b31dd2d9","false","false","Chair","https://kisumu-drawings.s3-us-west-1.amazonaws.com/82-007.png","5","Chair","82-007.png"
"","4681","image-button-response","29","null","337649","685c6ca90f751d3aae6b1794","685c6e395c02f0663230eb36","671047a7ee64aa63b31dd2d9","false","false","Car","https://kisumu-drawings.s3-us-west-1.amazonaws.com/76-014.png","3","Car","76-014.png"
"","3171","image-button-response","30","null","341323","685c6ca90f751d3aae6b1794","685c6e395c02f0663230eb36","671047a7ee64aa63b31dd2d9","false","false","Bird","https://kisumu-drawings.s3-us-west-1.amazonaws.com/81-007.png","2","Bird","81-007.png"
"","3453","image-button-response","31","null","345279","685c6ca90f751d3aae6b1794","685c6e395c02f0663230eb36","671047a7ee64aa63b31dd2d9","false","false","Bicycle","https://kisumu-drawings.s3-us-west-1.amazonaws.com/74-014.png","1","Bicycle","74-014.png"
"","7945","image-button-response","32","null","353728","685c6ca90f751d3aae6b1794","685c6e395c02f0663230eb36","671047a7ee64aa63b31dd2d9","false","false","Airplane","https://kisumu-drawings.s3-us-west-1.amazonaws.com/10-013.png","5","Chair","10-013.png"
"","15560","image-button-response","33","null","369791","685c6ca90f751d3aae6b1794","685c6e395c02f0663230eb36","671047a7ee64aa63b31dd2d9","false","false","Car","https://kisumu-drawings.s3-us-west-1.amazonaws.com/14-010.png","7","Hat","14-010.png"
"","7183","image-button-response","34","null","377477","685c6ca90f751d3aae6b1794","685c6e395c02f0663230eb36","671047a7ee64aa63b31dd2d9","false","false","Cat","https://kisumu-drawings.s3-us-west-1.amazonaws.com/116-012.png","9","Rabbit","116-012.png"
"","11168","image-button-response","35","null","389148","685c6ca90f751d3aae6b1794","685c6e395c02f0663230eb36","671047a7ee64aa63b31dd2d9","false","false","Bird","https://kisumu-drawings.s3-us-west-1.amazonaws.com/35-005.png","0","Airplane","35-005.png"
"","7780","image-button-response","36","null","397431","685c6ca90f751d3aae6b1794","685c6e395c02f0663230eb36","671047a7ee64aa63b31dd2d9","false","false","Tree","https://kisumu-drawings.s3-us-west-1.amazonaws.com/16-015.png","10","Tree","16-015.png"
"","5305","image-button-response","37","null","403240","685c6ca90f751d3aae6b1794","685c6e395c02f0663230eb36","671047a7ee64aa63b31dd2d9","false","false","Car","https://kisumu-drawings.s3-us-west-1.amazonaws.com/35-009.png","3","Car","35-009.png"
"","3602","image-button-response","38","null","407351","685c6ca90f751d3aae6b1794","685c6e395c02f0663230eb36","671047a7ee64aa63b31dd2d9","false","false","Bicycle","https://kisumu-drawings.s3-us-west-1.amazonaws.com/42-009.png","1","Bicycle","42-009.png"
"","6074","image-button-response","39","null","413931","685c6ca90f751d3aae6b1794","685c6e395c02f0663230eb36","671047a7ee64aa63b31dd2d9","false","false","Car","https://kisumu-drawings.s3-us-west-1.amazonaws.com/82-014.png","3","Car","82-014.png"
"","2945","image-button-response","40","null","417380","685c6ca90f751d3aae6b1794","685c6e395c02f0663230eb36","671047a7ee64aa63b31dd2d9","false","false","Car","https://kisumu-drawings.s3-us-west-1.amazonaws.com/43-016.png","3","Car","43-016.png"
"","6982","image-button-response","41","null","424868","685c6ca90f751d3aae6b1794","685c6e395c02f0663230eb36","671047a7ee64aa63b31dd2d9","false","false","Cup","https://kisumu-drawings.s3-us-west-1.amazonaws.com/15-015.png","7","Hat","15-015.png"
"","6236","image-button-response","42","null","431618","685c6ca90f751d3aae6b1794","685c6e395c02f0663230eb36","671047a7ee64aa63b31dd2d9","false","false","Rabbit","https://kisumu-drawings.s3-us-west-1.amazonaws.com/36-005.png","4","Cat","36-005.png"
"","4570","image-button-response","43","null","436691","685c6ca90f751d3aae6b1794","685c6e395c02f0663230eb36","671047a7ee64aa63b31dd2d9","false","false","Chair","https://kisumu-drawings.s3-us-west-1.amazonaws.com/36-013.png","3","Car","36-013.png"
"","6392","image-button-response","44","null","443586","685c6ca90f751d3aae6b1794","685c6e395c02f0663230eb36","671047a7ee64aa63b31dd2d9","false","false","Watch","https://kisumu-drawings.s3-us-west-1.amazonaws.com/16-009.png","1","Bicycle","16-009.png"
"","3763","image-button-response","45","null","447853","685c6ca90f751d3aae6b1794","685c6e395c02f0663230eb36","671047a7ee64aa63b31dd2d9","false","false","Airplane","https://kisumu-drawings.s3-us-west-1.amazonaws.com/113-014.png","0","Airplane","113-014.png"
"","6387","image-button-response","46","null","454742","685c6ca90f751d3aae6b1794","685c6e395c02f0663230eb36","671047a7ee64aa63b31dd2d9","false","false","Cat","https://kisumu-drawings.s3-us-west-1.amazonaws.com/44-014.png","8","House","44-014.png"
"","3886","image-button-response","47","null","459132","685c6ca90f751d3aae6b1794","685c6e395c02f0663230eb36","671047a7ee64aa63b31dd2d9","false","false","Airplane","https://kisumu-drawings.s3-us-west-1.amazonaws.com/55-014.png","2","Bird","55-014.png"
"","3482","image-button-response","48","null","463119","685c6ca90f751d3aae6b1794","685c6e395c02f0663230eb36","671047a7ee64aa63b31dd2d9","false","false","House","https://kisumu-drawings.s3-us-west-1.amazonaws.com/83-012.png","8","House","83-012.png"
"","4244","image-button-response","49","null","467866","685c6ca90f751d3aae6b1794","685c6e395c02f0663230eb36","671047a7ee64aa63b31dd2d9","false","false","Cat","https://kisumu-drawings.s3-us-west-1.amazonaws.com/36-012.png","9","Rabbit","36-012.png"
"","8575","image-button-response","50","null","476944","685c6ca90f751d3aae6b1794","685c6e395c02f0663230eb36","671047a7ee64aa63b31dd2d9","false","false","Bird","https://kisumu-drawings.s3-us-west-1.amazonaws.com/13-009.png","7","Hat","13-009.png"
"","8230","image-button-response","51","null","485681","685c6ca90f751d3aae6b1794","685c6e395c02f0663230eb36","671047a7ee64aa63b31dd2d9","false","false","Tree","https://kisumu-drawings.s3-us-west-1.amazonaws.com/83-013.png","10","Tree","83-013.png"
"","18073","image-button-response","52","null","504258","685c6ca90f751d3aae6b1794","685c6e395c02f0663230eb36","671047a7ee64aa63b31dd2d9","false","false","Rabbit","https://kisumu-drawings.s3-us-west-1.amazonaws.com/116-016.png","9","Rabbit","116-016.png"
"","16073","image-button-response","53","null","520839","685c6ca90f751d3aae6b1794","685c6e395c02f0663230eb36","671047a7ee64aa63b31dd2d9","false","false","Chair","https://kisumu-drawings.s3-us-west-1.amazonaws.com/76-009.png","5","Chair","76-009.png"
"","9204","image-button-response","54","null","530557","685c6ca90f751d3aae6b1794","685c6e395c02f0663230eb36","671047a7ee64aa63b31dd2d9","false","false","House","https://kisumu-drawings.s3-us-west-1.amazonaws.com/76-016.png","8","House","76-016.png"
"","6933","image-button-response","55","null","537993","685c6ca90f751d3aae6b1794","685c6e395c02f0663230eb36","671047a7ee64aa63b31dd2d9","false","false","Watch","https://kisumu-drawings.s3-us-west-1.amazonaws.com/44-006.png","11","Watch","44-006.png"
"","7054","image-button-response","56","null","545556","685c6ca90f751d3aae6b1794","685c6e395c02f0663230eb36","671047a7ee64aa63b31dd2d9","false","false","Hat","https://kisumu-drawings.s3-us-west-1.amazonaws.com/82-011.png","7","Hat","82-011.png"
"","6057","image-button-response","57","null","552117","685c6ca90f751d3aae6b1794","685c6e395c02f0663230eb36","671047a7ee64aa63b31dd2d9","false","false","Hat","https://kisumu-drawings.s3-us-west-1.amazonaws.com/44-015.png","5","Chair","44-015.png"
"","7145","image-button-response","58","null","559765","685c6ca90f751d3aae6b1794","685c6e395c02f0663230eb36","671047a7ee64aa63b31dd2d9","false","false","Hat","https://kisumu-drawings.s3-us-west-1.amazonaws.com/36-009.png","6","Cup","36-009.png"
"","9272","image-button-response","59","null","569541","685c6ca90f751d3aae6b1794","685c6e395c02f0663230eb36","671047a7ee64aa63b31dd2d9","false","false","Cat","https://kisumu-drawings.s3-us-west-1.amazonaws.com/15-014.png","5","Chair","15-014.png"
"","5535","image-button-response","60","null","575587","685c6ca90f751d3aae6b1794","685c6e395c02f0663230eb36","671047a7ee64aa63b31dd2d9","false","false","Bicycle","https://kisumu-drawings.s3-us-west-1.amazonaws.com/100-010.png","0","Airplane","100-010.png"
"","3793","image-button-response","61","null","579885","685c6ca90f751d3aae6b1794","685c6e395c02f0663230eb36","671047a7ee64aa63b31dd2d9","false","false","Chair","https://kisumu-drawings.s3-us-west-1.amazonaws.com/44-013.png","2","Bird","44-013.png"
"","3918","image-button-response","62","null","584307","685c6ca90f751d3aae6b1794","685c6e395c02f0663230eb36","671047a7ee64aa63b31dd2d9","false","false","Bird","https://kisumu-drawings.s3-us-west-1.amazonaws.com/75-005.png","0","Airplane","75-005.png"
"","3016","image-button-response","63","null","587826","685c6ca90f751d3aae6b1794","685c6e395c02f0663230eb36","671047a7ee64aa63b31dd2d9","false","false","Tree","https://kisumu-drawings.s3-us-west-1.amazonaws.com/116-006.png","10","Tree","116-006.png"
"","3088","image-button-response","64","null","591418","685c6ca90f751d3aae6b1794","685c6e395c02f0663230eb36","671047a7ee64aa63b31dd2d9","false","false","Tree","https://kisumu-drawings.s3-us-west-1.amazonaws.com/37-016.png","10","Tree","37-016.png"
"","4492","image-button-response","65","null","596413","685c6ca90f751d3aae6b1794","685c6e395c02f0663230eb36","671047a7ee64aa63b31dd2d9","false","false","Hat","https://kisumu-drawings.s3-us-west-1.amazonaws.com/76-011.png","11","Watch","76-011.png"
"","3981","image-button-response","66","null","600897","685c6ca90f751d3aae6b1794","685c6e395c02f0663230eb36","671047a7ee64aa63b31dd2d9","false","false","Airplane","https://kisumu-drawings.s3-us-west-1.amazonaws.com/72-005.png","2","Bird","72-005.png"
"","2856","image-button-response","67","null","604258","685c6ca90f751d3aae6b1794","685c6e395c02f0663230eb36","671047a7ee64aa63b31dd2d9","false","false","Cup","https://kisumu-drawings.s3-us-west-1.amazonaws.com/81-008.png","6","Cup","81-008.png"
"","5465","image-button-response","68","null","610225","685c6ca90f751d3aae6b1794","685c6e395c02f0663230eb36","671047a7ee64aa63b31dd2d9","false","false","Hat","https://kisumu-drawings.s3-us-west-1.amazonaws.com/14-005.png","2","Bird","14-005.png"
"","4377","image-button-response","69","null","615114","685c6ca90f751d3aae6b1794","685c6e395c02f0663230eb36","671047a7ee64aa63b31dd2d9","false","false","Bicycle","https://kisumu-drawings.s3-us-west-1.amazonaws.com/12-007.png","0","Airplane","12-007.png"
"","2847","image-button-response","70","null","618464","685c6ca90f751d3aae6b1794","685c6e395c02f0663230eb36","671047a7ee64aa63b31dd2d9","false","false","Cup","https://kisumu-drawings.s3-us-west-1.amazonaws.com/36-008.png","6","Cup","36-008.png"
"","5403","image-button-response","71","null","624372","685c6ca90f751d3aae6b1794","685c6e395c02f0663230eb36","671047a7ee64aa63b31dd2d9","false","false","Rabbit","https://kisumu-drawings.s3-us-west-1.amazonaws.com/16-016.png","1","Bicycle","16-016.png"
"","2741","image-button-response","72","null","627616","685c6ca90f751d3aae6b1794","685c6e395c02f0663230eb36","671047a7ee64aa63b31dd2d9","false","false","Airplane","https://kisumu-drawings.s3-us-west-1.amazonaws.com/99-006.png","0","Airplane","99-006.png"
"","3282","image-button-response","73","null","631400","685c6ca90f751d3aae6b1794","685c6e395c02f0663230eb36","671047a7ee64aa63b31dd2d9","false","false","Tree","https://kisumu-drawings.s3-us-west-1.amazonaws.com/44-005.png","10","Tree","44-005.png"
"","2656","image-button-response","74","null","634559","685c6ca90f751d3aae6b1794","685c6e395c02f0663230eb36","671047a7ee64aa63b31dd2d9","false","false","House","https://kisumu-drawings.s3-us-west-1.amazonaws.com/117-014.png","8","House","117-014.png"
"","4015","image-button-response","75","null","639087","685c6ca90f751d3aae6b1794","685c6e395c02f0663230eb36","671047a7ee64aa63b31dd2d9","false","false","Bicycle","https://kisumu-drawings.s3-us-west-1.amazonaws.com/32-009.png","11","Watch","32-009.png"
