"view_history","rt","trial_type","trial_index","plugin_version","time_elapsed","study_id","session_id","participant_id","catch_trial","prep_trial","sketcher_category","stimulus","response","response_category","sketch_id"
"[{""page_index"":0,""viewing_time"":36564},{""page_index"":1,""viewing_time"":4961},{""page_index"":2,""viewing_time"":4252},{""page_index"":3,""viewing_time"":4298}]","50076","instructions","0","null","50092","685c6ca90f751d3aae6b1794","685c7104addba569d316f9aa","671137bfe81fc6cf620ce313","","","","","","",""
"","4741","image-button-response","1","null","55857","685c6ca90f751d3aae6b1794","685c7104addba569d316f9aa","671137bfe81fc6cf620ce313","false","true","car","stimuli/prep_trials/1_car_prep.png","3","Car",""
"","1686","image-button-response","2","null","58047","685c6ca90f751d3aae6b1794","685c7104addba569d316f9aa","671137bfe81fc6cf620ce313","false","true","cat","stimuli/prep_trials/0_cat_prep.jpg","4","Cat",""
"","8984","image-button-response","3","null","67546","685c6ca90f751d3aae6b1794","685c7104addba569d316f9aa","671137bfe81fc6cf620ce313","false","false","Tree","https://kisumu-drawings.s3-us-west-1.amazonaws.com/88-009.png","10","Tree","88-009.png"
"","3348","image-button-response","4","null","71409","685c6ca90f751d3aae6b1794","685c7104addba569d316f9aa","671137bfe81fc6cf620ce313","false","false","House","https://kisumu-drawings.s3-us-west-1.amazonaws.com/62-014.png","8","House","62-014.png"
"","5223","image-button-response","5","null","77142","685c6ca90f751d3aae6b1794","685c7104addba569d316f9aa","671137bfe81fc6cf620ce313","false","false","Bird","https://kisumu-drawings.s3-us-west-1.amazonaws.com/82-013.png","2","Bird","82-013.png"
"","7833","image-button-response","6","null","85493","685c6ca90f751d3aae6b1794","685c7104addba569d316f9aa","671137bfe81fc6cf620ce313","false","false","Rabbit","https://kisumu-drawings.s3-us-west-1.amazonaws.com/65-016.png","4","Cat","65-016.png"
"","6176","image-button-response","7","null","92188","685c6ca90f751d3aae6b1794","685c7104addba569d316f9aa","671137bfe81fc6cf620ce313","false","false","Bicycle","https://kisumu-drawings.s3-us-west-1.amazonaws.com/79-013.png","9","Rabbit","79-013.png"
"","11723","image-button-response","8","null","104432","685c6ca90f751d3aae6b1794","685c7104addba569d316f9aa","671137bfe81fc6cf620ce313","false","false","Cup","https://kisumu-drawings.s3-us-west-1.amazonaws.com/107-008.png","6","Cup","107-008.png"
"","4668","image-button-response","9","null","109616","685c6ca90f751d3aae6b1794","685c7104addba569d316f9aa","671137bfe81fc6cf620ce313","false","false","Bird","https://kisumu-drawings.s3-us-west-1.amazonaws.com/112-011.png","4","Cat","112-011.png"
"","5492","image-button-response","10","null","115620","685c6ca90f751d3aae6b1794","685c7104addba569d316f9aa","671137bfe81fc6cf620ce313","false","false","Rabbit","https://kisumu-drawings.s3-us-west-1.amazonaws.com/28-013.png","9","Rabbit","28-013.png"
"","4124","image-button-response","11","null","120253","685c6ca90f751d3aae6b1794","685c7104addba569d316f9aa","671137bfe81fc6cf620ce313","false","false","Bicycle","https://kisumu-drawings.s3-us-west-1.amazonaws.com/107-015.png","1","Bicycle","107-015.png"
"","16540","image-button-response","12","null","137308","685c6ca90f751d3aae6b1794","685c7104addba569d316f9aa","671137bfe81fc6cf620ce313","false","false","Tree","https://kisumu-drawings.s3-us-west-1.amazonaws.com/39-013.png","7","Hat","39-013.png"
"","5344","image-button-response","13","null","143168","685c6ca90f751d3aae6b1794","685c7104addba569d316f9aa","671137bfe81fc6cf620ce313","false","false","Car","https://kisumu-drawings.s3-us-west-1.amazonaws.com/109-014.png","3","Car","109-014.png"
"","4809","image-button-response","14","null","148488","685c6ca90f751d3aae6b1794","685c7104addba569d316f9aa","671137bfe81fc6cf620ce313","false","false","Bicycle","https://kisumu-drawings.s3-us-west-1.amazonaws.com/29-005.png","10","Tree","29-005.png"
"","4640","image-button-response","15","null","153638","685c6ca90f751d3aae6b1794","685c7104addba569d316f9aa","671137bfe81fc6cf620ce313","false","false","Tree","https://kisumu-drawings.s3-us-west-1.amazonaws.com/20-012.png","10","Tree","20-012.png"
"","7123","image-button-response","16","null","161270","685c6ca90f751d3aae6b1794","685c7104addba569d316f9aa","671137bfe81fc6cf620ce313","false","false","Bird","https://kisumu-drawings.s3-us-west-1.amazonaws.com/19-012.png","10","Tree","19-012.png"
"","5388","image-button-response","17","null","167177","685c6ca90f751d3aae6b1794","685c7104addba569d316f9aa","671137bfe81fc6cf620ce313","false","false","Hat","https://kisumu-drawings.s3-us-west-1.amazonaws.com/66-016.png","8","House","66-016.png"
"","6628","image-button-response","18","null","174313","685c6ca90f751d3aae6b1794","685c7104addba569d316f9aa","671137bfe81fc6cf620ce313","false","false","Airplane","https://kisumu-drawings.s3-us-west-1.amazonaws.com/114-011.png","3","Car","114-011.png"
"","4306","image-button-response","19","null","179134","685c6ca90f751d3aae6b1794","685c7104addba569d316f9aa","671137bfe81fc6cf620ce313","false","false","House","https://kisumu-drawings.s3-us-west-1.amazonaws.com/40-011.png","8","House","40-011.png"
"","4769","image-button-response","20","null","184414","685c6ca90f751d3aae6b1794","685c7104addba569d316f9aa","671137bfe81fc6cf620ce313","false","false","Rabbit","https://kisumu-drawings.s3-us-west-1.amazonaws.com/117-005.png","4","Cat","117-005.png"
"","4391","image-button-response","21","null","189318","685c6ca90f751d3aae6b1794","685c7104addba569d316f9aa","671137bfe81fc6cf620ce313","false","false","Hat","https://kisumu-drawings.s3-us-west-1.amazonaws.com/95-005.png","7","Hat","95-005.png"
"","3029","image-button-response","22","null","192858","685c6ca90f751d3aae6b1794","685c7104addba569d316f9aa","671137bfe81fc6cf620ce313","false","false","Cat","https://kisumu-drawings.s3-us-west-1.amazonaws.com/62-011.png","4","Cat","62-011.png"
"","5038","image-button-response","23","null","198407","685c6ca90f751d3aae6b1794","685c7104addba569d316f9aa","671137bfe81fc6cf620ce313","false","false","Cup","https://kisumu-drawings.s3-us-west-1.amazonaws.com/47-014.png","6","Cup","47-014.png"
"","6060","image-button-response","24","null","204983","685c6ca90f751d3aae6b1794","685c7104addba569d316f9aa","671137bfe81fc6cf620ce313","false","false","Hat","https://kisumu-drawings.s3-us-west-1.amazonaws.com/33-015.png","6","Cup","33-015.png"
"","4354","image-button-response","25","null","209842","685c6ca90f751d3aae6b1794","685c7104addba569d316f9aa","671137bfe81fc6cf620ce313","false","false","Cup","https://kisumu-drawings.s3-us-west-1.amazonaws.com/77-005.png","6","Cup","77-005.png"
"","4633","image-button-response","26","null","214983","685c6ca90f751d3aae6b1794","685c7104addba569d316f9aa","671137bfe81fc6cf620ce313","false","false","Chair","https://kisumu-drawings.s3-us-west-1.amazonaws.com/114-010.png","5","Chair","114-010.png"
"","4308","image-button-response","27","null","219805","685c6ca90f751d3aae6b1794","685c7104addba569d316f9aa","671137bfe81fc6cf620ce313","false","false","Cup","https://kisumu-drawings.s3-us-west-1.amazonaws.com/83-011.png","6","Cup","83-011.png"
"","5590","image-button-response","28","null","225917","685c6ca90f751d3aae6b1794","685c7104addba569d316f9aa","671137bfe81fc6cf620ce313","false","false","Airplane","https://kisumu-drawings.s3-us-west-1.amazonaws.com/68-008.png","2","Bird","68-008.png"
"","3898","image-button-response","29","null","230327","685c6ca90f751d3aae6b1794","685c7104addba569d316f9aa","671137bfe81fc6cf620ce313","false","false","House","https://kisumu-drawings.s3-us-west-1.amazonaws.com/87-012.png","8","House","87-012.png"
"","4945","image-button-response","30","null","235780","685c6ca90f751d3aae6b1794","685c7104addba569d316f9aa","671137bfe81fc6cf620ce313","false","false","Watch","https://kisumu-drawings.s3-us-west-1.amazonaws.com/21-009.png","0","Airplane","21-009.png"
"","4996","image-button-response","31","null","241285","685c6ca90f751d3aae6b1794","685c7104addba569d316f9aa","671137bfe81fc6cf620ce313","false","false","Chair","https://kisumu-drawings.s3-us-west-1.amazonaws.com/11-013.png","10","Tree","11-013.png"
"","2678","image-button-response","32","null","244474","685c6ca90f751d3aae6b1794","685c7104addba569d316f9aa","671137bfe81fc6cf620ce313","false","false","Cup","https://kisumu-drawings.s3-us-west-1.amazonaws.com/22-015.png","6","Cup","22-015.png"
"","5262","image-button-response","33","null","250245","685c6ca90f751d3aae6b1794","685c7104addba569d316f9aa","671137bfe81fc6cf620ce313","false","false","Chair","https://kisumu-drawings.s3-us-west-1.amazonaws.com/84-011.png","5","Chair","84-011.png"
"","9832","image-button-response","34","null","260587","685c6ca90f751d3aae6b1794","685c7104addba569d316f9aa","671137bfe81fc6cf620ce313","false","false","Cat","https://kisumu-drawings.s3-us-west-1.amazonaws.com/30-009.png","4","Cat","30-009.png"
"","8134","image-button-response","35","null","269231","685c6ca90f751d3aae6b1794","685c7104addba569d316f9aa","671137bfe81fc6cf620ce313","false","false","Hat","https://kisumu-drawings.s3-us-west-1.amazonaws.com/56-014.png","0","Airplane","56-014.png"
"","5158","image-button-response","36","null","274897","685c6ca90f751d3aae6b1794","685c7104addba569d316f9aa","671137bfe81fc6cf620ce313","false","false","Cat","https://kisumu-drawings.s3-us-west-1.amazonaws.com/45-006.png","4","Cat","45-006.png"
"","5533","image-button-response","37","null","280946","685c6ca90f751d3aae6b1794","685c7104addba569d316f9aa","671137bfe81fc6cf620ce313","false","false","Rabbit","https://kisumu-drawings.s3-us-west-1.amazonaws.com/83-016.png","9","Rabbit","83-016.png"
"","4037","image-button-response","38","null","285500","685c6ca90f751d3aae6b1794","685c7104addba569d316f9aa","671137bfe81fc6cf620ce313","false","false","Rabbit","https://kisumu-drawings.s3-us-west-1.amazonaws.com/57-016.png","9","Rabbit","57-016.png"
"","2895","image-button-response","39","null","288909","685c6ca90f751d3aae6b1794","685c7104addba569d316f9aa","671137bfe81fc6cf620ce313","false","false","Chair","https://kisumu-drawings.s3-us-west-1.amazonaws.com/43-011.png","5","Chair","43-011.png"
"","3483","image-button-response","40","null","292898","685c6ca90f751d3aae6b1794","685c7104addba569d316f9aa","671137bfe81fc6cf620ce313","false","false","Tree","https://kisumu-drawings.s3-us-west-1.amazonaws.com/101-007.png","10","Tree","101-007.png"
"","4453","image-button-response","41","null","297866","685c6ca90f751d3aae6b1794","685c7104addba569d316f9aa","671137bfe81fc6cf620ce313","false","false","Car","https://kisumu-drawings.s3-us-west-1.amazonaws.com/68-010.png","3","Car","68-010.png"
"","3207","image-button-response","42","null","301588","685c6ca90f751d3aae6b1794","685c7104addba569d316f9aa","671137bfe81fc6cf620ce313","false","false","House","https://kisumu-drawings.s3-us-west-1.amazonaws.com/57-015.png","8","House","57-015.png"
"","4484","image-button-response","43","null","306588","685c6ca90f751d3aae6b1794","685c7104addba569d316f9aa","671137bfe81fc6cf620ce313","false","false","Car","https://kisumu-drawings.s3-us-west-1.amazonaws.com/88-016.png","3","Car","88-016.png"
"","3302","image-button-response","44","null","310402","685c6ca90f751d3aae6b1794","685c7104addba569d316f9aa","671137bfe81fc6cf620ce313","false","false","Watch","https://kisumu-drawings.s3-us-west-1.amazonaws.com/1-006.png","11","Watch","1-006.png"
"","4420","image-button-response","45","null","315337","685c6ca90f751d3aae6b1794","685c7104addba569d316f9aa","671137bfe81fc6cf620ce313","false","false","Bicycle","https://kisumu-drawings.s3-us-west-1.amazonaws.com/13-010.png","2","Bird","13-010.png"
"","3537","image-button-response","46","null","319387","685c6ca90f751d3aae6b1794","685c7104addba569d316f9aa","671137bfe81fc6cf620ce313","false","false","House","https://kisumu-drawings.s3-us-west-1.amazonaws.com/3-013.png","6","Cup","3-013.png"
"","3670","image-button-response","47","null","323563","685c6ca90f751d3aae6b1794","685c7104addba569d316f9aa","671137bfe81fc6cf620ce313","false","false","Bird","https://kisumu-drawings.s3-us-west-1.amazonaws.com/54-010.png","0","Airplane","54-010.png"
"","2494","image-button-response","48","null","326570","685c6ca90f751d3aae6b1794","685c7104addba569d316f9aa","671137bfe81fc6cf620ce313","false","false","Airplane","https://kisumu-drawings.s3-us-west-1.amazonaws.com/41-005.png","0","Airplane","41-005.png"
"","4595","image-button-response","49","null","331679","685c6ca90f751d3aae6b1794","685c7104addba569d316f9aa","671137bfe81fc6cf620ce313","false","false","Watch","https://kisumu-drawings.s3-us-west-1.amazonaws.com/87-010.png","11","Watch","87-010.png"
"","7153","image-button-response","50","null","339351","685c6ca90f751d3aae6b1794","685c7104addba569d316f9aa","671137bfe81fc6cf620ce313","false","false","Cat","https://kisumu-drawings.s3-us-west-1.amazonaws.com/84-016.png","9","Rabbit","84-016.png"
"","4478","image-button-response","51","null","344344","685c6ca90f751d3aae6b1794","685c7104addba569d316f9aa","671137bfe81fc6cf620ce313","false","false","Watch","https://kisumu-drawings.s3-us-west-1.amazonaws.com/80-015.png","11","Watch","80-015.png"
"","4580","image-button-response","52","null","349428","685c6ca90f751d3aae6b1794","685c7104addba569d316f9aa","671137bfe81fc6cf620ce313","false","false","Cat","https://kisumu-drawings.s3-us-west-1.amazonaws.com/14-014.png","11","Watch","14-014.png"
"","4113","image-button-response","53","null","354044","685c6ca90f751d3aae6b1794","685c7104addba569d316f9aa","671137bfe81fc6cf620ce313","false","false","Chair","https://kisumu-drawings.s3-us-west-1.amazonaws.com/68-012.png","5","Chair","68-012.png"
"","3297","image-button-response","54","null","357856","685c6ca90f751d3aae6b1794","685c7104addba569d316f9aa","671137bfe81fc6cf620ce313","false","false","Tree","https://kisumu-drawings.s3-us-west-1.amazonaws.com/61-010.png","10","Tree","61-010.png"
"","5699","image-button-response","55","null","364064","685c6ca90f751d3aae6b1794","685c7104addba569d316f9aa","671137bfe81fc6cf620ce313","false","false","Airplane","https://kisumu-drawings.s3-us-west-1.amazonaws.com/20-016.png","0","Airplane","20-016.png"
"","6584","image-button-response","56","null","371157","685c6ca90f751d3aae6b1794","685c7104addba569d316f9aa","671137bfe81fc6cf620ce313","false","false","Cup","https://kisumu-drawings.s3-us-west-1.amazonaws.com/1-015.png","10","Tree","1-015.png"
"","5746","image-button-response","57","null","377410","685c6ca90f751d3aae6b1794","685c7104addba569d316f9aa","671137bfe81fc6cf620ce313","false","false","Bicycle","https://kisumu-drawings.s3-us-west-1.amazonaws.com/47-009.png","3","Car","47-009.png"
"","5110","image-button-response","58","null","383025","685c6ca90f751d3aae6b1794","685c7104addba569d316f9aa","671137bfe81fc6cf620ce313","false","false","House","https://kisumu-drawings.s3-us-west-1.amazonaws.com/107-006.png","8","House","107-006.png"
"","4319","image-button-response","59","null","387850","685c6ca90f751d3aae6b1794","685c7104addba569d316f9aa","671137bfe81fc6cf620ce313","false","false","Airplane","https://kisumu-drawings.s3-us-west-1.amazonaws.com/81-014.png","0","Airplane","81-014.png"
"","2508","image-button-response","60","null","390876","685c6ca90f751d3aae6b1794","685c7104addba569d316f9aa","671137bfe81fc6cf620ce313","false","false","Chair","https://kisumu-drawings.s3-us-west-1.amazonaws.com/28-009.png","5","Chair","28-009.png"
"","4440","image-button-response","61","null","395821","685c6ca90f751d3aae6b1794","685c7104addba569d316f9aa","671137bfe81fc6cf620ce313","false","false","Hat","https://kisumu-drawings.s3-us-west-1.amazonaws.com/8-011.png","10","Tree","8-011.png"
"","5663","image-button-response","62","null","401989","685c6ca90f751d3aae6b1794","685c7104addba569d316f9aa","671137bfe81fc6cf620ce313","false","false","Rabbit","https://kisumu-drawings.s3-us-west-1.amazonaws.com/1-010.png","9","Rabbit","1-010.png"
"","4892","image-button-response","63","null","407390","685c6ca90f751d3aae6b1794","685c7104addba569d316f9aa","671137bfe81fc6cf620ce313","false","false","Hat","https://kisumu-drawings.s3-us-west-1.amazonaws.com/110-015.png","7","Hat","110-015.png"
"","4672","image-button-response","64","null","412575","685c6ca90f751d3aae6b1794","685c7104addba569d316f9aa","671137bfe81fc6cf620ce313","false","false","Watch","https://kisumu-drawings.s3-us-west-1.amazonaws.com/119-015.png","11","Watch","119-015.png"
"","3022","image-button-response","65","null","416105","685c6ca90f751d3aae6b1794","685c7104addba569d316f9aa","671137bfe81fc6cf620ce313","false","false","Bird","https://kisumu-drawings.s3-us-west-1.amazonaws.com/27-007.png","0","Airplane","27-007.png"
"","4283","image-button-response","66","null","420906","685c6ca90f751d3aae6b1794","685c7104addba569d316f9aa","671137bfe81fc6cf620ce313","false","false","Car","https://kisumu-drawings.s3-us-west-1.amazonaws.com/20-007.png","2","Bird","20-007.png"
"","4963","image-button-response","67","null","426379","685c6ca90f751d3aae6b1794","685c7104addba569d316f9aa","671137bfe81fc6cf620ce313","false","false","Tree","https://kisumu-drawings.s3-us-west-1.amazonaws.com/49-014.png","10","Tree","49-014.png"
"","4652","image-button-response","68","null","431549","685c6ca90f751d3aae6b1794","685c7104addba569d316f9aa","671137bfe81fc6cf620ce313","false","false","Car","https://kisumu-drawings.s3-us-west-1.amazonaws.com/48-005.png","3","Car","48-005.png"
"","1427","image-button-response","69","null","433490","685c6ca90f751d3aae6b1794","685c7104addba569d316f9aa","671137bfe81fc6cf620ce313","true","false","airplane","stimuli/catch_trials/0_airplane_catch.jpg","0","Airplane",""
"","5039","image-button-response","70","null","439039","685c6ca90f751d3aae6b1794","685c7104addba569d316f9aa","671137bfe81fc6cf620ce313","false","false","Watch","https://kisumu-drawings.s3-us-west-1.amazonaws.com/48-012.png","0","Airplane","48-012.png"
"","4856","image-button-response","71","null","444405","685c6ca90f751d3aae6b1794","685c7104addba569d316f9aa","671137bfe81fc6cf620ce313","false","false","Bird","https://kisumu-drawings.s3-us-west-1.amazonaws.com/67-016.png","2","Bird","67-016.png"
"","5750","image-button-response","72","null","450665","685c6ca90f751d3aae6b1794","685c7104addba569d316f9aa","671137bfe81fc6cf620ce313","false","false","Airplane","https://kisumu-drawings.s3-us-west-1.amazonaws.com/39-008.png","4","Cat","39-008.png"
"","2459","image-button-response","73","null","453641","685c6ca90f751d3aae6b1794","685c7104addba569d316f9aa","671137bfe81fc6cf620ce313","false","false","Car","https://kisumu-drawings.s3-us-west-1.amazonaws.com/21-014.png","11","Watch","21-014.png"
"","5303","image-button-response","74","null","459453","685c6ca90f751d3aae6b1794","685c7104addba569d316f9aa","671137bfe81fc6cf620ce313","false","false","Cat","https://kisumu-drawings.s3-us-west-1.amazonaws.com/111-016.png","4","Cat","111-016.png"
"","5404","image-button-response","75","null","465369","685c6ca90f751d3aae6b1794","685c7104addba569d316f9aa","671137bfe81fc6cf620ce313","false","false","Bicycle","https://kisumu-drawings.s3-us-west-1.amazonaws.com/84-009.png","1","Bicycle","84-009.png"
