"view_history","rt","trial_type","trial_index","plugin_version","time_elapsed","study_id","session_id","participant_id","catch_trial","prep_trial","sketcher_category","stimulus","response","response_category","sketch_id"
"[{""page_index"":0,""viewing_time"":2959},{""page_index"":1,""viewing_time"":2330},{""page_index"":2,""viewing_time"":1912},{""page_index"":3,""viewing_time"":2534}]","9735","instructions","0","null","9742","685c6ca90f751d3aae6b1794","685c6e16a9ab510e3d992d03","671a9df40aa3def0ece893b1","","","","","","",""
"","3521","image-button-response","1","null","14266","685c6ca90f751d3aae6b1794","685c6e16a9ab510e3d992d03","671a9df40aa3def0ece893b1","false","true","car","stimuli/prep_trials/1_car_prep.png","3","Car",""
"","1889","image-button-response","2","null","16660","685c6ca90f751d3aae6b1794","685c6e16a9ab510e3d992d03","671a9df40aa3def0ece893b1","false","true","cat","stimuli/prep_trials/0_cat_prep.jpg","4","Cat",""
"","3815","image-button-response","3","null","20980","685c6ca90f751d3aae6b1794","685c6e16a9ab510e3d992d03","671a9df40aa3def0ece893b1","false","false","Hat","https://kisumu-drawings.s3-us-west-1.amazonaws.com/91-013.png","7","Hat","91-013.png"
"","30167","image-button-response","4","null","51670","685c6ca90f751d3aae6b1794","685c6e16a9ab510e3d992d03","671a9df40aa3def0ece893b1","false","false","Bicycle","https://kisumu-drawings.s3-us-west-1.amazonaws.com/3-006.png","5","Chair","3-006.png"
"","4852","image-button-response","5","null","57034","685c6ca90f751d3aae6b1794","685c6e16a9ab510e3d992d03","671a9df40aa3def0ece893b1","false","false","Cat","https://kisumu-drawings.s3-us-west-1.amazonaws.com/58-009.png","4","Cat","58-009.png"
"","4998","image-button-response","6","null","62544","685c6ca90f751d3aae6b1794","685c6e16a9ab510e3d992d03","671a9df40aa3def0ece893b1","false","false","Rabbit","https://kisumu-drawings.s3-us-west-1.amazonaws.com/105-012.png","9","Rabbit","105-012.png"
"","6497","image-button-response","7","null","69554","685c6ca90f751d3aae6b1794","685c6e16a9ab510e3d992d03","671a9df40aa3def0ece893b1","false","false","Rabbit","https://kisumu-drawings.s3-us-west-1.amazonaws.com/66-008.png","4","Cat","66-008.png"
"","3429","image-button-response","8","null","73486","685c6ca90f751d3aae6b1794","685c6e16a9ab510e3d992d03","671a9df40aa3def0ece893b1","false","false","Hat","https://kisumu-drawings.s3-us-west-1.amazonaws.com/105-015.png","6","Cup","105-015.png"
"","2430","image-button-response","9","null","76432","685c6ca90f751d3aae6b1794","685c6e16a9ab510e3d992d03","671a9df40aa3def0ece893b1","false","false","Tree","https://kisumu-drawings.s3-us-west-1.amazonaws.com/59-005.png","10","Tree","59-005.png"
"","2830","image-button-response","10","null","79774","685c6ca90f751d3aae6b1794","685c6e16a9ab510e3d992d03","671a9df40aa3def0ece893b1","false","false","Bird","https://kisumu-drawings.s3-us-west-1.amazonaws.com/105-007.png","2","Bird","105-007.png"
"","6009","image-button-response","11","null","86288","685c6ca90f751d3aae6b1794","685c6e16a9ab510e3d992d03","671a9df40aa3def0ece893b1","false","false","Rabbit","https://kisumu-drawings.s3-us-west-1.amazonaws.com/59-006.png","5","Chair","59-006.png"
"","2746","image-button-response","12","null","89548","685c6ca90f751d3aae6b1794","685c6e16a9ab510e3d992d03","671a9df40aa3def0ece893b1","false","false","Cup","https://kisumu-drawings.s3-us-west-1.amazonaws.com/105-011.png","6","Cup","105-011.png"
"","3299","image-button-response","13","null","93350","685c6ca90f751d3aae6b1794","685c6e16a9ab510e3d992d03","671a9df40aa3def0ece893b1","false","false","Cup","https://kisumu-drawings.s3-us-west-1.amazonaws.com/59-015.png","6","Cup","59-015.png"
"","3825","image-button-response","14","null","97686","685c6ca90f751d3aae6b1794","685c6e16a9ab510e3d992d03","671a9df40aa3def0ece893b1","false","false","Bird","https://kisumu-drawings.s3-us-west-1.amazonaws.com/24-009.png","2","Bird","24-009.png"
"","3277","image-button-response","15","null","101480","685c6ca90f751d3aae6b1794","685c6e16a9ab510e3d992d03","671a9df40aa3def0ece893b1","false","false","Hat","https://kisumu-drawings.s3-us-west-1.amazonaws.com/4-013.png","5","Chair","4-013.png"
"","1545","image-button-response","16","null","103539","685c6ca90f751d3aae6b1794","685c6e16a9ab510e3d992d03","671a9df40aa3def0ece893b1","false","false","Cup","https://kisumu-drawings.s3-us-west-1.amazonaws.com/34-005.png","6","Cup","34-005.png"
"","4095","image-button-response","17","null","108148","685c6ca90f751d3aae6b1794","685c6e16a9ab510e3d992d03","671a9df40aa3def0ece893b1","false","false","Cat","https://kisumu-drawings.s3-us-west-1.amazonaws.com/4-010.png","5","Chair","4-010.png"
"","1784","image-button-response","18","null","110439","685c6ca90f751d3aae6b1794","685c6e16a9ab510e3d992d03","671a9df40aa3def0ece893b1","false","false","Bird","https://kisumu-drawings.s3-us-west-1.amazonaws.com/90-010.png","0","Airplane","90-010.png"
"","6250","image-button-response","19","null","117192","685c6ca90f751d3aae6b1794","685c6e16a9ab510e3d992d03","671a9df40aa3def0ece893b1","false","false","Watch","https://kisumu-drawings.s3-us-west-1.amazonaws.com/91-010.png","11","Watch","91-010.png"
"","4838","image-button-response","20","null","122531","685c6ca90f751d3aae6b1794","685c6e16a9ab510e3d992d03","671a9df40aa3def0ece893b1","false","false","Bird","https://kisumu-drawings.s3-us-west-1.amazonaws.com/65-005.png","8","House","65-005.png"
"","3404","image-button-response","21","null","126440","685c6ca90f751d3aae6b1794","685c6e16a9ab510e3d992d03","671a9df40aa3def0ece893b1","false","false","Car","https://kisumu-drawings.s3-us-west-1.amazonaws.com/91-006.png","3","Car","91-006.png"
"","3038","image-button-response","22","null","129984","685c6ca90f751d3aae6b1794","685c6e16a9ab510e3d992d03","671a9df40aa3def0ece893b1","false","false","House","https://kisumu-drawings.s3-us-west-1.amazonaws.com/66-007.png","8","House","66-007.png"
"","10307","image-button-response","23","null","140796","685c6ca90f751d3aae6b1794","685c6e16a9ab510e3d992d03","671a9df40aa3def0ece893b1","false","false","Rabbit","https://kisumu-drawings.s3-us-west-1.amazonaws.com/4-015.png","7","Hat","4-015.png"
"","5373","image-button-response","24","null","146680","685c6ca90f751d3aae6b1794","685c6e16a9ab510e3d992d03","671a9df40aa3def0ece893b1","false","false","Bicycle","https://kisumu-drawings.s3-us-west-1.amazonaws.com/58-014.png","1","Bicycle","58-014.png"
"","7337","image-button-response","25","null","154541","685c6ca90f751d3aae6b1794","685c6e16a9ab510e3d992d03","671a9df40aa3def0ece893b1","false","false","Watch","https://kisumu-drawings.s3-us-west-1.amazonaws.com/66-006.png","11","Watch","66-006.png"
"","3545","image-button-response","26","null","158594","685c6ca90f751d3aae6b1794","685c6e16a9ab510e3d992d03","671a9df40aa3def0ece893b1","false","false","House","https://kisumu-drawings.s3-us-west-1.amazonaws.com/91-014.png","8","House","91-014.png"
"","5335","image-button-response","27","null","164436","685c6ca90f751d3aae6b1794","685c6e16a9ab510e3d992d03","671a9df40aa3def0ece893b1","false","false","Car","https://kisumu-drawings.s3-us-west-1.amazonaws.com/66-009.png","0","Airplane","66-009.png"
"","4274","image-button-response","28","null","169216","685c6ca90f751d3aae6b1794","685c6e16a9ab510e3d992d03","671a9df40aa3def0ece893b1","false","false","Airplane","https://kisumu-drawings.s3-us-west-1.amazonaws.com/91-016.png","0","Airplane","91-016.png"
"","2711","image-button-response","29","null","172433","685c6ca90f751d3aae6b1794","685c6e16a9ab510e3d992d03","671a9df40aa3def0ece893b1","false","false","Watch","https://kisumu-drawings.s3-us-west-1.amazonaws.com/34-009.png","11","Watch","34-009.png"
"","6902","image-button-response","30","null","179842","685c6ca90f751d3aae6b1794","685c6e16a9ab510e3d992d03","671a9df40aa3def0ece893b1","false","false","Cat","https://kisumu-drawings.s3-us-west-1.amazonaws.com/34-016.png","4","Cat","34-016.png"
"","3481","image-button-response","31","null","183831","685c6ca90f751d3aae6b1794","685c6e16a9ab510e3d992d03","671a9df40aa3def0ece893b1","false","false","Tree","https://kisumu-drawings.s3-us-west-1.amazonaws.com/66-005.png","10","Tree","66-005.png"
"","1783","image-button-response","32","null","186122","685c6ca90f751d3aae6b1794","685c6e16a9ab510e3d992d03","671a9df40aa3def0ece893b1","false","false","Tree","https://kisumu-drawings.s3-us-west-1.amazonaws.com/105-013.png","10","Tree","105-013.png"
"","3532","image-button-response","33","null","190156","685c6ca90f751d3aae6b1794","685c6e16a9ab510e3d992d03","671a9df40aa3def0ece893b1","false","false","Car","https://kisumu-drawings.s3-us-west-1.amazonaws.com/34-015.png","3","Car","34-015.png"
"","5809","image-button-response","34","null","196466","685c6ca90f751d3aae6b1794","685c6e16a9ab510e3d992d03","671a9df40aa3def0ece893b1","false","false","Bicycle","https://kisumu-drawings.s3-us-west-1.amazonaws.com/34-013.png","0","Airplane","34-013.png"
"","2518","image-button-response","35","null","199490","685c6ca90f751d3aae6b1794","685c6e16a9ab510e3d992d03","671a9df40aa3def0ece893b1","false","false","Watch","https://kisumu-drawings.s3-us-west-1.amazonaws.com/59-014.png","0","Airplane","59-014.png"
"","2897","image-button-response","36","null","202894","685c6ca90f751d3aae6b1794","685c6e16a9ab510e3d992d03","671a9df40aa3def0ece893b1","false","false","House","https://kisumu-drawings.s3-us-west-1.amazonaws.com/59-013.png","8","House","59-013.png"
"","4239","image-button-response","37","null","207646","685c6ca90f751d3aae6b1794","685c6e16a9ab510e3d992d03","671a9df40aa3def0ece893b1","false","false","Airplane","https://kisumu-drawings.s3-us-west-1.amazonaws.com/65-006.png","5","Chair","65-006.png"
"","2872","image-button-response","38","null","211028","685c6ca90f751d3aae6b1794","685c6e16a9ab510e3d992d03","671a9df40aa3def0ece893b1","false","false","Cup","https://kisumu-drawings.s3-us-west-1.amazonaws.com/66-015.png","6","Cup","66-015.png"
"","2966","image-button-response","39","null","214510","685c6ca90f751d3aae6b1794","685c6e16a9ab510e3d992d03","671a9df40aa3def0ece893b1","false","false","Chair","https://kisumu-drawings.s3-us-west-1.amazonaws.com/59-007.png","5","Chair","59-007.png"
"","7539","image-button-response","40","null","222553","685c6ca90f751d3aae6b1794","685c6e16a9ab510e3d992d03","671a9df40aa3def0ece893b1","false","false","Hat","https://kisumu-drawings.s3-us-west-1.amazonaws.com/66-016.png","7","Hat","66-016.png"
"","2879","image-button-response","41","null","225934","685c6ca90f751d3aae6b1794","685c6e16a9ab510e3d992d03","671a9df40aa3def0ece893b1","false","false","Airplane","https://kisumu-drawings.s3-us-west-1.amazonaws.com/24-008.png","2","Bird","24-008.png"
"","5410","image-button-response","42","null","231850","685c6ca90f751d3aae6b1794","685c6e16a9ab510e3d992d03","671a9df40aa3def0ece893b1","false","false","Car","https://kisumu-drawings.s3-us-west-1.amazonaws.com/4-008.png","7","Hat","4-008.png"
"","3377","image-button-response","43","null","235728","685c6ca90f751d3aae6b1794","685c6e16a9ab510e3d992d03","671a9df40aa3def0ece893b1","false","false","Bird","https://kisumu-drawings.s3-us-west-1.amazonaws.com/58-015.png","0","Airplane","58-015.png"
"","8755","image-button-response","44","null","244991","685c6ca90f751d3aae6b1794","685c6e16a9ab510e3d992d03","671a9df40aa3def0ece893b1","false","false","Tree","https://kisumu-drawings.s3-us-west-1.amazonaws.com/34-010.png","10","Tree","34-010.png"
"","1492","image-button-response","45","null","246990","685c6ca90f751d3aae6b1794","685c6e16a9ab510e3d992d03","671a9df40aa3def0ece893b1","true","false","airplane","stimuli/catch_trials/0_airplane_catch.jpg","0","Airplane",""
"","2771","image-button-response","46","null","250278","685c6ca90f751d3aae6b1794","685c6e16a9ab510e3d992d03","671a9df40aa3def0ece893b1","false","false","Hat","https://kisumu-drawings.s3-us-west-1.amazonaws.com/34-007.png","2","Bird","34-007.png"
"","3293","image-button-response","47","null","254078","685c6ca90f751d3aae6b1794","685c6e16a9ab510e3d992d03","671a9df40aa3def0ece893b1","false","false","Watch","https://kisumu-drawings.s3-us-west-1.amazonaws.com/4-016.png","10","Tree","4-016.png"
"","3069","image-button-response","48","null","257654","685c6ca90f751d3aae6b1794","685c6e16a9ab510e3d992d03","671a9df40aa3def0ece893b1","false","false","Chair","https://kisumu-drawings.s3-us-west-1.amazonaws.com/91-008.png","5","Chair","91-008.png"
"","1962","image-button-response","49","null","260118","685c6ca90f751d3aae6b1794","685c6e16a9ab510e3d992d03","671a9df40aa3def0ece893b1","false","false","House","https://kisumu-drawings.s3-us-west-1.amazonaws.com/105-016.png","8","House","105-016.png"
"","1749","image-button-response","50","null","262371","685c6ca90f751d3aae6b1794","685c6e16a9ab510e3d992d03","671a9df40aa3def0ece893b1","false","false","Cup","https://kisumu-drawings.s3-us-west-1.amazonaws.com/4-011.png","6","Cup","4-011.png"
"","3498","image-button-response","51","null","266373","685c6ca90f751d3aae6b1794","685c6e16a9ab510e3d992d03","671a9df40aa3def0ece893b1","false","false","Chair","https://kisumu-drawings.s3-us-west-1.amazonaws.com/34-014.png","5","Chair","34-014.png"
"","19207","image-button-response","52","null","286096","685c6ca90f751d3aae6b1794","685c6e16a9ab510e3d992d03","671a9df40aa3def0ece893b1","false","false","Rabbit","https://kisumu-drawings.s3-us-west-1.amazonaws.com/91-005.png","9","Rabbit","91-005.png"
"","2288","image-button-response","53","null","288886","685c6ca90f751d3aae6b1794","685c6e16a9ab510e3d992d03","671a9df40aa3def0ece893b1","false","false","Hat","https://kisumu-drawings.s3-us-west-1.amazonaws.com/59-016.png","7","Hat","59-016.png"
"","2362","image-button-response","54","null","291754","685c6ca90f751d3aae6b1794","685c6e16a9ab510e3d992d03","671a9df40aa3def0ece893b1","false","false","Cat","https://kisumu-drawings.s3-us-west-1.amazonaws.com/66-010.png","4","Cat","66-010.png"
"","3635","image-button-response","55","null","295896","685c6ca90f751d3aae6b1794","685c6e16a9ab510e3d992d03","671a9df40aa3def0ece893b1","false","false","Bicycle","https://kisumu-drawings.s3-us-west-1.amazonaws.com/90-015.png","1","Bicycle","90-015.png"
"","2736","image-button-response","56","null","299138","685c6ca90f751d3aae6b1794","685c6e16a9ab510e3d992d03","671a9df40aa3def0ece893b1","false","false","Airplane","https://kisumu-drawings.s3-us-west-1.amazonaws.com/58-013.png","0","Airplane","58-013.png"
"","2932","image-button-response","57","null","302572","685c6ca90f751d3aae6b1794","685c6e16a9ab510e3d992d03","671a9df40aa3def0ece893b1","false","false","Bicycle","https://kisumu-drawings.s3-us-west-1.amazonaws.com/65-007.png","3","Car","65-007.png"
"","4332","image-button-response","58","null","307406","685c6ca90f751d3aae6b1794","685c6e16a9ab510e3d992d03","671a9df40aa3def0ece893b1","false","false","Tree","https://kisumu-drawings.s3-us-west-1.amazonaws.com/91-009.png","6","Cup","91-009.png"
"","5102","image-button-response","59","null","313016","685c6ca90f751d3aae6b1794","685c6e16a9ab510e3d992d03","671a9df40aa3def0ece893b1","false","false","Cat","https://kisumu-drawings.s3-us-west-1.amazonaws.com/105-010.png","5","Chair","105-010.png"
"","3693","image-button-response","60","null","317212","685c6ca90f751d3aae6b1794","685c6e16a9ab510e3d992d03","671a9df40aa3def0ece893b1","false","false","Car","https://kisumu-drawings.s3-us-west-1.amazonaws.com/105-008.png","3","Car","105-008.png"
"","4099","image-button-response","61","null","321815","685c6ca90f751d3aae6b1794","685c6e16a9ab510e3d992d03","671a9df40aa3def0ece893b1","false","false","Chair","https://kisumu-drawings.s3-us-west-1.amazonaws.com/105-014.png","5","Chair","105-014.png"
"","6854","image-button-response","62","null","329184","685c6ca90f751d3aae6b1794","685c6e16a9ab510e3d992d03","671a9df40aa3def0ece893b1","false","false","Airplane","https://kisumu-drawings.s3-us-west-1.amazonaws.com/105-009.png","0","Airplane","105-009.png"
"","7140","image-button-response","63","null","336832","685c6ca90f751d3aae6b1794","685c6e16a9ab510e3d992d03","671a9df40aa3def0ece893b1","false","false","Airplane","https://kisumu-drawings.s3-us-west-1.amazonaws.com/3-005.png","0","Airplane","3-005.png"
"","3022","image-button-response","64","null","340368","685c6ca90f751d3aae6b1794","685c6e16a9ab510e3d992d03","671a9df40aa3def0ece893b1","false","false","Cup","https://kisumu-drawings.s3-us-west-1.amazonaws.com/91-015.png","6","Cup","91-015.png"
"","3129","image-button-response","65","null","344012","685c6ca90f751d3aae6b1794","685c6e16a9ab510e3d992d03","671a9df40aa3def0ece893b1","false","false","Tree","https://kisumu-drawings.s3-us-west-1.amazonaws.com/4-014.png","10","Tree","4-014.png"
"","1965","image-button-response","66","null","346484","685c6ca90f751d3aae6b1794","685c6e16a9ab510e3d992d03","671a9df40aa3def0ece893b1","false","false","House","https://kisumu-drawings.s3-us-west-1.amazonaws.com/34-006.png","8","House","34-006.png"
"","4046","image-button-response","67","null","351030","685c6ca90f751d3aae6b1794","685c6e16a9ab510e3d992d03","671a9df40aa3def0ece893b1","false","false","Chair","https://kisumu-drawings.s3-us-west-1.amazonaws.com/4-009.png","5","Chair","4-009.png"
"","10271","image-button-response","68","null","361808","685c6ca90f751d3aae6b1794","685c6e16a9ab510e3d992d03","671a9df40aa3def0ece893b1","false","false","Rabbit","https://kisumu-drawings.s3-us-west-1.amazonaws.com/34-008.png","4","Cat","34-008.png"
"","2144","image-button-response","69","null","364464","685c6ca90f751d3aae6b1794","685c6e16a9ab510e3d992d03","671a9df40aa3def0ece893b1","false","false","Bicycle","https://kisumu-drawings.s3-us-west-1.amazonaws.com/104-016.png","1","Bicycle","104-016.png"
"","7927","image-button-response","70","null","372896","685c6ca90f751d3aae6b1794","685c6e16a9ab510e3d992d03","671a9df40aa3def0ece893b1","false","false","House","https://kisumu-drawings.s3-us-west-1.amazonaws.com/4-012.png","8","House","4-012.png"
"","2910","image-button-response","71","null","376316","685c6ca90f751d3aae6b1794","685c6e16a9ab510e3d992d03","671a9df40aa3def0ece893b1","false","false","Chair","https://kisumu-drawings.s3-us-west-1.amazonaws.com/66-014.png","5","Chair","66-014.png"
"","3481","image-button-response","72","null","380302","685c6ca90f751d3aae6b1794","685c6e16a9ab510e3d992d03","671a9df40aa3def0ece893b1","false","false","Watch","https://kisumu-drawings.s3-us-west-1.amazonaws.com/105-005.png","11","Watch","105-005.png"
"","5610","image-button-response","73","null","386418","685c6ca90f751d3aae6b1794","685c6e16a9ab510e3d992d03","671a9df40aa3def0ece893b1","false","false","Cat","https://kisumu-drawings.s3-us-west-1.amazonaws.com/91-007.png","4","Cat","91-007.png"
"","2440","image-button-response","74","null","389382","685c6ca90f751d3aae6b1794","685c6e16a9ab510e3d992d03","671a9df40aa3def0ece893b1","false","false","Car","https://kisumu-drawings.s3-us-west-1.amazonaws.com/59-010.png","3","Car","59-010.png"
"","8313","image-button-response","75","null","398202","685c6ca90f751d3aae6b1794","685c6e16a9ab510e3d992d03","671a9df40aa3def0ece893b1","false","false","Bird","https://kisumu-drawings.s3-us-west-1.amazonaws.com/3-007.png","0","Airplane","3-007.png"
