"view_history","rt","trial_type","trial_index","plugin_version","time_elapsed","study_id","session_id","participant_id","catch_trial","prep_trial","sketcher_category","stimulus","response","response_category","sketch_id"
"[{""page_index"":0,""viewing_time"":4382},{""page_index"":1,""viewing_time"":5077},{""page_index"":2,""viewing_time"":5172},{""page_index"":3,""viewing_time"":11411}]","26043","instructions","0","null","26048","685c6ca90f751d3aae6b1794","685c6e1e9da6ca754a4da032","672725b2b7c4533a62aabc07","","","","","","",""
"","1949","image-button-response","1","null","29001","685c6ca90f751d3aae6b1794","685c6e1e9da6ca754a4da032","672725b2b7c4533a62aabc07","false","true","car","stimuli/prep_trials/1_car_prep.png","3","Car",""
"","1671","image-button-response","2","null","31186","685c6ca90f751d3aae6b1794","685c6e1e9da6ca754a4da032","672725b2b7c4533a62aabc07","false","true","cat","stimuli/prep_trials/0_cat_prep.jpg","4","Cat",""
"","7882","image-button-response","3","null","39571","685c6ca90f751d3aae6b1794","685c6e1e9da6ca754a4da032","672725b2b7c4533a62aabc07","false","false","Hat","https://kisumu-drawings.s3-us-west-1.amazonaws.com/90-009.png","6","Cup","90-009.png"
"","8109","image-button-response","4","null","48181","685c6ca90f751d3aae6b1794","685c6e1e9da6ca754a4da032","672725b2b7c4533a62aabc07","false","false","Hat","https://kisumu-drawings.s3-us-west-1.amazonaws.com/24-016.png","11","Watch","24-016.png"
"","3760","image-button-response","5","null","52448","685c6ca90f751d3aae6b1794","685c6e1e9da6ca754a4da032","672725b2b7c4533a62aabc07","false","false","Rabbit","https://kisumu-drawings.s3-us-west-1.amazonaws.com/104-012.png","9","Rabbit","104-012.png"
"","2481","image-button-response","6","null","55436","685c6ca90f751d3aae6b1794","685c6e1e9da6ca754a4da032","672725b2b7c4533a62aabc07","false","false","Chair","https://kisumu-drawings.s3-us-west-1.amazonaws.com/90-011.png","5","Chair","90-011.png"
"","2904","image-button-response","7","null","58842","685c6ca90f751d3aae6b1794","685c6e1e9da6ca754a4da032","672725b2b7c4533a62aabc07","false","false","Bird","https://kisumu-drawings.s3-us-west-1.amazonaws.com/4-005.png","2","Bird","4-005.png"
"","2272","image-button-response","8","null","61622","685c6ca90f751d3aae6b1794","685c6e1e9da6ca754a4da032","672725b2b7c4533a62aabc07","false","false","House","https://kisumu-drawings.s3-us-west-1.amazonaws.com/24-015.png","8","House","24-015.png"
"","3097","image-button-response","9","null","65221","685c6ca90f751d3aae6b1794","685c6e1e9da6ca754a4da032","672725b2b7c4533a62aabc07","false","false","Bicycle","https://kisumu-drawings.s3-us-west-1.amazonaws.com/105-006.png","1","Bicycle","105-006.png"
"","6857","image-button-response","10","null","72586","685c6ca90f751d3aae6b1794","685c6e1e9da6ca754a4da032","672725b2b7c4533a62aabc07","false","false","Cat","https://kisumu-drawings.s3-us-west-1.amazonaws.com/34-016.png","2","Bird","34-016.png"
"","13939","image-button-response","11","null","87027","685c6ca90f751d3aae6b1794","685c6e1e9da6ca754a4da032","672725b2b7c4533a62aabc07","false","false","Rabbit","https://kisumu-drawings.s3-us-west-1.amazonaws.com/24-011.png","4","Cat","24-011.png"
"","9171","image-button-response","12","null","96700","685c6ca90f751d3aae6b1794","685c6e1e9da6ca754a4da032","672725b2b7c4533a62aabc07","false","false","Bicycle","https://kisumu-drawings.s3-us-west-1.amazonaws.com/4-007.png","7","Hat","4-007.png"
"","2839","image-button-response","13","null","100040","685c6ca90f751d3aae6b1794","685c6e1e9da6ca754a4da032","672725b2b7c4533a62aabc07","false","false","Tree","https://kisumu-drawings.s3-us-west-1.amazonaws.com/3-015.png","10","Tree","3-015.png"
"","3570","image-button-response","14","null","104115","685c6ca90f751d3aae6b1794","685c6e1e9da6ca754a4da032","672725b2b7c4533a62aabc07","false","false","Car","https://kisumu-drawings.s3-us-west-1.amazonaws.com/34-015.png","3","Car","34-015.png"
"","12175","image-button-response","15","null","116792","685c6ca90f751d3aae6b1794","685c6e1e9da6ca754a4da032","672725b2b7c4533a62aabc07","false","false","Car","https://kisumu-drawings.s3-us-west-1.amazonaws.com/66-009.png","8","House","66-009.png"
"","3395","image-button-response","16","null","120699","685c6ca90f751d3aae6b1794","685c6e1e9da6ca754a4da032","672725b2b7c4533a62aabc07","false","false","Cup","https://kisumu-drawings.s3-us-west-1.amazonaws.com/65-008.png","6","Cup","65-008.png"
"","3366","image-button-response","17","null","124568","685c6ca90f751d3aae6b1794","685c6e1e9da6ca754a4da032","672725b2b7c4533a62aabc07","false","false","Bicycle","https://kisumu-drawings.s3-us-west-1.amazonaws.com/66-012.png","3","Car","66-012.png"
"","5916","image-button-response","18","null","130987","685c6ca90f751d3aae6b1794","685c6e1e9da6ca754a4da032","672725b2b7c4533a62aabc07","false","false","Chair","https://kisumu-drawings.s3-us-west-1.amazonaws.com/4-009.png","5","Chair","4-009.png"
"","3447","image-button-response","19","null","134941","685c6ca90f751d3aae6b1794","685c6e1e9da6ca754a4da032","672725b2b7c4533a62aabc07","false","false","Bird","https://kisumu-drawings.s3-us-west-1.amazonaws.com/91-011.png","0","Airplane","91-011.png"
"","3949","image-button-response","20","null","139392","685c6ca90f751d3aae6b1794","685c6e1e9da6ca754a4da032","672725b2b7c4533a62aabc07","false","false","Tree","https://kisumu-drawings.s3-us-west-1.amazonaws.com/24-013.png","7","Hat","24-013.png"
"","7486","image-button-response","21","null","147381","685c6ca90f751d3aae6b1794","685c6e1e9da6ca754a4da032","672725b2b7c4533a62aabc07","false","false","Rabbit","https://kisumu-drawings.s3-us-west-1.amazonaws.com/65-016.png","4","Cat","65-016.png"
"","9125","image-button-response","22","null","157016","685c6ca90f751d3aae6b1794","685c6e1e9da6ca754a4da032","672725b2b7c4533a62aabc07","false","false","Cat","https://kisumu-drawings.s3-us-west-1.amazonaws.com/58-009.png","2","Bird","58-009.png"
"","4432","image-button-response","23","null","161951","685c6ca90f751d3aae6b1794","685c6e1e9da6ca754a4da032","672725b2b7c4533a62aabc07","true","false","airplane","stimuli/catch_trials/0_airplane_catch.jpg","0","Airplane",""
"","3340","image-button-response","24","null","165794","685c6ca90f751d3aae6b1794","685c6e1e9da6ca754a4da032","672725b2b7c4533a62aabc07","false","false","Tree","https://kisumu-drawings.s3-us-west-1.amazonaws.com/90-006.png","10","Tree","90-006.png"
"","3692","image-button-response","25","null","169988","685c6ca90f751d3aae6b1794","685c6e1e9da6ca754a4da032","672725b2b7c4533a62aabc07","false","false","Bicycle","https://kisumu-drawings.s3-us-west-1.amazonaws.com/59-012.png","1","Bicycle","59-012.png"
"","3211","image-button-response","26","null","173702","685c6ca90f751d3aae6b1794","685c6e1e9da6ca754a4da032","672725b2b7c4533a62aabc07","false","false","Cup","https://kisumu-drawings.s3-us-west-1.amazonaws.com/104-008.png","6","Cup","104-008.png"
"","1894","image-button-response","27","null","176102","685c6ca90f751d3aae6b1794","685c6e1e9da6ca754a4da032","672725b2b7c4533a62aabc07","false","false","Car","https://kisumu-drawings.s3-us-west-1.amazonaws.com/91-006.png","3","Car","91-006.png"
"","1957","image-button-response","28","null","178561","685c6ca90f751d3aae6b1794","685c6e1e9da6ca754a4da032","672725b2b7c4533a62aabc07","false","false","Cup","https://kisumu-drawings.s3-us-west-1.amazonaws.com/90-008.png","6","Cup","90-008.png"
"","1700","image-button-response","29","null","180763","685c6ca90f751d3aae6b1794","685c6e1e9da6ca754a4da032","672725b2b7c4533a62aabc07","false","false","Tree","https://kisumu-drawings.s3-us-west-1.amazonaws.com/58-006.png","10","Tree","58-006.png"
"","5891","image-button-response","30","null","187156","685c6ca90f751d3aae6b1794","685c6e1e9da6ca754a4da032","672725b2b7c4533a62aabc07","false","false","Chair","https://kisumu-drawings.s3-us-west-1.amazonaws.com/34-014.png","5","Chair","34-014.png"
"","4886","image-button-response","31","null","192557","685c6ca90f751d3aae6b1794","685c6e1e9da6ca754a4da032","672725b2b7c4533a62aabc07","false","false","Car","https://kisumu-drawings.s3-us-west-1.amazonaws.com/105-008.png","3","Car","105-008.png"
"","2625","image-button-response","32","null","195685","685c6ca90f751d3aae6b1794","685c6e1e9da6ca754a4da032","672725b2b7c4533a62aabc07","false","false","Bird","https://kisumu-drawings.s3-us-west-1.amazonaws.com/105-007.png","2","Bird","105-007.png"
"","3234","image-button-response","33","null","199420","685c6ca90f751d3aae6b1794","685c6e1e9da6ca754a4da032","672725b2b7c4533a62aabc07","false","false","Tree","https://kisumu-drawings.s3-us-west-1.amazonaws.com/65-011.png","10","Tree","65-011.png"
"","15598","image-button-response","34","null","215521","685c6ca90f751d3aae6b1794","685c6e1e9da6ca754a4da032","672725b2b7c4533a62aabc07","false","false","Car","https://kisumu-drawings.s3-us-west-1.amazonaws.com/4-008.png","0","Airplane","4-008.png"
"","13563","image-button-response","35","null","229593","685c6ca90f751d3aae6b1794","685c6e1e9da6ca754a4da032","672725b2b7c4533a62aabc07","false","false","Watch","https://kisumu-drawings.s3-us-west-1.amazonaws.com/24-012.png","5","Chair","24-012.png"
"","8215","image-button-response","36","null","238309","685c6ca90f751d3aae6b1794","685c6e1e9da6ca754a4da032","672725b2b7c4533a62aabc07","false","false","Airplane","https://kisumu-drawings.s3-us-west-1.amazonaws.com/34-011.png","9","Rabbit","34-011.png"
"","1803","image-button-response","37","null","240614","685c6ca90f751d3aae6b1794","685c6e1e9da6ca754a4da032","672725b2b7c4533a62aabc07","false","false","House","https://kisumu-drawings.s3-us-west-1.amazonaws.com/104-011.png","8","House","104-011.png"
"","1385","image-button-response","38","null","242502","685c6ca90f751d3aae6b1794","685c6e1e9da6ca754a4da032","672725b2b7c4533a62aabc07","false","false","Car","https://kisumu-drawings.s3-us-west-1.amazonaws.com/59-010.png","3","Car","59-010.png"
"","6242","image-button-response","39","null","249246","685c6ca90f751d3aae6b1794","685c6e1e9da6ca754a4da032","672725b2b7c4533a62aabc07","false","false","Cat","https://kisumu-drawings.s3-us-west-1.amazonaws.com/91-007.png","4","Cat","91-007.png"
"","2423","image-button-response","40","null","252170","685c6ca90f751d3aae6b1794","685c6e1e9da6ca754a4da032","672725b2b7c4533a62aabc07","false","false","Cat","https://kisumu-drawings.s3-us-west-1.amazonaws.com/66-010.png","4","Cat","66-010.png"
"","1976","image-button-response","41","null","254650","685c6ca90f751d3aae6b1794","685c6e1e9da6ca754a4da032","672725b2b7c4533a62aabc07","false","false","Airplane","https://kisumu-drawings.s3-us-west-1.amazonaws.com/4-006.png","2","Bird","4-006.png"
"","7040","image-button-response","42","null","262200","685c6ca90f751d3aae6b1794","685c6e1e9da6ca754a4da032","672725b2b7c4533a62aabc07","false","false","Bicycle","https://kisumu-drawings.s3-us-west-1.amazonaws.com/34-013.png","9","Rabbit","34-013.png"
"","1649","image-button-response","43","null","264354","685c6ca90f751d3aae6b1794","685c6e1e9da6ca754a4da032","672725b2b7c4533a62aabc07","false","false","House","https://kisumu-drawings.s3-us-west-1.amazonaws.com/65-009.png","8","House","65-009.png"
"","1815","image-button-response","44","null","266672","685c6ca90f751d3aae6b1794","685c6e1e9da6ca754a4da032","672725b2b7c4533a62aabc07","false","false","Airplane","https://kisumu-drawings.s3-us-west-1.amazonaws.com/105-009.png","0","Airplane","105-009.png"
"","5018","image-button-response","45","null","272195","685c6ca90f751d3aae6b1794","685c6e1e9da6ca754a4da032","672725b2b7c4533a62aabc07","false","false","Cat","https://kisumu-drawings.s3-us-west-1.amazonaws.com/4-010.png","9","Rabbit","4-010.png"
"","1450","image-button-response","46","null","274150","685c6ca90f751d3aae6b1794","685c6e1e9da6ca754a4da032","672725b2b7c4533a62aabc07","false","false","House","https://kisumu-drawings.s3-us-west-1.amazonaws.com/58-005.png","8","House","58-005.png"
"","2981","image-button-response","47","null","277637","685c6ca90f751d3aae6b1794","685c6e1e9da6ca754a4da032","672725b2b7c4533a62aabc07","false","false","Rabbit","https://kisumu-drawings.s3-us-west-1.amazonaws.com/3-014.png","3","Car","3-014.png"
"","3327","image-button-response","48","null","281477","685c6ca90f751d3aae6b1794","685c6e1e9da6ca754a4da032","672725b2b7c4533a62aabc07","false","false","Chair","https://kisumu-drawings.s3-us-west-1.amazonaws.com/58-008.png","5","Chair","58-008.png"
"","1684","image-button-response","49","null","283663","685c6ca90f751d3aae6b1794","685c6e1e9da6ca754a4da032","672725b2b7c4533a62aabc07","false","false","Airplane","https://kisumu-drawings.s3-us-west-1.amazonaws.com/91-016.png","0","Airplane","91-016.png"
"","9459","image-button-response","50","null","293626","685c6ca90f751d3aae6b1794","685c6e1e9da6ca754a4da032","672725b2b7c4533a62aabc07","false","false","Bird","https://kisumu-drawings.s3-us-west-1.amazonaws.com/66-013.png","4","Cat","66-013.png"
"","3318","image-button-response","51","null","297446","685c6ca90f751d3aae6b1794","685c6e1e9da6ca754a4da032","672725b2b7c4533a62aabc07","false","false","Hat","https://kisumu-drawings.s3-us-west-1.amazonaws.com/104-010.png","3","Car","104-010.png"
"","3077","image-button-response","52","null","301036","685c6ca90f751d3aae6b1794","685c6e1e9da6ca754a4da032","672725b2b7c4533a62aabc07","false","false","Cup","https://kisumu-drawings.s3-us-west-1.amazonaws.com/58-011.png","6","Cup","58-011.png"
"","2338","image-button-response","53","null","303876","685c6ca90f751d3aae6b1794","685c6e1e9da6ca754a4da032","672725b2b7c4533a62aabc07","false","false","Chair","https://kisumu-drawings.s3-us-west-1.amazonaws.com/66-014.png","5","Chair","66-014.png"
"","1438","image-button-response","54","null","305815","685c6ca90f751d3aae6b1794","685c6e1e9da6ca754a4da032","672725b2b7c4533a62aabc07","false","false","Airplane","https://kisumu-drawings.s3-us-west-1.amazonaws.com/59-011.png","0","Airplane","59-011.png"
"","5943","image-button-response","55","null","312261","685c6ca90f751d3aae6b1794","685c6e1e9da6ca754a4da032","672725b2b7c4533a62aabc07","false","false","Cat","https://kisumu-drawings.s3-us-west-1.amazonaws.com/105-010.png","8","House","105-010.png"
"","1549","image-button-response","56","null","314313","685c6ca90f751d3aae6b1794","685c6e1e9da6ca754a4da032","672725b2b7c4533a62aabc07","false","false","Bird","https://kisumu-drawings.s3-us-west-1.amazonaws.com/59-009.png","0","Airplane","59-009.png"
"","3725","image-button-response","57","null","318540","685c6ca90f751d3aae6b1794","685c6e1e9da6ca754a4da032","672725b2b7c4533a62aabc07","false","false","Chair","https://kisumu-drawings.s3-us-west-1.amazonaws.com/104-009.png","5","Chair","104-009.png"
"","1594","image-button-response","58","null","320637","685c6ca90f751d3aae6b1794","685c6e1e9da6ca754a4da032","672725b2b7c4533a62aabc07","false","false","Bicycle","https://kisumu-drawings.s3-us-west-1.amazonaws.com/91-012.png","1","Bicycle","91-012.png"
"","5061","image-button-response","59","null","326203","685c6ca90f751d3aae6b1794","685c6e1e9da6ca754a4da032","672725b2b7c4533a62aabc07","false","false","House","https://kisumu-drawings.s3-us-west-1.amazonaws.com/3-013.png","6","Cup","3-013.png"
"","5387","image-button-response","60","null","332092","685c6ca90f751d3aae6b1794","685c6e1e9da6ca754a4da032","672725b2b7c4533a62aabc07","false","false","Watch","https://kisumu-drawings.s3-us-west-1.amazonaws.com/90-005.png","0","Airplane","90-005.png"
"","4893","image-button-response","61","null","337491","685c6ca90f751d3aae6b1794","685c6e1e9da6ca754a4da032","672725b2b7c4533a62aabc07","false","false","Watch","https://kisumu-drawings.s3-us-west-1.amazonaws.com/58-016.png","11","Watch","58-016.png"
"","5336","image-button-response","62","null","343328","685c6ca90f751d3aae6b1794","685c6e1e9da6ca754a4da032","672725b2b7c4533a62aabc07","false","false","Rabbit","https://kisumu-drawings.s3-us-west-1.amazonaws.com/58-007.png","2","Bird","58-007.png"
"","1377","image-button-response","63","null","345208","685c6ca90f751d3aae6b1794","685c6e1e9da6ca754a4da032","672725b2b7c4533a62aabc07","false","false","Watch","https://kisumu-drawings.s3-us-west-1.amazonaws.com/104-005.png","11","Watch","104-005.png"
"","3312","image-button-response","64","null","349025","685c6ca90f751d3aae6b1794","685c6e1e9da6ca754a4da032","672725b2b7c4533a62aabc07","false","false","Cup","https://kisumu-drawings.s3-us-west-1.amazonaws.com/3-011.png","6","Cup","3-011.png"
"","1887","image-button-response","65","null","351414","685c6ca90f751d3aae6b1794","685c6e1e9da6ca754a4da032","672725b2b7c4533a62aabc07","false","false","Watch","https://kisumu-drawings.s3-us-west-1.amazonaws.com/65-010.png","11","Watch","65-010.png"
"","10244","image-button-response","66","null","362161","685c6ca90f751d3aae6b1794","685c6e1e9da6ca754a4da032","672725b2b7c4533a62aabc07","false","false","Hat","https://kisumu-drawings.s3-us-west-1.amazonaws.com/65-014.png","10","Tree","65-014.png"
"","3015","image-button-response","67","null","365678","685c6ca90f751d3aae6b1794","685c6e1e9da6ca754a4da032","672725b2b7c4533a62aabc07","false","false","Bird","https://kisumu-drawings.s3-us-west-1.amazonaws.com/34-012.png","0","Airplane","34-012.png"
"","6578","image-button-response","68","null","372761","685c6ca90f751d3aae6b1794","685c6e1e9da6ca754a4da032","672725b2b7c4533a62aabc07","false","false","Airplane","https://kisumu-drawings.s3-us-west-1.amazonaws.com/66-011.png","4","Cat","66-011.png"
"","3873","image-button-response","69","null","377135","685c6ca90f751d3aae6b1794","685c6e1e9da6ca754a4da032","672725b2b7c4533a62aabc07","false","false","Watch","https://kisumu-drawings.s3-us-west-1.amazonaws.com/3-016.png","11","Watch","3-016.png"
"","2092","image-button-response","70","null","379731","685c6ca90f751d3aae6b1794","685c6e1e9da6ca754a4da032","672725b2b7c4533a62aabc07","false","false","Hat","https://kisumu-drawings.s3-us-west-1.amazonaws.com/3-012.png","11","Watch","3-012.png"
"","2169","image-button-response","71","null","382406","685c6ca90f751d3aae6b1794","685c6e1e9da6ca754a4da032","672725b2b7c4533a62aabc07","false","false","House","https://kisumu-drawings.s3-us-west-1.amazonaws.com/90-016.png","8","House","90-016.png"
"","2055","image-button-response","72","null","384963","685c6ca90f751d3aae6b1794","685c6e1e9da6ca754a4da032","672725b2b7c4533a62aabc07","false","false","Rabbit","https://kisumu-drawings.s3-us-west-1.amazonaws.com/90-007.png","4","Cat","90-007.png"
"","1417","image-button-response","73","null","386889","685c6ca90f751d3aae6b1794","685c6e1e9da6ca754a4da032","672725b2b7c4533a62aabc07","false","false","Tree","https://kisumu-drawings.s3-us-west-1.amazonaws.com/104-007.png","10","Tree","104-007.png"
"","1586","image-button-response","74","null","388987","685c6ca90f751d3aae6b1794","685c6e1e9da6ca754a4da032","672725b2b7c4533a62aabc07","false","false","Cup","https://kisumu-drawings.s3-us-west-1.amazonaws.com/24-014.png","6","Cup","24-014.png"
"","2813","image-button-response","75","null","392302","685c6ca90f751d3aae6b1794","685c6e1e9da6ca754a4da032","672725b2b7c4533a62aabc07","false","false","Hat","https://kisumu-drawings.s3-us-west-1.amazonaws.com/58-012.png","3","Car","58-012.png"
