"view_history","rt","trial_type","trial_index","plugin_version","time_elapsed","study_id","session_id","participant_id","catch_trial","prep_trial","sketcher_category","stimulus","response","response_category","sketch_id"
"[{""page_index"":0,""viewing_time"":362713},{""page_index"":1,""viewing_time"":7648},{""page_index"":2,""viewing_time"":9304},{""page_index"":3,""viewing_time"":10424}]","390089","instructions","0","null","390138","685c6ca90f751d3aae6b1794","685c6e1a7ba6934115fb8394","67363452674f3db8059e7888","","","","","","",""
"","2420","image-button-response","1","null","393562","685c6ca90f751d3aae6b1794","685c6e1a7ba6934115fb8394","67363452674f3db8059e7888","false","true","car","stimuli/prep_trials/1_car_prep.png","3","Car",""
"","1255","image-button-response","2","null","395322","685c6ca90f751d3aae6b1794","685c6e1a7ba6934115fb8394","67363452674f3db8059e7888","false","true","cat","stimuli/prep_trials/0_cat_prep.jpg","4","Cat",""
"","10508","image-button-response","3","null","406338","685c6ca90f751d3aae6b1794","685c6e1a7ba6934115fb8394","67363452674f3db8059e7888","false","false","Chair","https://kisumu-drawings.s3-us-west-1.amazonaws.com/94-010.png","5","Chair","94-010.png"
"","4878","image-button-response","4","null","411730","685c6ca90f751d3aae6b1794","685c6e1a7ba6934115fb8394","67363452674f3db8059e7888","false","false","Hat","https://kisumu-drawings.s3-us-west-1.amazonaws.com/96-008.png","7","Hat","96-008.png"
"","4381","image-button-response","5","null","416629","685c6ca90f751d3aae6b1794","685c6e1a7ba6934115fb8394","67363452674f3db8059e7888","false","false","Cat","https://kisumu-drawings.s3-us-west-1.amazonaws.com/6-011.png","6","Cup","6-011.png"
"","9778","image-button-response","6","null","426908","685c6ca90f751d3aae6b1794","685c6e1a7ba6934115fb8394","67363452674f3db8059e7888","false","false","Chair","https://kisumu-drawings.s3-us-west-1.amazonaws.com/27-011.png","6","Cup","27-011.png"
"","6888","image-button-response","7","null","434300","685c6ca90f751d3aae6b1794","685c6e1a7ba6934115fb8394","67363452674f3db8059e7888","false","false","Airplane","https://kisumu-drawings.s3-us-west-1.amazonaws.com/106-008.png","0","Airplane","106-008.png"
"","8293","image-button-response","8","null","443100","685c6ca90f751d3aae6b1794","685c6e1a7ba6934115fb8394","67363452674f3db8059e7888","false","false","Rabbit","https://kisumu-drawings.s3-us-west-1.amazonaws.com/110-008.png","4","Cat","110-008.png"
"","3585","image-button-response","9","null","447188","685c6ca90f751d3aae6b1794","685c6e1a7ba6934115fb8394","67363452674f3db8059e7888","false","false","Bird","https://kisumu-drawings.s3-us-west-1.amazonaws.com/67-016.png","2","Bird","67-016.png"
"","13446","image-button-response","10","null","461149","685c6ca90f751d3aae6b1794","685c6e1a7ba6934115fb8394","67363452674f3db8059e7888","false","false","Airplane","https://kisumu-drawings.s3-us-west-1.amazonaws.com/34-011.png","5","Chair","34-011.png"
"","4008","image-button-response","11","null","465660","685c6ca90f751d3aae6b1794","685c6e1a7ba6934115fb8394","67363452674f3db8059e7888","false","false","House","https://kisumu-drawings.s3-us-west-1.amazonaws.com/110-016.png","8","House","110-016.png"
"","1457","image-button-response","12","null","467628","685c6ca90f751d3aae6b1794","685c6e1a7ba6934115fb8394","67363452674f3db8059e7888","false","false","House","https://kisumu-drawings.s3-us-west-1.amazonaws.com/96-007.png","8","House","96-007.png"
"","2860","image-button-response","13","null","470997","685c6ca90f751d3aae6b1794","685c6e1a7ba6934115fb8394","67363452674f3db8059e7888","false","false","Cat","https://kisumu-drawings.s3-us-west-1.amazonaws.com/93-007.png","4","Cat","93-007.png"
"","2809","image-button-response","14","null","474308","685c6ca90f751d3aae6b1794","685c6e1a7ba6934115fb8394","67363452674f3db8059e7888","false","false","Airplane","https://kisumu-drawings.s3-us-west-1.amazonaws.com/59-011.png","0","Airplane","59-011.png"
"","2798","image-button-response","15","null","477623","685c6ca90f751d3aae6b1794","685c6e1a7ba6934115fb8394","67363452674f3db8059e7888","false","false","Cat","https://kisumu-drawings.s3-us-west-1.amazonaws.com/50-016.png","4","Cat","50-016.png"
"","2266","image-button-response","16","null","480399","685c6ca90f751d3aae6b1794","685c6e1a7ba6934115fb8394","67363452674f3db8059e7888","false","false","Cat","https://kisumu-drawings.s3-us-west-1.amazonaws.com/107-013.png","4","Cat","107-013.png"
"","2256","image-button-response","17","null","483167","685c6ca90f751d3aae6b1794","685c6e1a7ba6934115fb8394","67363452674f3db8059e7888","false","false","Car","https://kisumu-drawings.s3-us-west-1.amazonaws.com/68-010.png","3","Car","68-010.png"
"","2283","image-button-response","18","null","485951","685c6ca90f751d3aae6b1794","685c6e1a7ba6934115fb8394","67363452674f3db8059e7888","false","false","Rabbit","https://kisumu-drawings.s3-us-west-1.amazonaws.com/70-006.png","4","Cat","70-006.png"
"","1511","image-button-response","19","null","487975","685c6ca90f751d3aae6b1794","685c6e1a7ba6934115fb8394","67363452674f3db8059e7888","true","false","airplane","stimuli/catch_trials/0_airplane_catch.jpg","0","Airplane",""
"","2819","image-button-response","20","null","491303","685c6ca90f751d3aae6b1794","685c6e1a7ba6934115fb8394","67363452674f3db8059e7888","false","false","Car","https://kisumu-drawings.s3-us-west-1.amazonaws.com/93-009.png","3","Car","93-009.png"
"","7304","image-button-response","21","null","499111","685c6ca90f751d3aae6b1794","685c6e1a7ba6934115fb8394","67363452674f3db8059e7888","false","false","Tree","https://kisumu-drawings.s3-us-west-1.amazonaws.com/96-005.png","10","Tree","96-005.png"
"","16942","image-button-response","22","null","516559","685c6ca90f751d3aae6b1794","685c6e1a7ba6934115fb8394","67363452674f3db8059e7888","false","false","Bird","https://kisumu-drawings.s3-us-west-1.amazonaws.com/5-016.png","5","Chair","5-016.png"
"","6220","image-button-response","23","null","523282","685c6ca90f751d3aae6b1794","685c6e1a7ba6934115fb8394","67363452674f3db8059e7888","false","false","Watch","https://kisumu-drawings.s3-us-west-1.amazonaws.com/29-012.png","3","Car","29-012.png"
"","8143","image-button-response","24","null","531935","685c6ca90f751d3aae6b1794","685c6e1a7ba6934115fb8394","67363452674f3db8059e7888","false","false","Tree","https://kisumu-drawings.s3-us-west-1.amazonaws.com/53-012.png","7","Hat","53-012.png"
"","5281","image-button-response","25","null","537721","685c6ca90f751d3aae6b1794","685c6e1a7ba6934115fb8394","67363452674f3db8059e7888","false","false","Bicycle","https://kisumu-drawings.s3-us-west-1.amazonaws.com/60-015.png","1","Bicycle","60-015.png"
"","3440","image-button-response","26","null","541666","685c6ca90f751d3aae6b1794","685c6e1a7ba6934115fb8394","67363452674f3db8059e7888","false","false","House","https://kisumu-drawings.s3-us-west-1.amazonaws.com/53-015.png","8","House","53-015.png"
"","3098","image-button-response","27","null","545265","685c6ca90f751d3aae6b1794","685c6e1a7ba6934115fb8394","67363452674f3db8059e7888","false","false","Bicycle","https://kisumu-drawings.s3-us-west-1.amazonaws.com/106-009.png","1","Bicycle","106-009.png"
"","2637","image-button-response","28","null","548409","685c6ca90f751d3aae6b1794","685c6e1a7ba6934115fb8394","67363452674f3db8059e7888","false","false","Cup","https://kisumu-drawings.s3-us-west-1.amazonaws.com/95-013.png","6","Cup","95-013.png"
"","13604","image-button-response","29","null","562529","685c6ca90f751d3aae6b1794","685c6e1a7ba6934115fb8394","67363452674f3db8059e7888","false","false","Tree","https://kisumu-drawings.s3-us-west-1.amazonaws.com/29-014.png","10","Tree","29-014.png"
"","2474","image-button-response","30","null","565513","685c6ca90f751d3aae6b1794","685c6e1a7ba6934115fb8394","67363452674f3db8059e7888","false","false","Bicycle","https://kisumu-drawings.s3-us-west-1.amazonaws.com/92-005.png","3","Car","92-005.png"
"","16388","image-button-response","31","null","582417","685c6ca90f751d3aae6b1794","685c6e1a7ba6934115fb8394","67363452674f3db8059e7888","false","false","Watch","https://kisumu-drawings.s3-us-west-1.amazonaws.com/53-016.png","9","Rabbit","53-016.png"
"","3510","image-button-response","32","null","586433","685c6ca90f751d3aae6b1794","685c6e1a7ba6934115fb8394","67363452674f3db8059e7888","false","false","Cup","https://kisumu-drawings.s3-us-west-1.amazonaws.com/109-007.png","6","Cup","109-007.png"
"","3267","image-button-response","33","null","590201","685c6ca90f751d3aae6b1794","685c6e1a7ba6934115fb8394","67363452674f3db8059e7888","false","false","Cat","https://kisumu-drawings.s3-us-west-1.amazonaws.com/68-011.png","4","Cat","68-011.png"
"","8821","image-button-response","34","null","599532","685c6ca90f751d3aae6b1794","685c6e1a7ba6934115fb8394","67363452674f3db8059e7888","false","false","Hat","https://kisumu-drawings.s3-us-west-1.amazonaws.com/70-014.png","7","Hat","70-014.png"
"","3615","image-button-response","35","null","603652","685c6ca90f751d3aae6b1794","685c6e1a7ba6934115fb8394","67363452674f3db8059e7888","false","false","House","https://kisumu-drawings.s3-us-west-1.amazonaws.com/9-015.png","8","House","9-015.png"
"","2776","image-button-response","36","null","606932","685c6ca90f751d3aae6b1794","685c6e1a7ba6934115fb8394","67363452674f3db8059e7888","false","false","Cup","https://kisumu-drawings.s3-us-west-1.amazonaws.com/7-012.png","6","Cup","7-012.png"
"","2287","image-button-response","37","null","609724","685c6ca90f751d3aae6b1794","685c6e1a7ba6934115fb8394","67363452674f3db8059e7888","false","false","Car","https://kisumu-drawings.s3-us-west-1.amazonaws.com/5-006.png","3","Car","5-006.png"
"","2560","image-button-response","38","null","612796","685c6ca90f751d3aae6b1794","685c6e1a7ba6934115fb8394","67363452674f3db8059e7888","false","false","Bird","https://kisumu-drawings.s3-us-west-1.amazonaws.com/60-014.png","2","Bird","60-014.png"
"","3888","image-button-response","39","null","617188","685c6ca90f751d3aae6b1794","685c6e1a7ba6934115fb8394","67363452674f3db8059e7888","false","false","Bicycle","https://kisumu-drawings.s3-us-west-1.amazonaws.com/4-007.png","7","Hat","4-007.png"
"","6392","image-button-response","40","null","624084","685c6ca90f751d3aae6b1794","685c6e1a7ba6934115fb8394","67363452674f3db8059e7888","false","false","Watch","https://kisumu-drawings.s3-us-west-1.amazonaws.com/9-005.png","4","Cat","9-005.png"
"","4886","image-button-response","41","null","629484","685c6ca90f751d3aae6b1794","685c6e1a7ba6934115fb8394","67363452674f3db8059e7888","false","false","Chair","https://kisumu-drawings.s3-us-west-1.amazonaws.com/109-010.png","5","Chair","109-010.png"
"","2200","image-button-response","42","null","632196","685c6ca90f751d3aae6b1794","685c6e1a7ba6934115fb8394","67363452674f3db8059e7888","false","false","Hat","https://kisumu-drawings.s3-us-west-1.amazonaws.com/110-015.png","7","Hat","110-015.png"
"","2020","image-button-response","43","null","634732","685c6ca90f751d3aae6b1794","685c6e1a7ba6934115fb8394","67363452674f3db8059e7888","false","false","Watch","https://kisumu-drawings.s3-us-west-1.amazonaws.com/96-016.png","11","Watch","96-016.png"
"","2843","image-button-response","44","null","638084","685c6ca90f751d3aae6b1794","685c6e1a7ba6934115fb8394","67363452674f3db8059e7888","false","false","Hat","https://kisumu-drawings.s3-us-west-1.amazonaws.com/28-011.png","7","Hat","28-011.png"
"","5540","image-button-response","45","null","644140","685c6ca90f751d3aae6b1794","685c6e1a7ba6934115fb8394","67363452674f3db8059e7888","false","false","Hat","https://kisumu-drawings.s3-us-west-1.amazonaws.com/8-011.png","10","Tree","8-011.png"
"","4906","image-button-response","46","null","649548","685c6ca90f751d3aae6b1794","685c6e1a7ba6934115fb8394","67363452674f3db8059e7888","false","false","Chair","https://kisumu-drawings.s3-us-west-1.amazonaws.com/63-013.png","5","Chair","63-013.png"
"","2970","image-button-response","47","null","653028","685c6ca90f751d3aae6b1794","685c6e1a7ba6934115fb8394","67363452674f3db8059e7888","false","false","Bird","https://kisumu-drawings.s3-us-west-1.amazonaws.com/107-016.png","0","Airplane","107-016.png"
"","2527","image-button-response","48","null","656060","685c6ca90f751d3aae6b1794","685c6e1a7ba6934115fb8394","67363452674f3db8059e7888","false","false","Tree","https://kisumu-drawings.s3-us-west-1.amazonaws.com/70-015.png","10","Tree","70-015.png"
"","10475","image-button-response","49","null","667039","685c6ca90f751d3aae6b1794","685c6e1a7ba6934115fb8394","67363452674f3db8059e7888","false","false","Hat","https://kisumu-drawings.s3-us-west-1.amazonaws.com/53-014.png","7","Hat","53-014.png"
"","5930","image-button-response","50","null","673471","685c6ca90f751d3aae6b1794","685c6e1a7ba6934115fb8394","67363452674f3db8059e7888","false","false","Cup","https://kisumu-drawings.s3-us-west-1.amazonaws.com/69-007.png","6","Cup","69-007.png"
"","12162","image-button-response","51","null","686134","685c6ca90f751d3aae6b1794","685c6e1a7ba6934115fb8394","67363452674f3db8059e7888","false","false","House","https://kisumu-drawings.s3-us-west-1.amazonaws.com/29-011.png","7","Hat","29-011.png"
"","3412","image-button-response","52","null","690054","685c6ca90f751d3aae6b1794","685c6e1a7ba6934115fb8394","67363452674f3db8059e7888","false","false","Rabbit","https://kisumu-drawings.s3-us-west-1.amazonaws.com/9-014.png","7","Hat","9-014.png"
"","2816","image-button-response","53","null","693382","685c6ca90f751d3aae6b1794","685c6e1a7ba6934115fb8394","67363452674f3db8059e7888","false","false","Airplane","https://kisumu-drawings.s3-us-west-1.amazonaws.com/92-006.png","0","Airplane","92-006.png"
"","2952","image-button-response","54","null","696838","685c6ca90f751d3aae6b1794","685c6e1a7ba6934115fb8394","67363452674f3db8059e7888","false","false","Rabbit","https://kisumu-drawings.s3-us-west-1.amazonaws.com/29-013.png","9","Rabbit","29-013.png"
"","4719","image-button-response","55","null","702070","685c6ca90f751d3aae6b1794","685c6e1a7ba6934115fb8394","67363452674f3db8059e7888","false","false","Rabbit","https://kisumu-drawings.s3-us-west-1.amazonaws.com/96-006.png","4","Cat","96-006.png"
"","2878","image-button-response","56","null","705463","685c6ca90f751d3aae6b1794","685c6e1a7ba6934115fb8394","67363452674f3db8059e7888","false","false","House","https://kisumu-drawings.s3-us-west-1.amazonaws.com/70-005.png","8","House","70-005.png"
"","6047","image-button-response","57","null","712022","685c6ca90f751d3aae6b1794","685c6e1a7ba6934115fb8394","67363452674f3db8059e7888","false","false","Bird","https://kisumu-drawings.s3-us-west-1.amazonaws.com/92-012.png","2","Bird","92-012.png"
"","3536","image-button-response","58","null","716071","685c6ca90f751d3aae6b1794","685c6e1a7ba6934115fb8394","67363452674f3db8059e7888","false","false","Rabbit","https://kisumu-drawings.s3-us-west-1.amazonaws.com/53-011.png","9","Rabbit","53-011.png"
"","2369","image-button-response","59","null","718945","685c6ca90f751d3aae6b1794","685c6e1a7ba6934115fb8394","67363452674f3db8059e7888","false","false","Car","https://kisumu-drawings.s3-us-west-1.amazonaws.com/25-007.png","0","Airplane","25-007.png"
"","2831","image-button-response","60","null","722281","685c6ca90f751d3aae6b1794","685c6e1a7ba6934115fb8394","67363452674f3db8059e7888","false","false","Bicycle","https://kisumu-drawings.s3-us-west-1.amazonaws.com/67-015.png","1","Bicycle","67-015.png"
"","2230","image-button-response","61","null","725025","685c6ca90f751d3aae6b1794","685c6e1a7ba6934115fb8394","67363452674f3db8059e7888","false","false","Car","https://kisumu-drawings.s3-us-west-1.amazonaws.com/60-012.png","3","Car","60-012.png"
"","2999","image-button-response","62","null","728537","685c6ca90f751d3aae6b1794","685c6e1a7ba6934115fb8394","67363452674f3db8059e7888","false","false","Airplane","https://kisumu-drawings.s3-us-west-1.amazonaws.com/66-011.png","0","Airplane","66-011.png"
"","2408","image-button-response","63","null","731449","685c6ca90f751d3aae6b1794","685c6e1a7ba6934115fb8394","67363452674f3db8059e7888","false","false","Car","https://kisumu-drawings.s3-us-west-1.amazonaws.com/107-009.png","3","Car","107-009.png"
"","1279","image-button-response","64","null","733233","685c6ca90f751d3aae6b1794","685c6e1a7ba6934115fb8394","67363452674f3db8059e7888","false","false","Bicycle","https://kisumu-drawings.s3-us-west-1.amazonaws.com/25-005.png","3","Car","25-005.png"
"","2594","image-button-response","65","null","736329","685c6ca90f751d3aae6b1794","685c6e1a7ba6934115fb8394","67363452674f3db8059e7888","false","false","Watch","https://kisumu-drawings.s3-us-west-1.amazonaws.com/110-005.png","11","Watch","110-005.png"
"","2719","image-button-response","66","null","739553","685c6ca90f751d3aae6b1794","685c6e1a7ba6934115fb8394","67363452674f3db8059e7888","false","false","Tree","https://kisumu-drawings.s3-us-west-1.amazonaws.com/110-009.png","10","Tree","110-009.png"
"","2254","image-button-response","67","null","742321","685c6ca90f751d3aae6b1794","685c6e1a7ba6934115fb8394","67363452674f3db8059e7888","false","false","Cat","https://kisumu-drawings.s3-us-west-1.amazonaws.com/26-010.png","4","Cat","26-010.png"
"","2106","image-button-response","68","null","744929","685c6ca90f751d3aae6b1794","685c6e1a7ba6934115fb8394","67363452674f3db8059e7888","false","false","Cup","https://kisumu-drawings.s3-us-west-1.amazonaws.com/28-010.png","6","Cup","28-010.png"
"","2708","image-button-response","69","null","748153","685c6ca90f751d3aae6b1794","685c6e1a7ba6934115fb8394","67363452674f3db8059e7888","false","false","Tree","https://kisumu-drawings.s3-us-west-1.amazonaws.com/9-016.png","7","Hat","9-016.png"
"","13760","image-button-response","70","null","762425","685c6ca90f751d3aae6b1794","685c6e1a7ba6934115fb8394","67363452674f3db8059e7888","false","false","Bird","https://kisumu-drawings.s3-us-west-1.amazonaws.com/25-008.png","10","Tree","25-008.png"
"","6658","image-button-response","71","null","769593","685c6ca90f751d3aae6b1794","685c6e1a7ba6934115fb8394","67363452674f3db8059e7888","false","false","Chair","https://kisumu-drawings.s3-us-west-1.amazonaws.com/7-007.png","7","Hat","7-007.png"
"","2817","image-button-response","72","null","772921","685c6ca90f751d3aae6b1794","685c6e1a7ba6934115fb8394","67363452674f3db8059e7888","false","false","Cup","https://kisumu-drawings.s3-us-west-1.amazonaws.com/52-008.png","6","Cup","52-008.png"
"","3700","image-button-response","73","null","777129","685c6ca90f751d3aae6b1794","685c6e1a7ba6934115fb8394","67363452674f3db8059e7888","false","false","Airplane","https://kisumu-drawings.s3-us-west-1.amazonaws.com/4-006.png","0","Airplane","4-006.png"
"","2545","image-button-response","74","null","780180","685c6ca90f751d3aae6b1794","685c6e1a7ba6934115fb8394","67363452674f3db8059e7888","false","false","Chair","https://kisumu-drawings.s3-us-west-1.amazonaws.com/51-009.png","5","Chair","51-009.png"
"","2713","image-button-response","75","null","783396","685c6ca90f751d3aae6b1794","685c6e1a7ba6934115fb8394","67363452674f3db8059e7888","false","false","Watch","https://kisumu-drawings.s3-us-west-1.amazonaws.com/70-016.png","11","Watch","70-016.png"
