"view_history","rt","trial_type","trial_index","plugin_version","time_elapsed","study_id","session_id","participant_id","catch_trial","prep_trial","sketcher_category","stimulus","response","response_category","sketch_id"
"[{""page_index"":0,""viewing_time"":20114},{""page_index"":1,""viewing_time"":2433},{""page_index"":2,""viewing_time"":2333},{""page_index"":3,""viewing_time"":4550}]","29430","instructions","0","null","29443","685c6ca90f751d3aae6b1794","685c6d9979f0161f30215d4c","67411aa0172afbb200bd2c59","","","","","","",""
"","2593","image-button-response","1","null","33043","685c6ca90f751d3aae6b1794","685c6d9979f0161f30215d4c","67411aa0172afbb200bd2c59","false","true","car","stimuli/prep_trials/1_car_prep.png","3","Car",""
"","1229","image-button-response","2","null","34775","685c6ca90f751d3aae6b1794","685c6d9979f0161f30215d4c","67411aa0172afbb200bd2c59","false","true","cat","stimuli/prep_trials/0_cat_prep.jpg","4","Cat",""
"","31698","image-button-response","3","null","66976","685c6ca90f751d3aae6b1794","685c6d9979f0161f30215d4c","67411aa0172afbb200bd2c59","false","false","Watch","https://kisumu-drawings.s3-us-west-1.amazonaws.com/20-014.png","1","Bicycle","20-014.png"
"","13513","image-button-response","4","null","80992","685c6ca90f751d3aae6b1794","685c6d9979f0161f30215d4c","67411aa0172afbb200bd2c59","false","false","Cat","https://kisumu-drawings.s3-us-west-1.amazonaws.com/102-012.png","4","Cat","102-012.png"
"","9147","image-button-response","5","null","90642","685c6ca90f751d3aae6b1794","685c6d9979f0161f30215d4c","67411aa0172afbb200bd2c59","false","false","Bird","https://kisumu-drawings.s3-us-west-1.amazonaws.com/22-011.png","7","Hat","22-011.png"
"","4298","image-button-response","6","null","95443","685c6ca90f751d3aae6b1794","685c6d9979f0161f30215d4c","67411aa0172afbb200bd2c59","false","false","Chair","https://kisumu-drawings.s3-us-west-1.amazonaws.com/102-010.png","5","Chair","102-010.png"
"","4214","image-button-response","7","null","100159","685c6ca90f751d3aae6b1794","685c6d9979f0161f30215d4c","67411aa0172afbb200bd2c59","false","false","House","https://kisumu-drawings.s3-us-west-1.amazonaws.com/20-010.png","2","Bird","20-010.png"
"","7131","image-button-response","8","null","107793","685c6ca90f751d3aae6b1794","685c6d9979f0161f30215d4c","67411aa0172afbb200bd2c59","false","false","Airplane","https://kisumu-drawings.s3-us-west-1.amazonaws.com/62-009.png","0","Airplane","62-009.png"
"","3413","image-button-response","9","null","111710","685c6ca90f751d3aae6b1794","685c6d9979f0161f30215d4c","67411aa0172afbb200bd2c59","false","false","House","https://kisumu-drawings.s3-us-west-1.amazonaws.com/62-014.png","8","House","62-014.png"
"","4696","image-button-response","10","null","116910","685c6ca90f751d3aae6b1794","685c6d9979f0161f30215d4c","67411aa0172afbb200bd2c59","false","false","Bicycle","https://kisumu-drawings.s3-us-west-1.amazonaws.com/22-007.png","1","Bicycle","22-007.png"
"","1997","image-button-response","11","null","119409","685c6ca90f751d3aae6b1794","685c6d9979f0161f30215d4c","67411aa0172afbb200bd2c59","false","false","Tree","https://kisumu-drawings.s3-us-west-1.amazonaws.com/56-006.png","10","Tree","56-006.png"
"","1664","image-button-response","12","null","121576","685c6ca90f751d3aae6b1794","685c6d9979f0161f30215d4c","67411aa0172afbb200bd2c59","false","false","Bicycle","https://kisumu-drawings.s3-us-west-1.amazonaws.com/102-015.png","1","Bicycle","102-015.png"
"","3514","image-button-response","13","null","125592","685c6ca90f751d3aae6b1794","685c6d9979f0161f30215d4c","67411aa0172afbb200bd2c59","false","false","Bird","https://kisumu-drawings.s3-us-west-1.amazonaws.com/62-010.png","2","Bird","62-010.png"
"","2580","image-button-response","14","null","128676","685c6ca90f751d3aae6b1794","685c6d9979f0161f30215d4c","67411aa0172afbb200bd2c59","false","false","Car","https://kisumu-drawings.s3-us-west-1.amazonaws.com/62-007.png","3","Car","62-007.png"
"","6565","image-button-response","15","null","135743","685c6ca90f751d3aae6b1794","685c6d9979f0161f30215d4c","67411aa0172afbb200bd2c59","false","false","House","https://kisumu-drawings.s3-us-west-1.amazonaws.com/56-015.png","6","Cup","56-015.png"
"","2165","image-button-response","16","null","138410","685c6ca90f751d3aae6b1794","685c6d9979f0161f30215d4c","67411aa0172afbb200bd2c59","false","false","Car","https://kisumu-drawings.s3-us-west-1.amazonaws.com/102-011.png","3","Car","102-011.png"
"","2947","image-button-response","17","null","141859","685c6ca90f751d3aae6b1794","685c6d9979f0161f30215d4c","67411aa0172afbb200bd2c59","false","false","Tree","https://kisumu-drawings.s3-us-west-1.amazonaws.com/62-016.png","10","Tree","62-016.png"
"","1448","image-button-response","18","null","143810","685c6ca90f751d3aae6b1794","685c6d9979f0161f30215d4c","67411aa0172afbb200bd2c59","false","false","Watch","https://kisumu-drawings.s3-us-west-1.amazonaws.com/85-012.png","11","Watch","85-012.png"
"","1464","image-button-response","19","null","145776","685c6ca90f751d3aae6b1794","685c6d9979f0161f30215d4c","67411aa0172afbb200bd2c59","false","false","Rabbit","https://kisumu-drawings.s3-us-west-1.amazonaws.com/85-010.png","4","Cat","85-010.png"
"","3131","image-button-response","20","null","149409","685c6ca90f751d3aae6b1794","685c6d9979f0161f30215d4c","67411aa0172afbb200bd2c59","false","false","Cup","https://kisumu-drawings.s3-us-west-1.amazonaws.com/56-011.png","6","Cup","56-011.png"
"","1697","image-button-response","21","null","151610","685c6ca90f751d3aae6b1794","685c6d9979f0161f30215d4c","67411aa0172afbb200bd2c59","false","false","Cat","https://kisumu-drawings.s3-us-west-1.amazonaws.com/62-011.png","4","Cat","62-011.png"
"","1664","image-button-response","22","null","153776","685c6ca90f751d3aae6b1794","685c6d9979f0161f30215d4c","67411aa0172afbb200bd2c59","false","false","Chair","https://kisumu-drawings.s3-us-west-1.amazonaws.com/22-006.png","5","Chair","22-006.png"
"","1598","image-button-response","23","null","155877","685c6ca90f751d3aae6b1794","685c6d9979f0161f30215d4c","67411aa0172afbb200bd2c59","false","false","Tree","https://kisumu-drawings.s3-us-west-1.amazonaws.com/22-014.png","10","Tree","22-014.png"
"","8080","image-button-response","24","null","164460","685c6ca90f751d3aae6b1794","685c6d9979f0161f30215d4c","67411aa0172afbb200bd2c59","false","false","Hat","https://kisumu-drawings.s3-us-west-1.amazonaws.com/56-014.png","7","Hat","56-014.png"
"","3098","image-button-response","25","null","168060","685c6ca90f751d3aae6b1794","685c6d9979f0161f30215d4c","67411aa0172afbb200bd2c59","false","false","Chair","https://kisumu-drawings.s3-us-west-1.amazonaws.com/56-010.png","5","Chair","56-010.png"
"","2748","image-button-response","26","null","171310","685c6ca90f751d3aae6b1794","685c6d9979f0161f30215d4c","67411aa0172afbb200bd2c59","false","false","Chair","https://kisumu-drawings.s3-us-west-1.amazonaws.com/62-013.png","5","Chair","62-013.png"
"","1481","image-button-response","27","null","173293","685c6ca90f751d3aae6b1794","685c6d9979f0161f30215d4c","67411aa0172afbb200bd2c59","false","false","Tree","https://kisumu-drawings.s3-us-west-1.amazonaws.com/85-011.png","10","Tree","85-011.png"
"","2265","image-button-response","28","null","176060","685c6ca90f751d3aae6b1794","685c6d9979f0161f30215d4c","67411aa0172afbb200bd2c59","false","false","House","https://kisumu-drawings.s3-us-west-1.amazonaws.com/85-016.png","8","House","85-016.png"
"","3014","image-button-response","29","null","179577","685c6ca90f751d3aae6b1794","685c6d9979f0161f30215d4c","67411aa0172afbb200bd2c59","false","false","Car","https://kisumu-drawings.s3-us-west-1.amazonaws.com/85-005.png","3","Car","85-005.png"
"","2613","image-button-response","30","null","182693","685c6ca90f751d3aae6b1794","685c6d9979f0161f30215d4c","67411aa0172afbb200bd2c59","false","false","Watch","https://kisumu-drawings.s3-us-west-1.amazonaws.com/62-005.png","11","Watch","62-005.png"
"","6181","image-button-response","31","null","189376","685c6ca90f751d3aae6b1794","685c6d9979f0161f30215d4c","67411aa0172afbb200bd2c59","false","false","House","https://kisumu-drawings.s3-us-west-1.amazonaws.com/22-013.png","8","House","22-013.png"
"","6298","image-button-response","32","null","196177","685c6ca90f751d3aae6b1794","685c6d9979f0161f30215d4c","67411aa0172afbb200bd2c59","false","false","Bicycle","https://kisumu-drawings.s3-us-west-1.amazonaws.com/56-007.png","3","Car","56-007.png"
"","7747","image-button-response","33","null","204427","685c6ca90f751d3aae6b1794","685c6d9979f0161f30215d4c","67411aa0172afbb200bd2c59","false","false","Chair","https://kisumu-drawings.s3-us-west-1.amazonaws.com/20-013.png","5","Chair","20-013.png"
"","14564","image-button-response","34","null","219493","685c6ca90f751d3aae6b1794","685c6d9979f0161f30215d4c","67411aa0172afbb200bd2c59","false","false","Airplane","https://kisumu-drawings.s3-us-west-1.amazonaws.com/56-009.png","2","Bird","56-009.png"
"","4898","image-button-response","35","null","224894","685c6ca90f751d3aae6b1794","685c6d9979f0161f30215d4c","67411aa0172afbb200bd2c59","false","false","Cat","https://kisumu-drawings.s3-us-west-1.amazonaws.com/85-008.png","2","Bird","85-008.png"
"","4680","image-button-response","36","null","230077","685c6ca90f751d3aae6b1794","685c6d9979f0161f30215d4c","67411aa0172afbb200bd2c59","false","false","Cat","https://kisumu-drawings.s3-us-west-1.amazonaws.com/60-013.png","2","Bird","60-013.png"
"","2398","image-button-response","37","null","232976","685c6ca90f751d3aae6b1794","685c6d9979f0161f30215d4c","67411aa0172afbb200bd2c59","false","false","Rabbit","https://kisumu-drawings.s3-us-west-1.amazonaws.com/62-006.png","9","Rabbit","62-006.png"
"","5248","image-button-response","38","null","238727","685c6ca90f751d3aae6b1794","685c6d9979f0161f30215d4c","67411aa0172afbb200bd2c59","false","false","Cat","https://kisumu-drawings.s3-us-west-1.amazonaws.com/20-008.png","11","Watch","20-008.png"
"","3381","image-button-response","39","null","242610","685c6ca90f751d3aae6b1794","685c6d9979f0161f30215d4c","67411aa0172afbb200bd2c59","false","false","Cup","https://kisumu-drawings.s3-us-west-1.amazonaws.com/102-008.png","6","Cup","102-008.png"
"","6031","image-button-response","40","null","249144","685c6ca90f751d3aae6b1794","685c6d9979f0161f30215d4c","67411aa0172afbb200bd2c59","false","false","Hat","https://kisumu-drawings.s3-us-west-1.amazonaws.com/85-015.png","0","Airplane","85-015.png"
"","6581","image-button-response","41","null","256227","685c6ca90f751d3aae6b1794","685c6d9979f0161f30215d4c","67411aa0172afbb200bd2c59","false","false","Car","https://kisumu-drawings.s3-us-west-1.amazonaws.com/56-012.png","3","Car","56-012.png"
"","3814","image-button-response","42","null","260544","685c6ca90f751d3aae6b1794","685c6d9979f0161f30215d4c","67411aa0172afbb200bd2c59","false","false","Cup","https://kisumu-drawings.s3-us-west-1.amazonaws.com/85-014.png","6","Cup","85-014.png"
"","5447","image-button-response","43","null","266493","685c6ca90f751d3aae6b1794","685c6d9979f0161f30215d4c","67411aa0172afbb200bd2c59","false","false","House","https://kisumu-drawings.s3-us-west-1.amazonaws.com/102-006.png","8","House","102-006.png"
"","5531","image-button-response","44","null","272527","685c6ca90f751d3aae6b1794","685c6d9979f0161f30215d4c","67411aa0172afbb200bd2c59","false","false","Rabbit","https://kisumu-drawings.s3-us-west-1.amazonaws.com/102-005.png","2","Bird","102-005.png"
"","2365","image-button-response","45","null","275394","685c6ca90f751d3aae6b1794","685c6d9979f0161f30215d4c","67411aa0172afbb200bd2c59","false","false","Rabbit","https://kisumu-drawings.s3-us-west-1.amazonaws.com/22-016.png","2","Bird","22-016.png"
"","2948","image-button-response","46","null","278844","685c6ca90f751d3aae6b1794","685c6d9979f0161f30215d4c","67411aa0172afbb200bd2c59","false","false","Rabbit","https://kisumu-drawings.s3-us-west-1.amazonaws.com/56-016.png","2","Bird","56-016.png"
"","4848","image-button-response","47","null","284193","685c6ca90f751d3aae6b1794","685c6d9979f0161f30215d4c","67411aa0172afbb200bd2c59","false","false","Airplane","https://kisumu-drawings.s3-us-west-1.amazonaws.com/20-016.png","0","Airplane","20-016.png"
"","2898","image-button-response","48","null","287594","685c6ca90f751d3aae6b1794","685c6d9979f0161f30215d4c","67411aa0172afbb200bd2c59","false","false","Bird","https://kisumu-drawings.s3-us-west-1.amazonaws.com/85-007.png","2","Bird","85-007.png"
"","2630","image-button-response","49","null","290727","685c6ca90f751d3aae6b1794","685c6d9979f0161f30215d4c","67411aa0172afbb200bd2c59","true","false","airplane","stimuli/catch_trials/0_airplane_catch.jpg","0","Airplane",""
"","4065","image-button-response","50","null","295294","685c6ca90f751d3aae6b1794","685c6d9979f0161f30215d4c","67411aa0172afbb200bd2c59","false","false","Bicycle","https://kisumu-drawings.s3-us-west-1.amazonaws.com/62-008.png","3","Car","62-008.png"
"","5380","image-button-response","51","null","301177","685c6ca90f751d3aae6b1794","685c6d9979f0161f30215d4c","67411aa0172afbb200bd2c59","false","false","Car","https://kisumu-drawings.s3-us-west-1.amazonaws.com/20-007.png","2","Bird","20-007.png"
"","6181","image-button-response","52","null","307861","685c6ca90f751d3aae6b1794","685c6d9979f0161f30215d4c","67411aa0172afbb200bd2c59","false","false","Bird","https://kisumu-drawings.s3-us-west-1.amazonaws.com/20-005.png","2","Bird","20-005.png"
"","6263","image-button-response","53","null","314627","685c6ca90f751d3aae6b1794","685c6d9979f0161f30215d4c","67411aa0172afbb200bd2c59","false","false","Hat","https://kisumu-drawings.s3-us-west-1.amazonaws.com/22-008.png","2","Bird","22-008.png"
"","2864","image-button-response","54","null","317994","685c6ca90f751d3aae6b1794","685c6d9979f0161f30215d4c","67411aa0172afbb200bd2c59","false","false","Car","https://kisumu-drawings.s3-us-west-1.amazonaws.com/22-009.png","3","Car","22-009.png"
"","4414","image-button-response","55","null","322911","685c6ca90f751d3aae6b1794","685c6d9979f0161f30215d4c","67411aa0172afbb200bd2c59","false","false","Bird","https://kisumu-drawings.s3-us-west-1.amazonaws.com/102-013.png","2","Bird","102-013.png"
"","3997","image-button-response","56","null","327411","685c6ca90f751d3aae6b1794","685c6d9979f0161f30215d4c","67411aa0172afbb200bd2c59","false","false","Airplane","https://kisumu-drawings.s3-us-west-1.amazonaws.com/102-016.png","0","Airplane","102-016.png"
"","7231","image-button-response","57","null","335144","685c6ca90f751d3aae6b1794","685c6d9979f0161f30215d4c","67411aa0172afbb200bd2c59","false","false","Hat","https://kisumu-drawings.s3-us-west-1.amazonaws.com/102-007.png","0","Airplane","102-007.png"
"","5163","image-button-response","58","null","340811","685c6ca90f751d3aae6b1794","685c6d9979f0161f30215d4c","67411aa0172afbb200bd2c59","false","false","Tree","https://kisumu-drawings.s3-us-west-1.amazonaws.com/20-012.png","2","Bird","20-012.png"
"","4313","image-button-response","59","null","345626","685c6ca90f751d3aae6b1794","685c6d9979f0161f30215d4c","67411aa0172afbb200bd2c59","false","false","Chair","https://kisumu-drawings.s3-us-west-1.amazonaws.com/85-009.png","5","Chair","85-009.png"
"","5364","image-button-response","60","null","351494","685c6ca90f751d3aae6b1794","685c6d9979f0161f30215d4c","67411aa0172afbb200bd2c59","false","false","Hat","https://kisumu-drawings.s3-us-west-1.amazonaws.com/62-015.png","7","Hat","62-015.png"
"","2714","image-button-response","61","null","354711","685c6ca90f751d3aae6b1794","685c6d9979f0161f30215d4c","67411aa0172afbb200bd2c59","false","false","Cup","https://kisumu-drawings.s3-us-west-1.amazonaws.com/62-012.png","6","Cup","62-012.png"
"","4831","image-button-response","62","null","360044","685c6ca90f751d3aae6b1794","685c6d9979f0161f30215d4c","67411aa0172afbb200bd2c59","false","false","Cat","https://kisumu-drawings.s3-us-west-1.amazonaws.com/22-005.png","4","Cat","22-005.png"
"","2514","image-button-response","63","null","363061","685c6ca90f751d3aae6b1794","685c6d9979f0161f30215d4c","67411aa0172afbb200bd2c59","false","false","Airplane","https://kisumu-drawings.s3-us-west-1.amazonaws.com/22-012.png","0","Airplane","22-012.png"
"","4231","image-button-response","64","null","367794","685c6ca90f751d3aae6b1794","685c6d9979f0161f30215d4c","67411aa0172afbb200bd2c59","false","false","Watch","https://kisumu-drawings.s3-us-west-1.amazonaws.com/102-009.png","11","Watch","102-009.png"
"","4230","image-button-response","65","null","372527","685c6ca90f751d3aae6b1794","685c6d9979f0161f30215d4c","67411aa0172afbb200bd2c59","false","false","Rabbit","https://kisumu-drawings.s3-us-west-1.amazonaws.com/20-011.png","2","Bird","20-011.png"
"","3615","image-button-response","66","null","376644","685c6ca90f751d3aae6b1794","685c6d9979f0161f30215d4c","67411aa0172afbb200bd2c59","false","false","Bird","https://kisumu-drawings.s3-us-west-1.amazonaws.com/56-008.png","0","Airplane","56-008.png"
"","6798","image-button-response","67","null","383944","685c6ca90f751d3aae6b1794","685c6d9979f0161f30215d4c","67411aa0172afbb200bd2c59","false","false","Cup","https://kisumu-drawings.s3-us-west-1.amazonaws.com/22-015.png","7","Hat","22-015.png"
"","11464","image-button-response","68","null","395911","685c6ca90f751d3aae6b1794","685c6d9979f0161f30215d4c","67411aa0172afbb200bd2c59","false","false","Cup","https://kisumu-drawings.s3-us-west-1.amazonaws.com/20-009.png","7","Hat","20-009.png"
"","6915","image-button-response","69","null","403328","685c6ca90f751d3aae6b1794","685c6d9979f0161f30215d4c","67411aa0172afbb200bd2c59","false","false","Watch","https://kisumu-drawings.s3-us-west-1.amazonaws.com/22-010.png","2","Bird","22-010.png"
"","4730","image-button-response","70","null","408561","685c6ca90f751d3aae6b1794","685c6d9979f0161f30215d4c","67411aa0172afbb200bd2c59","false","false","Tree","https://kisumu-drawings.s3-us-west-1.amazonaws.com/102-014.png","10","Tree","102-014.png"
"","4898","image-button-response","71","null","413961","685c6ca90f751d3aae6b1794","685c6d9979f0161f30215d4c","67411aa0172afbb200bd2c59","false","false","Bicycle","https://kisumu-drawings.s3-us-west-1.amazonaws.com/85-006.png","3","Car","85-006.png"
"","4898","image-button-response","72","null","419361","685c6ca90f751d3aae6b1794","685c6d9979f0161f30215d4c","67411aa0172afbb200bd2c59","false","false","Bicycle","https://kisumu-drawings.s3-us-west-1.amazonaws.com/20-015.png","0","Airplane","20-015.png"
"","3680","image-button-response","73","null","423544","685c6ca90f751d3aae6b1794","685c6d9979f0161f30215d4c","67411aa0172afbb200bd2c59","false","false","Watch","https://kisumu-drawings.s3-us-west-1.amazonaws.com/56-005.png","11","Watch","56-005.png"
"","6880","image-button-response","74","null","430927","685c6ca90f751d3aae6b1794","685c6d9979f0161f30215d4c","67411aa0172afbb200bd2c59","false","false","Hat","https://kisumu-drawings.s3-us-west-1.amazonaws.com/20-006.png","7","Hat","20-006.png"
"","3199","image-button-response","75","null","434628","685c6ca90f751d3aae6b1794","685c6d9979f0161f30215d4c","67411aa0172afbb200bd2c59","false","false","Airplane","https://kisumu-drawings.s3-us-west-1.amazonaws.com/85-013.png","0","Airplane","85-013.png"
