"view_history","rt","trial_type","trial_index","plugin_version","time_elapsed","study_id","session_id","participant_id","catch_trial","prep_trial","sketcher_category","stimulus","response","response_category","sketch_id"
"[{""page_index"":0,""viewing_time"":21678},{""page_index"":1,""viewing_time"":47505},{""page_index"":2,""viewing_time"":2842},{""page_index"":3,""viewing_time"":12535}]","84561","instructions","0","null","84586","685c6ca90f751d3aae6b1794","685c6e7b41793640fadec1c1","674780197d2f877d208e64bf","","","","","","",""
"","5807","image-button-response","1","null","91416","685c6ca90f751d3aae6b1794","685c6e7b41793640fadec1c1","674780197d2f877d208e64bf","false","true","car","stimuli/prep_trials/1_car_prep.png","3","Car",""
"","4456","image-button-response","2","null","96388","685c6ca90f751d3aae6b1794","685c6e7b41793640fadec1c1","674780197d2f877d208e64bf","false","true","cat","stimuli/prep_trials/0_cat_prep.jpg","4","Cat",""
"","9776","image-button-response","3","null","106677","685c6ca90f751d3aae6b1794","685c6e7b41793640fadec1c1","674780197d2f877d208e64bf","false","false","House","https://kisumu-drawings.s3-us-west-1.amazonaws.com/37-014.png","8","House","37-014.png"
"","23084","image-button-response","4","null","130267","685c6ca90f751d3aae6b1794","685c6e7b41793640fadec1c1","674780197d2f877d208e64bf","false","false","Rabbit","https://kisumu-drawings.s3-us-west-1.amazonaws.com/78-015.png","9","Rabbit","78-015.png"
"","8292","image-button-response","5","null","139063","685c6ca90f751d3aae6b1794","685c6e7b41793640fadec1c1","674780197d2f877d208e64bf","false","false","Cup","https://kisumu-drawings.s3-us-west-1.amazonaws.com/82-016.png","6","Cup","82-016.png"
"","22545","image-button-response","6","null","162120","685c6ca90f751d3aae6b1794","685c6e7b41793640fadec1c1","674780197d2f877d208e64bf","false","false","Airplane","https://kisumu-drawings.s3-us-west-1.amazonaws.com/35-006.png","7","Hat","35-006.png"
"","82020","image-button-response","7","null","244652","685c6ca90f751d3aae6b1794","685c6e7b41793640fadec1c1","674780197d2f877d208e64bf","false","false","Watch","https://kisumu-drawings.s3-us-west-1.amazonaws.com/44-006.png","4","Cat","44-006.png"
"","7014","image-button-response","8","null","252169","685c6ca90f751d3aae6b1794","685c6e7b41793640fadec1c1","674780197d2f877d208e64bf","false","false","Airplane","https://kisumu-drawings.s3-us-west-1.amazonaws.com/43-005.png","10","Tree","43-005.png"
"","65193","image-button-response","9","null","317881","685c6ca90f751d3aae6b1794","685c6e7b41793640fadec1c1","674780197d2f877d208e64bf","false","false","Tree","https://kisumu-drawings.s3-us-west-1.amazonaws.com/16-015.png","10","Tree","16-015.png"
"","11077","image-button-response","10","null","329466","685c6ca90f751d3aae6b1794","685c6e7b41793640fadec1c1","674780197d2f877d208e64bf","false","false","Watch","https://kisumu-drawings.s3-us-west-1.amazonaws.com/37-005.png","10","Tree","37-005.png"
"","5993","image-button-response","11","null","335965","685c6ca90f751d3aae6b1794","685c6e7b41793640fadec1c1","674780197d2f877d208e64bf","true","false","airplane","stimuli/catch_trials/0_airplane_catch.jpg","0","Airplane",""
"","10269","image-button-response","12","null","346738","685c6ca90f751d3aae6b1794","685c6e7b41793640fadec1c1","674780197d2f877d208e64bf","false","false","House","https://kisumu-drawings.s3-us-west-1.amazonaws.com/45-010.png","8","House","45-010.png"
"","8816","image-button-response","13","null","356071","685c6ca90f751d3aae6b1794","685c6e7b41793640fadec1c1","674780197d2f877d208e64bf","false","false","Tree","https://kisumu-drawings.s3-us-west-1.amazonaws.com/37-016.png","10","Tree","37-016.png"
"","8532","image-button-response","14","null","365120","685c6ca90f751d3aae6b1794","685c6e7b41793640fadec1c1","674780197d2f877d208e64bf","false","false","Watch","https://kisumu-drawings.s3-us-west-1.amazonaws.com/82-008.png","11","Watch","82-008.png"
"","9194","image-button-response","15","null","374830","685c6ca90f751d3aae6b1794","685c6e7b41793640fadec1c1","674780197d2f877d208e64bf","false","false","Cup","https://kisumu-drawings.s3-us-west-1.amazonaws.com/45-008.png","6","Cup","45-008.png"
"","9959","image-button-response","16","null","385296","685c6ca90f751d3aae6b1794","685c6e7b41793640fadec1c1","674780197d2f877d208e64bf","false","false","Airplane","https://kisumu-drawings.s3-us-west-1.amazonaws.com/82-005.png","0","Airplane","82-005.png"
"","101996","image-button-response","17","null","487809","685c6ca90f751d3aae6b1794","685c6e7b41793640fadec1c1","674780197d2f877d208e64bf","false","false","Chair","https://kisumu-drawings.s3-us-west-1.amazonaws.com/16-008.png","10","Tree","16-008.png"
"","47036","image-button-response","18","null","535353","685c6ca90f751d3aae6b1794","685c6e7b41793640fadec1c1","674780197d2f877d208e64bf","false","false","Cat","https://kisumu-drawings.s3-us-west-1.amazonaws.com/77-007.png","2","Bird","77-007.png"
"","10970","image-button-response","19","null","546829","685c6ca90f751d3aae6b1794","685c6e7b41793640fadec1c1","674780197d2f877d208e64bf","false","false","House","https://kisumu-drawings.s3-us-west-1.amazonaws.com/16-014.png","5","Chair","16-014.png"
"","5224","image-button-response","20","null","552563","685c6ca90f751d3aae6b1794","685c6e7b41793640fadec1c1","674780197d2f877d208e64bf","false","false","Cup","https://kisumu-drawings.s3-us-west-1.amazonaws.com/16-005.png","5","Chair","16-005.png"
"","11230","image-button-response","21","null","564301","685c6ca90f751d3aae6b1794","685c6e7b41793640fadec1c1","674780197d2f877d208e64bf","false","false","Bicycle","https://kisumu-drawings.s3-us-west-1.amazonaws.com/82-006.png","10","Tree","82-006.png"
"","58346","image-button-response","22","null","623155","685c6ca90f751d3aae6b1794","685c6e7b41793640fadec1c1","674780197d2f877d208e64bf","false","false","Bicycle","https://kisumu-drawings.s3-us-west-1.amazonaws.com/44-007.png","10","Tree","44-007.png"
"","28783","image-button-response","23","null","652457","685c6ca90f751d3aae6b1794","685c6e7b41793640fadec1c1","674780197d2f877d208e64bf","false","false","Car","https://kisumu-drawings.s3-us-west-1.amazonaws.com/15-013.png","5","Chair","15-013.png"
"","6296","image-button-response","24","null","659277","685c6ca90f751d3aae6b1794","685c6e7b41793640fadec1c1","674780197d2f877d208e64bf","false","false","Cup","https://kisumu-drawings.s3-us-west-1.amazonaws.com/77-005.png","6","Cup","77-005.png"
"","9994","image-button-response","25","null","669792","685c6ca90f751d3aae6b1794","685c6e7b41793640fadec1c1","674780197d2f877d208e64bf","false","false","Tree","https://kisumu-drawings.s3-us-west-1.amazonaws.com/77-012.png","10","Tree","77-012.png"
"","35570","image-button-response","26","null","705870","685c6ca90f751d3aae6b1794","685c6e7b41793640fadec1c1","674780197d2f877d208e64bf","false","false","Cat","https://kisumu-drawings.s3-us-west-1.amazonaws.com/82-015.png","9","Rabbit","82-015.png"
"","10036","image-button-response","27","null","716423","685c6ca90f751d3aae6b1794","685c6e7b41793640fadec1c1","674780197d2f877d208e64bf","false","false","Cat","https://kisumu-drawings.s3-us-west-1.amazonaws.com/37-012.png","2","Bird","37-012.png"
"","25215","image-button-response","28","null","742155","685c6ca90f751d3aae6b1794","685c6e7b41793640fadec1c1","674780197d2f877d208e64bf","false","false","Hat","https://kisumu-drawings.s3-us-west-1.amazonaws.com/45-009.png","10","Tree","45-009.png"
"","43808","image-button-response","29","null","786479","685c6ca90f751d3aae6b1794","685c6e7b41793640fadec1c1","674780197d2f877d208e64bf","false","false","Rabbit","https://kisumu-drawings.s3-us-west-1.amazonaws.com/45-011.png","9","Rabbit","45-011.png"
"","10537","image-button-response","30","null","797529","685c6ca90f751d3aae6b1794","685c6e7b41793640fadec1c1","674780197d2f877d208e64bf","false","false","Bird","https://kisumu-drawings.s3-us-west-1.amazonaws.com/82-013.png","2","Bird","82-013.png"
"","7397","image-button-response","31","null","805453","685c6ca90f751d3aae6b1794","685c6e7b41793640fadec1c1","674780197d2f877d208e64bf","false","false","House","https://kisumu-drawings.s3-us-west-1.amazonaws.com/77-016.png","8","House","77-016.png"
"","9455","image-button-response","32","null","815417","685c6ca90f751d3aae6b1794","685c6e7b41793640fadec1c1","674780197d2f877d208e64bf","false","false","Airplane","https://kisumu-drawings.s3-us-west-1.amazonaws.com/115-005.png","0","Airplane","115-005.png"
"","14309","image-button-response","33","null","830235","685c6ca90f751d3aae6b1794","685c6e7b41793640fadec1c1","674780197d2f877d208e64bf","false","false","Bicycle","https://kisumu-drawings.s3-us-west-1.amazonaws.com/15-012.png","0","Airplane","15-012.png"
"","8673","image-button-response","34","null","839415","685c6ca90f751d3aae6b1794","685c6e7b41793640fadec1c1","674780197d2f877d208e64bf","false","false","House","https://kisumu-drawings.s3-us-west-1.amazonaws.com/117-014.png","8","House","117-014.png"
"","14494","image-button-response","35","null","854434","685c6ca90f751d3aae6b1794","685c6e7b41793640fadec1c1","674780197d2f877d208e64bf","false","false","Rabbit","https://kisumu-drawings.s3-us-west-1.amazonaws.com/16-016.png","5","Chair","16-016.png"
"","31391","image-button-response","36","null","886339","685c6ca90f751d3aae6b1794","685c6e7b41793640fadec1c1","674780197d2f877d208e64bf","false","false","Bicycle","https://kisumu-drawings.s3-us-west-1.amazonaws.com/36-015.png","3","Car","36-015.png"
"","17303","image-button-response","37","null","904152","685c6ca90f751d3aae6b1794","685c6e7b41793640fadec1c1","674780197d2f877d208e64bf","false","false","Cup","https://kisumu-drawings.s3-us-west-1.amazonaws.com/117-006.png","6","Cup","117-006.png"
"","65274","image-button-response","38","null","969936","685c6ca90f751d3aae6b1794","685c6e7b41793640fadec1c1","674780197d2f877d208e64bf","false","false","Airplane","https://kisumu-drawings.s3-us-west-1.amazonaws.com/15-011.png","6","Cup","15-011.png"
"","8991","image-button-response","39","null","979433","685c6ca90f751d3aae6b1794","685c6e7b41793640fadec1c1","674780197d2f877d208e64bf","false","false","Tree","https://kisumu-drawings.s3-us-west-1.amazonaws.com/83-013.png","10","Tree","83-013.png"
"","8170","image-button-response","40","null","988107","685c6ca90f751d3aae6b1794","685c6e7b41793640fadec1c1","674780197d2f877d208e64bf","false","false","Car","https://kisumu-drawings.s3-us-west-1.amazonaws.com/37-007.png","3","Car","37-007.png"
"","9926","image-button-response","41","null","998543","685c6ca90f751d3aae6b1794","685c6e7b41793640fadec1c1","674780197d2f877d208e64bf","false","false","Hat","https://kisumu-drawings.s3-us-west-1.amazonaws.com/15-016.png","8","House","15-016.png"
"","16327","image-button-response","42","null","1015375","685c6ca90f751d3aae6b1794","685c6e7b41793640fadec1c1","674780197d2f877d208e64bf","false","false","Airplane","https://kisumu-drawings.s3-us-west-1.amazonaws.com/76-008.png","3","Car","76-008.png"
"","1636","image-button-response","43","null","1017516","685c6ca90f751d3aae6b1794","685c6e7b41793640fadec1c1","674780197d2f877d208e64bf","false","false","Chair","https://kisumu-drawings.s3-us-west-1.amazonaws.com/45-007.png","3","Car","45-007.png"
"","11605","image-button-response","44","null","1029628","685c6ca90f751d3aae6b1794","685c6e7b41793640fadec1c1","674780197d2f877d208e64bf","false","false","Cup","https://kisumu-drawings.s3-us-west-1.amazonaws.com/37-010.png","6","Cup","37-010.png"
"","18389","image-button-response","45","null","1048523","685c6ca90f751d3aae6b1794","685c6e7b41793640fadec1c1","674780197d2f877d208e64bf","false","false","Bicycle","https://kisumu-drawings.s3-us-west-1.amazonaws.com/116-005.png","1","Bicycle","116-005.png"
"","14900","image-button-response","46","null","1063939","685c6ca90f751d3aae6b1794","685c6e7b41793640fadec1c1","674780197d2f877d208e64bf","false","false","Cat","https://kisumu-drawings.s3-us-west-1.amazonaws.com/45-006.png","2","Bird","45-006.png"
"","35394","image-button-response","47","null","1099847","685c6ca90f751d3aae6b1794","685c6e7b41793640fadec1c1","674780197d2f877d208e64bf","false","false","Chair","https://kisumu-drawings.s3-us-west-1.amazonaws.com/37-013.png","8","House","37-013.png"
"","11534","image-button-response","48","null","1111898","685c6ca90f751d3aae6b1794","685c6e7b41793640fadec1c1","674780197d2f877d208e64bf","false","false","Tree","https://kisumu-drawings.s3-us-west-1.amazonaws.com/117-012.png","10","Tree","117-012.png"
"","8121","image-button-response","49","null","1120538","685c6ca90f751d3aae6b1794","685c6e7b41793640fadec1c1","674780197d2f877d208e64bf","false","false","Watch","https://kisumu-drawings.s3-us-west-1.amazonaws.com/16-009.png","5","Chair","16-009.png"
"","14607","image-button-response","50","null","1135656","685c6ca90f751d3aae6b1794","685c6e7b41793640fadec1c1","674780197d2f877d208e64bf","false","false","Cat","https://kisumu-drawings.s3-us-west-1.amazonaws.com/117-009.png","9","Rabbit","117-009.png"
"","5770","image-button-response","51","null","1141944","685c6ca90f751d3aae6b1794","685c6e7b41793640fadec1c1","674780197d2f877d208e64bf","false","false","Cat","https://kisumu-drawings.s3-us-west-1.amazonaws.com/16-007.png","5","Chair","16-007.png"
"","9455","image-button-response","52","null","1151915","685c6ca90f751d3aae6b1794","685c6e7b41793640fadec1c1","674780197d2f877d208e64bf","false","false","Hat","https://kisumu-drawings.s3-us-west-1.amazonaws.com/117-013.png","6","Cup","117-013.png"
"","7611","image-button-response","53","null","1160031","685c6ca90f751d3aae6b1794","685c6e7b41793640fadec1c1","674780197d2f877d208e64bf","false","false","Tree","https://kisumu-drawings.s3-us-west-1.amazonaws.com/45-012.png","10","Tree","45-012.png"
"","8300","image-button-response","54","null","1168837","685c6ca90f751d3aae6b1794","685c6e7b41793640fadec1c1","674780197d2f877d208e64bf","false","false","Chair","https://kisumu-drawings.s3-us-west-1.amazonaws.com/78-007.png","5","Chair","78-007.png"
"","23637","image-button-response","55","null","1192981","685c6ca90f751d3aae6b1794","685c6e7b41793640fadec1c1","674780197d2f877d208e64bf","false","false","Bird","https://kisumu-drawings.s3-us-west-1.amazonaws.com/76-013.png","5","Chair","76-013.png"
"","8526","image-button-response","56","null","1202025","685c6ca90f751d3aae6b1794","685c6e7b41793640fadec1c1","674780197d2f877d208e64bf","false","false","Rabbit","https://kisumu-drawings.s3-us-west-1.amazonaws.com/83-016.png","9","Rabbit","83-016.png"
"","7514","image-button-response","57","null","1210043","685c6ca90f751d3aae6b1794","685c6e7b41793640fadec1c1","674780197d2f877d208e64bf","false","false","Hat","https://kisumu-drawings.s3-us-west-1.amazonaws.com/83-010.png","8","House","83-010.png"
"","12221","image-button-response","58","null","1222773","685c6ca90f751d3aae6b1794","685c6e7b41793640fadec1c1","674780197d2f877d208e64bf","false","false","Bird","https://kisumu-drawings.s3-us-west-1.amazonaws.com/117-011.png","2","Bird","117-011.png"
"","19554","image-button-response","59","null","1242836","685c6ca90f751d3aae6b1794","685c6e7b41793640fadec1c1","674780197d2f877d208e64bf","false","false","Bird","https://kisumu-drawings.s3-us-west-1.amazonaws.com/15-010.png","6","Cup","15-010.png"
"","31607","image-button-response","60","null","1274962","685c6ca90f751d3aae6b1794","685c6e7b41793640fadec1c1","674780197d2f877d208e64bf","false","false","Rabbit","https://kisumu-drawings.s3-us-west-1.amazonaws.com/37-015.png","9","Rabbit","37-015.png"
"","50453","image-button-response","61","null","1325932","685c6ca90f751d3aae6b1794","685c6e7b41793640fadec1c1","674780197d2f877d208e64bf","false","false","Chair","https://kisumu-drawings.s3-us-west-1.amazonaws.com/83-014.png","10","Tree","83-014.png"
"","9589","image-button-response","62","null","1336035","685c6ca90f751d3aae6b1794","685c6e7b41793640fadec1c1","674780197d2f877d208e64bf","false","false","Bird","https://kisumu-drawings.s3-us-west-1.amazonaws.com/44-010.png","0","Airplane","44-010.png"
"","7332","image-button-response","63","null","1343871","685c6ca90f751d3aae6b1794","685c6e7b41793640fadec1c1","674780197d2f877d208e64bf","false","false","House","https://kisumu-drawings.s3-us-west-1.amazonaws.com/84-014.png","8","House","84-014.png"
"","7327","image-button-response","64","null","1351704","685c6ca90f751d3aae6b1794","685c6e7b41793640fadec1c1","674780197d2f877d208e64bf","false","false","Car","https://kisumu-drawings.s3-us-west-1.amazonaws.com/117-008.png","3","Car","117-008.png"
"","40280","image-button-response","65","null","1392489","685c6ca90f751d3aae6b1794","685c6e7b41793640fadec1c1","674780197d2f877d208e64bf","false","false","Watch","https://kisumu-drawings.s3-us-west-1.amazonaws.com/116-007.png","7","Hat","116-007.png"
"","6843","image-button-response","66","null","1399835","685c6ca90f751d3aae6b1794","685c6e7b41793640fadec1c1","674780197d2f877d208e64bf","false","false","Bicycle","https://kisumu-drawings.s3-us-west-1.amazonaws.com/76-012.png","3","Car","76-012.png"
"","7764","image-button-response","67","null","1408103","685c6ca90f751d3aae6b1794","685c6e7b41793640fadec1c1","674780197d2f877d208e64bf","false","false","Chair","https://kisumu-drawings.s3-us-west-1.amazonaws.com/117-010.png","5","Chair","117-010.png"
"","43456","image-button-response","68","null","1452069","685c6ca90f751d3aae6b1794","685c6e7b41793640fadec1c1","674780197d2f877d208e64bf","false","false","Watch","https://kisumu-drawings.s3-us-west-1.amazonaws.com/76-007.png","10","Tree","76-007.png"
"","20093","image-button-response","69","null","1472676","685c6ca90f751d3aae6b1794","685c6e7b41793640fadec1c1","674780197d2f877d208e64bf","false","false","Hat","https://kisumu-drawings.s3-us-west-1.amazonaws.com/77-008.png","2","Bird","77-008.png"
"","13167","image-button-response","70","null","1486353","685c6ca90f751d3aae6b1794","685c6e7b41793640fadec1c1","674780197d2f877d208e64bf","false","false","Car","https://kisumu-drawings.s3-us-west-1.amazonaws.com/83-009.png","3","Car","83-009.png"
"","7079","image-button-response","71","null","1493939","685c6ca90f751d3aae6b1794","685c6e7b41793640fadec1c1","674780197d2f877d208e64bf","false","false","Hat","https://kisumu-drawings.s3-us-west-1.amazonaws.com/37-011.png","2","Bird","37-011.png"
"","7914","image-button-response","72","null","1502364","685c6ca90f751d3aae6b1794","685c6e7b41793640fadec1c1","674780197d2f877d208e64bf","false","false","Bird","https://kisumu-drawings.s3-us-west-1.amazonaws.com/36-016.png","9","Rabbit","36-016.png"
"","10968","image-button-response","73","null","1513849","685c6ca90f751d3aae6b1794","685c6e7b41793640fadec1c1","674780197d2f877d208e64bf","false","false","Car","https://kisumu-drawings.s3-us-west-1.amazonaws.com/45-005.png","3","Car","45-005.png"
"","6083","image-button-response","74","null","1520438","685c6ca90f751d3aae6b1794","685c6e7b41793640fadec1c1","674780197d2f877d208e64bf","false","false","Rabbit","https://kisumu-drawings.s3-us-west-1.amazonaws.com/117-005.png","2","Bird","117-005.png"
"","4371","image-button-response","75","null","1525317","685c6ca90f751d3aae6b1794","685c6e7b41793640fadec1c1","674780197d2f877d208e64bf","false","false","Car","https://kisumu-drawings.s3-us-west-1.amazonaws.com/77-015.png","3","Car","77-015.png"
