"view_history","rt","trial_type","trial_index","plugin_version","time_elapsed","study_id","session_id","participant_id","catch_trial","prep_trial","sketcher_category","stimulus","response","response_category","sketch_id"
"[{""page_index"":0,""viewing_time"":53418},{""page_index"":1,""viewing_time"":8279},{""page_index"":2,""viewing_time"":6664},{""page_index"":3,""viewing_time"":1600}]","69961","instructions","0","null","69984","685c6ca90f751d3aae6b1794","685c6e113bc49b797210846c","675a2ef45fbe0cc52b8403ae","","","","","","",""
"","3106","image-button-response","1","null","74104","685c6ca90f751d3aae6b1794","685c6e113bc49b797210846c","675a2ef45fbe0cc52b8403ae","false","true","car","stimuli/prep_trials/1_car_prep.png","3","Car",""
"","1678","image-button-response","2","null","76287","685c6ca90f751d3aae6b1794","685c6e113bc49b797210846c","675a2ef45fbe0cc52b8403ae","false","true","cat","stimuli/prep_trials/0_cat_prep.jpg","4","Cat",""
"","7869","image-button-response","3","null","84663","685c6ca90f751d3aae6b1794","685c6e113bc49b797210846c","675a2ef45fbe0cc52b8403ae","false","false","Bicycle","https://kisumu-drawings.s3-us-west-1.amazonaws.com/54-009.png","4","Cat","54-009.png"
"","18164","image-button-response","4","null","103335","685c6ca90f751d3aae6b1794","685c6e113bc49b797210846c","675a2ef45fbe0cc52b8403ae","false","false","Car","https://kisumu-drawings.s3-us-west-1.amazonaws.com/112-013.png","3","Car","112-013.png"
"","8162","image-button-response","5","null","112015","685c6ca90f751d3aae6b1794","685c6e113bc49b797210846c","675a2ef45fbe0cc52b8403ae","false","false","Tree","https://kisumu-drawings.s3-us-west-1.amazonaws.com/41-013.png","10","Tree","41-013.png"
"","9723","image-button-response","6","null","122247","685c6ca90f751d3aae6b1794","685c6e113bc49b797210846c","675a2ef45fbe0cc52b8403ae","false","false","Tree","https://kisumu-drawings.s3-us-west-1.amazonaws.com/99-008.png","10","Tree","99-008.png"
"","17484","image-button-response","7","null","140247","685c6ca90f751d3aae6b1794","685c6e113bc49b797210846c","675a2ef45fbe0cc52b8403ae","false","false","Tree","https://kisumu-drawings.s3-us-west-1.amazonaws.com/33-011.png","10","Tree","33-011.png"
"","8134","image-button-response","8","null","148887","685c6ca90f751d3aae6b1794","685c6e113bc49b797210846c","675a2ef45fbe0cc52b8403ae","false","false","House","https://kisumu-drawings.s3-us-west-1.amazonaws.com/99-010.png","8","House","99-010.png"
"","20697","image-button-response","9","null","170094","685c6ca90f751d3aae6b1794","685c6e113bc49b797210846c","675a2ef45fbe0cc52b8403ae","false","false","Bird","https://kisumu-drawings.s3-us-west-1.amazonaws.com/112-011.png","9","Rabbit","112-011.png"
"","18865","image-button-response","10","null","189478","685c6ca90f751d3aae6b1794","685c6e113bc49b797210846c","675a2ef45fbe0cc52b8403ae","false","false","Airplane","https://kisumu-drawings.s3-us-west-1.amazonaws.com/71-012.png","10","Tree","71-012.png"
"","12941","image-button-response","11","null","202926","685c6ca90f751d3aae6b1794","685c6e113bc49b797210846c","675a2ef45fbe0cc52b8403ae","false","false","Airplane","https://kisumu-drawings.s3-us-west-1.amazonaws.com/110-014.png","5","Chair","110-014.png"
"","15068","image-button-response","12","null","218510","685c6ca90f751d3aae6b1794","685c6e113bc49b797210846c","675a2ef45fbe0cc52b8403ae","false","false","Car","https://kisumu-drawings.s3-us-west-1.amazonaws.com/31-008.png","5","Chair","31-008.png"
"","8174","image-button-response","13","null","227189","685c6ca90f751d3aae6b1794","685c6e113bc49b797210846c","675a2ef45fbe0cc52b8403ae","false","false","Bird","https://kisumu-drawings.s3-us-west-1.amazonaws.com/54-010.png","0","Airplane","54-010.png"
"","8294","image-button-response","14","null","235989","685c6ca90f751d3aae6b1794","685c6e113bc49b797210846c","675a2ef45fbe0cc52b8403ae","false","false","Car","https://kisumu-drawings.s3-us-west-1.amazonaws.com/72-013.png","3","Car","72-013.png"
"","16277","image-button-response","15","null","252773","685c6ca90f751d3aae6b1794","685c6e113bc49b797210846c","675a2ef45fbe0cc52b8403ae","false","false","Hat","https://kisumu-drawings.s3-us-west-1.amazonaws.com/32-015.png","7","Hat","32-015.png"
"","8751","image-button-response","16","null","262029","685c6ca90f751d3aae6b1794","685c6e113bc49b797210846c","675a2ef45fbe0cc52b8403ae","false","false","House","https://kisumu-drawings.s3-us-west-1.amazonaws.com/12-014.png","8","House","12-014.png"
"","22330","image-button-response","17","null","284869","685c6ca90f751d3aae6b1794","685c6e113bc49b797210846c","675a2ef45fbe0cc52b8403ae","false","false","Bicycle","https://kisumu-drawings.s3-us-west-1.amazonaws.com/71-013.png","3","Car","71-013.png"
"","15938","image-button-response","18","null","301317","685c6ca90f751d3aae6b1794","685c6e113bc49b797210846c","675a2ef45fbe0cc52b8403ae","false","false","Airplane","https://kisumu-drawings.s3-us-west-1.amazonaws.com/53-009.png","0","Airplane","53-009.png"
"","14523","image-button-response","19","null","316357","685c6ca90f751d3aae6b1794","685c6e113bc49b797210846c","675a2ef45fbe0cc52b8403ae","false","false","Car","https://kisumu-drawings.s3-us-west-1.amazonaws.com/55-011.png","6","Cup","55-011.png"
"","15493","image-button-response","20","null","332356","685c6ca90f751d3aae6b1794","685c6e113bc49b797210846c","675a2ef45fbe0cc52b8403ae","false","false","Cat","https://kisumu-drawings.s3-us-west-1.amazonaws.com/41-011.png","4","Cat","41-011.png"
"","8956","image-button-response","21","null","341821","685c6ca90f751d3aae6b1794","685c6e113bc49b797210846c","675a2ef45fbe0cc52b8403ae","false","false","Watch","https://kisumu-drawings.s3-us-west-1.amazonaws.com/12-006.png","11","Watch","12-006.png"
"","18711","image-button-response","22","null","361036","685c6ca90f751d3aae6b1794","685c6e113bc49b797210846c","675a2ef45fbe0cc52b8403ae","false","false","Chair","https://kisumu-drawings.s3-us-west-1.amazonaws.com/31-010.png","5","Chair","31-010.png"
"","5402","image-button-response","23","null","366948","685c6ca90f751d3aae6b1794","685c6e113bc49b797210846c","675a2ef45fbe0cc52b8403ae","false","false","Watch","https://kisumu-drawings.s3-us-west-1.amazonaws.com/41-014.png","11","Watch","41-014.png"
"","5732","image-button-response","24","null","373196","685c6ca90f751d3aae6b1794","685c6e113bc49b797210846c","675a2ef45fbe0cc52b8403ae","false","false","Bicycle","https://kisumu-drawings.s3-us-west-1.amazonaws.com/97-006.png","1","Bicycle","97-006.png"
"","10050","image-button-response","25","null","383756","685c6ca90f751d3aae6b1794","685c6e113bc49b797210846c","675a2ef45fbe0cc52b8403ae","false","false","Rabbit","https://kisumu-drawings.s3-us-west-1.amazonaws.com/99-011.png","9","Rabbit","99-011.png"
"","8629","image-button-response","26","null","392892","685c6ca90f751d3aae6b1794","685c6e113bc49b797210846c","675a2ef45fbe0cc52b8403ae","false","false","House","https://kisumu-drawings.s3-us-west-1.amazonaws.com/32-006.png","8","House","32-006.png"
"","8085","image-button-response","27","null","401492","685c6ca90f751d3aae6b1794","685c6e113bc49b797210846c","675a2ef45fbe0cc52b8403ae","false","false","Tree","https://kisumu-drawings.s3-us-west-1.amazonaws.com/73-014.png","10","Tree","73-014.png"
"","7608","image-button-response","28","null","409612","685c6ca90f751d3aae6b1794","685c6e113bc49b797210846c","675a2ef45fbe0cc52b8403ae","false","false","Chair","https://kisumu-drawings.s3-us-west-1.amazonaws.com/99-012.png","5","Chair","99-012.png"
"","17508","image-button-response","29","null","427628","685c6ca90f751d3aae6b1794","685c6e113bc49b797210846c","675a2ef45fbe0cc52b8403ae","false","false","Hat","https://kisumu-drawings.s3-us-west-1.amazonaws.com/11-005.png","6","Cup","11-005.png"
"","11171","image-button-response","30","null","439315","685c6ca90f751d3aae6b1794","685c6e113bc49b797210846c","675a2ef45fbe0cc52b8403ae","false","false","Hat","https://kisumu-drawings.s3-us-west-1.amazonaws.com/73-011.png","6","Cup","73-011.png"
"","8636","image-button-response","31","null","448467","685c6ca90f751d3aae6b1794","685c6e113bc49b797210846c","675a2ef45fbe0cc52b8403ae","false","false","Bird","https://kisumu-drawings.s3-us-west-1.amazonaws.com/71-010.png","2","Bird","71-010.png"
"","16527","image-button-response","32","null","465499","685c6ca90f751d3aae6b1794","685c6e113bc49b797210846c","675a2ef45fbe0cc52b8403ae","false","false","Watch","https://kisumu-drawings.s3-us-west-1.amazonaws.com/113-005.png","11","Watch","113-005.png"
"","7424","image-button-response","33","null","473427","685c6ca90f751d3aae6b1794","685c6e113bc49b797210846c","675a2ef45fbe0cc52b8403ae","false","false","Bird","https://kisumu-drawings.s3-us-west-1.amazonaws.com/98-013.png","0","Airplane","98-013.png"
"","15998","image-button-response","34","null","489939","685c6ca90f751d3aae6b1794","685c6e113bc49b797210846c","675a2ef45fbe0cc52b8403ae","false","false","Airplane","https://kisumu-drawings.s3-us-west-1.amazonaws.com/9-009.png","6","Cup","9-009.png"
"","22578","image-button-response","35","null","513035","685c6ca90f751d3aae6b1794","685c6e113bc49b797210846c","675a2ef45fbe0cc52b8403ae","false","false","Rabbit","https://kisumu-drawings.s3-us-west-1.amazonaws.com/113-009.png","2","Bird","113-009.png"
"","8052","image-button-response","36","null","521603","685c6ca90f751d3aae6b1794","685c6e113bc49b797210846c","675a2ef45fbe0cc52b8403ae","false","false","Chair","https://kisumu-drawings.s3-us-west-1.amazonaws.com/12-012.png","5","Chair","12-012.png"
"","10385","image-button-response","37","null","532498","685c6ca90f751d3aae6b1794","685c6e113bc49b797210846c","675a2ef45fbe0cc52b8403ae","false","false","Cup","https://kisumu-drawings.s3-us-west-1.amazonaws.com/73-015.png","6","Cup","73-015.png"
"","17055","image-button-response","38","null","550058","685c6ca90f751d3aae6b1794","685c6e113bc49b797210846c","675a2ef45fbe0cc52b8403ae","false","false","Bicycle","https://kisumu-drawings.s3-us-west-1.amazonaws.com/30-006.png","6","Cup","30-006.png"
"","7750","image-button-response","39","null","558322","685c6ca90f751d3aae6b1794","685c6e113bc49b797210846c","675a2ef45fbe0cc52b8403ae","false","false","Cat","https://kisumu-drawings.s3-us-west-1.amazonaws.com/98-009.png","4","Cat","98-009.png"
"","15009","image-button-response","40","null","573834","685c6ca90f751d3aae6b1794","685c6e113bc49b797210846c","675a2ef45fbe0cc52b8403ae","false","false","Rabbit","https://kisumu-drawings.s3-us-west-1.amazonaws.com/32-005.png","1","Bicycle","32-005.png"
"","5767","image-button-response","41","null","580106","685c6ca90f751d3aae6b1794","685c6e113bc49b797210846c","675a2ef45fbe0cc52b8403ae","false","false","Airplane","https://kisumu-drawings.s3-us-west-1.amazonaws.com/97-013.png","0","Airplane","97-013.png"
"","6733","image-button-response","42","null","587346","685c6ca90f751d3aae6b1794","685c6e113bc49b797210846c","675a2ef45fbe0cc52b8403ae","false","false","Watch","https://kisumu-drawings.s3-us-west-1.amazonaws.com/73-006.png","11","Watch","73-006.png"
"","55884","image-button-response","43","null","643737","685c6ca90f751d3aae6b1794","685c6e113bc49b797210846c","675a2ef45fbe0cc52b8403ae","false","false","Airplane","https://kisumu-drawings.s3-us-west-1.amazonaws.com/29-016.png","10","Tree","29-016.png"
"","11871","image-button-response","44","null","656113","685c6ca90f751d3aae6b1794","685c6e113bc49b797210846c","675a2ef45fbe0cc52b8403ae","false","false","Cat","https://kisumu-drawings.s3-us-west-1.amazonaws.com/113-006.png","9","Rabbit","113-006.png"
"","8915","image-button-response","45","null","665545","685c6ca90f751d3aae6b1794","685c6e113bc49b797210846c","675a2ef45fbe0cc52b8403ae","false","false","Cup","https://kisumu-drawings.s3-us-west-1.amazonaws.com/12-005.png","6","Cup","12-005.png"
"","2863","image-button-response","46","null","668913","685c6ca90f751d3aae6b1794","685c6e113bc49b797210846c","675a2ef45fbe0cc52b8403ae","true","false","airplane","stimuli/catch_trials/0_airplane_catch.jpg","0","Airplane",""
"","8175","image-button-response","47","null","677601","685c6ca90f751d3aae6b1794","685c6e113bc49b797210846c","675a2ef45fbe0cc52b8403ae","false","false","Hat","https://kisumu-drawings.s3-us-west-1.amazonaws.com/113-008.png","7","Hat","113-008.png"
"","8072","image-button-response","48","null","686177","685c6ca90f751d3aae6b1794","685c6e113bc49b797210846c","675a2ef45fbe0cc52b8403ae","false","false","House","https://kisumu-drawings.s3-us-west-1.amazonaws.com/41-015.png","8","House","41-015.png"
"","22261","image-button-response","49","null","708945","685c6ca90f751d3aae6b1794","685c6e113bc49b797210846c","675a2ef45fbe0cc52b8403ae","false","false","Rabbit","https://kisumu-drawings.s3-us-west-1.amazonaws.com/41-012.png","9","Rabbit","41-012.png"
"","9832","image-button-response","50","null","719288","685c6ca90f751d3aae6b1794","685c6e113bc49b797210846c","675a2ef45fbe0cc52b8403ae","false","false","Bicycle","https://kisumu-drawings.s3-us-west-1.amazonaws.com/10-007.png","7","Hat","10-007.png"
"","10201","image-button-response","51","null","730001","685c6ca90f751d3aae6b1794","685c6e113bc49b797210846c","675a2ef45fbe0cc52b8403ae","false","false","House","https://kisumu-drawings.s3-us-west-1.amazonaws.com/73-013.png","8","House","73-013.png"
"","10617","image-button-response","52","null","741136","685c6ca90f751d3aae6b1794","685c6e113bc49b797210846c","675a2ef45fbe0cc52b8403ae","false","false","Cat","https://kisumu-drawings.s3-us-west-1.amazonaws.com/73-009.png","4","Cat","73-009.png"
"","22116","image-button-response","53","null","763760","685c6ca90f751d3aae6b1794","685c6e113bc49b797210846c","675a2ef45fbe0cc52b8403ae","false","false","Rabbit","https://kisumu-drawings.s3-us-west-1.amazonaws.com/12-015.png","5","Chair","12-015.png"
"","12684","image-button-response","54","null","776952","685c6ca90f751d3aae6b1794","685c6e113bc49b797210846c","675a2ef45fbe0cc52b8403ae","false","false","Watch","https://kisumu-drawings.s3-us-west-1.amazonaws.com/33-016.png","7","Hat","33-016.png"
"","6545","image-button-response","55","null","784000","685c6ca90f751d3aae6b1794","685c6e113bc49b797210846c","675a2ef45fbe0cc52b8403ae","false","false","Chair","https://kisumu-drawings.s3-us-west-1.amazonaws.com/41-006.png","5","Chair","41-006.png"
"","13310","image-button-response","56","null","797816","685c6ca90f751d3aae6b1794","685c6e113bc49b797210846c","675a2ef45fbe0cc52b8403ae","false","false","Hat","https://kisumu-drawings.s3-us-west-1.amazonaws.com/41-016.png","0","Airplane","41-016.png"
"","8309","image-button-response","57","null","806632","685c6ca90f751d3aae6b1794","685c6e113bc49b797210846c","675a2ef45fbe0cc52b8403ae","false","false","Cat","https://kisumu-drawings.s3-us-west-1.amazonaws.com/12-011.png","4","Cat","12-011.png"
"","14127","image-button-response","58","null","821271","685c6ca90f751d3aae6b1794","685c6e113bc49b797210846c","675a2ef45fbe0cc52b8403ae","false","false","Chair","https://kisumu-drawings.s3-us-west-1.amazonaws.com/113-012.png","5","Chair","113-012.png"
"","7545","image-button-response","59","null","829319","685c6ca90f751d3aae6b1794","685c6e113bc49b797210846c","675a2ef45fbe0cc52b8403ae","false","false","Hat","https://kisumu-drawings.s3-us-west-1.amazonaws.com/99-007.png","6","Cup","99-007.png"
"","11604","image-button-response","60","null","841431","685c6ca90f751d3aae6b1794","685c6e113bc49b797210846c","675a2ef45fbe0cc52b8403ae","false","false","Rabbit","https://kisumu-drawings.s3-us-west-1.amazonaws.com/73-016.png","9","Rabbit","73-016.png"
"","14827","image-button-response","61","null","856767","685c6ca90f751d3aae6b1794","685c6e113bc49b797210846c","675a2ef45fbe0cc52b8403ae","false","false","Cat","https://kisumu-drawings.s3-us-west-1.amazonaws.com/31-009.png","9","Rabbit","31-009.png"
"","7802","image-button-response","62","null","865087","685c6ca90f751d3aae6b1794","685c6e113bc49b797210846c","675a2ef45fbe0cc52b8403ae","false","false","Bird","https://kisumu-drawings.s3-us-west-1.amazonaws.com/10-014.png","9","Rabbit","10-014.png"
"","9707","image-button-response","63","null","875304","685c6ca90f751d3aae6b1794","685c6e113bc49b797210846c","675a2ef45fbe0cc52b8403ae","false","false","Bicycle","https://kisumu-drawings.s3-us-west-1.amazonaws.com/111-010.png","1","Bicycle","111-010.png"
"","8359","image-button-response","64","null","884175","685c6ca90f751d3aae6b1794","685c6e113bc49b797210846c","675a2ef45fbe0cc52b8403ae","false","false","Car","https://kisumu-drawings.s3-us-west-1.amazonaws.com/99-016.png","3","Car","99-016.png"
"","4648","image-button-response","65","null","889335","685c6ca90f751d3aae6b1794","685c6e113bc49b797210846c","675a2ef45fbe0cc52b8403ae","false","false","Cup","https://kisumu-drawings.s3-us-west-1.amazonaws.com/41-007.png","6","Cup","41-007.png"
"","14680","image-button-response","66","null","904527","685c6ca90f751d3aae6b1794","685c6e113bc49b797210846c","675a2ef45fbe0cc52b8403ae","false","false","Bird","https://kisumu-drawings.s3-us-west-1.amazonaws.com/30-007.png","5","Chair","30-007.png"
"","10324","image-button-response","67","null","915359","685c6ca90f751d3aae6b1794","685c6e113bc49b797210846c","675a2ef45fbe0cc52b8403ae","false","false","Tree","https://kisumu-drawings.s3-us-west-1.amazonaws.com/13-016.png","10","Tree","13-016.png"
"","13672","image-button-response","68","null","929551","685c6ca90f751d3aae6b1794","685c6e113bc49b797210846c","675a2ef45fbe0cc52b8403ae","false","false","Car","https://kisumu-drawings.s3-us-west-1.amazonaws.com/10-006.png","1","Bicycle","10-006.png"
"","6525","image-button-response","69","null","936590","685c6ca90f751d3aae6b1794","685c6e113bc49b797210846c","675a2ef45fbe0cc52b8403ae","false","false","Cup","https://kisumu-drawings.s3-us-west-1.amazonaws.com/32-016.png","6","Cup","32-016.png"
"","7493","image-button-response","70","null","944590","685c6ca90f751d3aae6b1794","685c6e113bc49b797210846c","675a2ef45fbe0cc52b8403ae","false","false","Cup","https://kisumu-drawings.s3-us-west-1.amazonaws.com/113-013.png","6","Cup","113-013.png"
"","22909","image-button-response","71","null","968006","685c6ca90f751d3aae6b1794","685c6e113bc49b797210846c","675a2ef45fbe0cc52b8403ae","false","false","House","https://kisumu-drawings.s3-us-west-1.amazonaws.com/113-007.png","8","House","113-007.png"
"","9995","image-button-response","72","null","978510","685c6ca90f751d3aae6b1794","685c6e113bc49b797210846c","675a2ef45fbe0cc52b8403ae","false","false","Chair","https://kisumu-drawings.s3-us-west-1.amazonaws.com/73-010.png","5","Chair","73-010.png"
"","8713","image-button-response","73","null","987726","685c6ca90f751d3aae6b1794","685c6e113bc49b797210846c","675a2ef45fbe0cc52b8403ae","false","false","Tree","https://kisumu-drawings.s3-us-west-1.amazonaws.com/113-010.png","10","Tree","113-010.png"
"","7895","image-button-response","74","null","996126","685c6ca90f751d3aae6b1794","685c6e113bc49b797210846c","675a2ef45fbe0cc52b8403ae","false","false","Cup","https://kisumu-drawings.s3-us-west-1.amazonaws.com/99-009.png","6","Cup","99-009.png"
"","36428","image-button-response","75","null","1033069","685c6ca90f751d3aae6b1794","685c6e113bc49b797210846c","675a2ef45fbe0cc52b8403ae","false","false","Watch","https://kisumu-drawings.s3-us-west-1.amazonaws.com/99-015.png","5","Chair","99-015.png"
