"view_history","rt","trial_type","trial_index","plugin_version","time_elapsed","study_id","session_id","participant_id","catch_trial","prep_trial","sketcher_category","stimulus","response","response_category","sketch_id"
"[{""page_index"":0,""viewing_time"":10441},{""page_index"":1,""viewing_time"":4254},{""page_index"":2,""viewing_time"":6393},{""page_index"":3,""viewing_time"":6188}]","27277","instructions","0","null","27292","685c6ca90f751d3aae6b1794","685c6e2f07589d53a0f026f4","676f05e174ced6e867ae4b4f","","","","","","",""
"","2968","image-button-response","1","null","31270","685c6ca90f751d3aae6b1794","685c6e2f07589d53a0f026f4","676f05e174ced6e867ae4b4f","false","true","car","stimuli/prep_trials/1_car_prep.png","3","Car",""
"","1387","image-button-response","2","null","33162","685c6ca90f751d3aae6b1794","685c6e2f07589d53a0f026f4","676f05e174ced6e867ae4b4f","false","true","cat","stimuli/prep_trials/0_cat_prep.jpg","4","Cat",""
"","4375","image-button-response","3","null","38042","685c6ca90f751d3aae6b1794","685c6e2f07589d53a0f026f4","676f05e174ced6e867ae4b4f","false","false","Chair","https://kisumu-drawings.s3-us-west-1.amazonaws.com/50-014.png","0","Airplane","50-014.png"
"","2457","image-button-response","4","null","41010","685c6ca90f751d3aae6b1794","685c6e2f07589d53a0f026f4","676f05e174ced6e867ae4b4f","false","false","Tree","https://kisumu-drawings.s3-us-west-1.amazonaws.com/60-009.png","10","Tree","60-009.png"
"","2013","image-button-response","5","null","43533","685c6ca90f751d3aae6b1794","685c6e2f07589d53a0f026f4","676f05e174ced6e867ae4b4f","false","false","Car","https://kisumu-drawings.s3-us-west-1.amazonaws.com/50-015.png","3","Car","50-015.png"
"","1796","image-button-response","6","null","45835","685c6ca90f751d3aae6b1794","685c6e2f07589d53a0f026f4","676f05e174ced6e867ae4b4f","false","false","Car","https://kisumu-drawings.s3-us-west-1.amazonaws.com/68-010.png","3","Car","68-010.png"
"","7360","image-button-response","7","null","53703","685c6ca90f751d3aae6b1794","685c6e2f07589d53a0f026f4","676f05e174ced6e867ae4b4f","false","false","Airplane","https://kisumu-drawings.s3-us-west-1.amazonaws.com/94-011.png","0","Airplane","94-011.png"
"","5986","image-button-response","8","null","60193","685c6ca90f751d3aae6b1794","685c6e2f07589d53a0f026f4","676f05e174ced6e867ae4b4f","false","false","Rabbit","https://kisumu-drawings.s3-us-west-1.amazonaws.com/67-007.png","9","Rabbit","67-007.png"
"","4258","image-button-response","9","null","64956","685c6ca90f751d3aae6b1794","685c6e2f07589d53a0f026f4","676f05e174ced6e867ae4b4f","false","false","Bicycle","https://kisumu-drawings.s3-us-west-1.amazonaws.com/94-012.png","1","Bicycle","94-012.png"
"","11729","image-button-response","10","null","77195","685c6ca90f751d3aae6b1794","685c6e2f07589d53a0f026f4","676f05e174ced6e867ae4b4f","false","false","Tree","https://kisumu-drawings.s3-us-west-1.amazonaws.com/6-014.png","5","Chair","6-014.png"
"","8496","image-button-response","11","null","86205","685c6ca90f751d3aae6b1794","685c6e2f07589d53a0f026f4","676f05e174ced6e867ae4b4f","false","false","Bird","https://kisumu-drawings.s3-us-west-1.amazonaws.com/26-008.png","3","Car","26-008.png"
"","3833","image-button-response","12","null","90544","685c6ca90f751d3aae6b1794","685c6e2f07589d53a0f026f4","676f05e174ced6e867ae4b4f","false","false","Bird","https://kisumu-drawings.s3-us-west-1.amazonaws.com/50-013.png","0","Airplane","50-013.png"
"","2576","image-button-response","13","null","93629","685c6ca90f751d3aae6b1794","685c6e2f07589d53a0f026f4","676f05e174ced6e867ae4b4f","false","false","Watch","https://kisumu-drawings.s3-us-west-1.amazonaws.com/67-006.png","11","Watch","67-006.png"
"","2255","image-button-response","14","null","96393","685c6ca90f751d3aae6b1794","685c6e2f07589d53a0f026f4","676f05e174ced6e867ae4b4f","false","false","Airplane","https://kisumu-drawings.s3-us-west-1.amazonaws.com/50-005.png","0","Airplane","50-005.png"
"","6890","image-button-response","15","null","103785","685c6ca90f751d3aae6b1794","685c6e2f07589d53a0f026f4","676f05e174ced6e867ae4b4f","false","false","Rabbit","https://kisumu-drawings.s3-us-west-1.amazonaws.com/6-008.png","7","Hat","6-008.png"
"","4701","image-button-response","16","null","108996","685c6ca90f751d3aae6b1794","685c6e2f07589d53a0f026f4","676f05e174ced6e867ae4b4f","false","false","Cup","https://kisumu-drawings.s3-us-west-1.amazonaws.com/26-012.png","5","Chair","26-012.png"
"","4228","image-button-response","17","null","113735","685c6ca90f751d3aae6b1794","685c6e2f07589d53a0f026f4","676f05e174ced6e867ae4b4f","false","false","House","https://kisumu-drawings.s3-us-west-1.amazonaws.com/107-006.png","8","House","107-006.png"
"","4942","image-button-response","18","null","119185","685c6ca90f751d3aae6b1794","685c6e2f07589d53a0f026f4","676f05e174ced6e867ae4b4f","false","false","Hat","https://kisumu-drawings.s3-us-west-1.amazonaws.com/60-005.png","7","Hat","60-005.png"
"","7413","image-button-response","19","null","127112","685c6ca90f751d3aae6b1794","685c6e2f07589d53a0f026f4","676f05e174ced6e867ae4b4f","false","false","Chair","https://kisumu-drawings.s3-us-west-1.amazonaws.com/68-012.png","5","Chair","68-012.png"
"","2874","image-button-response","20","null","130495","685c6ca90f751d3aae6b1794","685c6e2f07589d53a0f026f4","676f05e174ced6e867ae4b4f","false","false","Bird","https://kisumu-drawings.s3-us-west-1.amazonaws.com/68-007.png","2","Bird","68-007.png"
"","1230","image-button-response","21","null","132241","685c6ca90f751d3aae6b1794","685c6e2f07589d53a0f026f4","676f05e174ced6e867ae4b4f","true","false","airplane","stimuli/catch_trials/0_airplane_catch.jpg","0","Airplane",""
"","2423","image-button-response","22","null","135177","685c6ca90f751d3aae6b1794","685c6e2f07589d53a0f026f4","676f05e174ced6e867ae4b4f","false","false","Chair","https://kisumu-drawings.s3-us-west-1.amazonaws.com/93-006.png","5","Chair","93-006.png"
"","2876","image-button-response","23","null","138567","685c6ca90f751d3aae6b1794","685c6e2f07589d53a0f026f4","676f05e174ced6e867ae4b4f","false","false","Cat","https://kisumu-drawings.s3-us-west-1.amazonaws.com/107-013.png","4","Cat","107-013.png"
"","1931","image-button-response","24","null","141009","685c6ca90f751d3aae6b1794","685c6e2f07589d53a0f026f4","676f05e174ced6e867ae4b4f","false","false","Airplane","https://kisumu-drawings.s3-us-west-1.amazonaws.com/63-009.png","0","Airplane","63-009.png"
"","5263","image-button-response","25","null","146776","685c6ca90f751d3aae6b1794","685c6e2f07589d53a0f026f4","676f05e174ced6e867ae4b4f","false","false","Bicycle","https://kisumu-drawings.s3-us-west-1.amazonaws.com/26-005.png","3","Car","26-005.png"
"","3332","image-button-response","26","null","150621","685c6ca90f751d3aae6b1794","685c6e2f07589d53a0f026f4","676f05e174ced6e867ae4b4f","false","false","Cat","https://kisumu-drawings.s3-us-west-1.amazonaws.com/25-010.png","2","Bird","25-010.png"
"","2688","image-button-response","27","null","153813","685c6ca90f751d3aae6b1794","685c6e2f07589d53a0f026f4","676f05e174ced6e867ae4b4f","false","false","Chair","https://kisumu-drawings.s3-us-west-1.amazonaws.com/107-014.png","5","Chair","107-014.png"
"","2584","image-button-response","28","null","156901","685c6ca90f751d3aae6b1794","685c6e2f07589d53a0f026f4","676f05e174ced6e867ae4b4f","false","false","Hat","https://kisumu-drawings.s3-us-west-1.amazonaws.com/93-008.png","7","Hat","93-008.png"
"","7074","image-button-response","29","null","164482","685c6ca90f751d3aae6b1794","685c6e2f07589d53a0f026f4","676f05e174ced6e867ae4b4f","false","false","Watch","https://kisumu-drawings.s3-us-west-1.amazonaws.com/5-009.png","1","Bicycle","5-009.png"
"","3151","image-button-response","30","null","168142","685c6ca90f751d3aae6b1794","685c6e2f07589d53a0f026f4","676f05e174ced6e867ae4b4f","false","false","Chair","https://kisumu-drawings.s3-us-west-1.amazonaws.com/26-009.png","5","Chair","26-009.png"
"","3456","image-button-response","31","null","172107","685c6ca90f751d3aae6b1794","685c6e2f07589d53a0f026f4","676f05e174ced6e867ae4b4f","false","false","Tree","https://kisumu-drawings.s3-us-west-1.amazonaws.com/26-016.png","10","Tree","26-016.png"
"","3072","image-button-response","32","null","175685","685c6ca90f751d3aae6b1794","685c6e2f07589d53a0f026f4","676f05e174ced6e867ae4b4f","false","false","Tree","https://kisumu-drawings.s3-us-west-1.amazonaws.com/107-010.png","10","Tree","107-010.png"
"","4884","image-button-response","33","null","181081","685c6ca90f751d3aae6b1794","685c6e2f07589d53a0f026f4","676f05e174ced6e867ae4b4f","false","false","Rabbit","https://kisumu-drawings.s3-us-west-1.amazonaws.com/107-005.png","4","Cat","107-005.png"
"","2232","image-button-response","34","null","183823","685c6ca90f751d3aae6b1794","685c6e2f07589d53a0f026f4","676f05e174ced6e867ae4b4f","false","false","Rabbit","https://kisumu-drawings.s3-us-west-1.amazonaws.com/50-008.png","4","Cat","50-008.png"
"","15248","image-button-response","35","null","199581","685c6ca90f751d3aae6b1794","685c6e2f07589d53a0f026f4","676f05e174ced6e867ae4b4f","false","false","Rabbit","https://kisumu-drawings.s3-us-west-1.amazonaws.com/26-013.png","2","Bird","26-013.png"
"","3972","image-button-response","36","null","204061","685c6ca90f751d3aae6b1794","685c6e2f07589d53a0f026f4","676f05e174ced6e867ae4b4f","false","false","House","https://kisumu-drawings.s3-us-west-1.amazonaws.com/60-006.png","8","House","60-006.png"
"","3280","image-button-response","37","null","207846","685c6ca90f751d3aae6b1794","685c6e2f07589d53a0f026f4","676f05e174ced6e867ae4b4f","false","false","Cup","https://kisumu-drawings.s3-us-west-1.amazonaws.com/68-006.png","6","Cup","68-006.png"
"","6952","image-button-response","38","null","215301","685c6ca90f751d3aae6b1794","685c6e2f07589d53a0f026f4","676f05e174ced6e867ae4b4f","false","false","House","https://kisumu-drawings.s3-us-west-1.amazonaws.com/6-006.png","7","Hat","6-006.png"
"","3209","image-button-response","39","null","219021","685c6ca90f751d3aae6b1794","685c6e2f07589d53a0f026f4","676f05e174ced6e867ae4b4f","false","false","Airplane","https://kisumu-drawings.s3-us-west-1.amazonaws.com/27-005.png","0","Airplane","27-005.png"
"","10347","image-button-response","40","null","229960","685c6ca90f751d3aae6b1794","685c6e2f07589d53a0f026f4","676f05e174ced6e867ae4b4f","false","false","Chair","https://kisumu-drawings.s3-us-west-1.amazonaws.com/6-012.png","6","Cup","6-012.png"
"","3120","image-button-response","41","null","233589","685c6ca90f751d3aae6b1794","685c6e2f07589d53a0f026f4","676f05e174ced6e867ae4b4f","false","false","Cat","https://kisumu-drawings.s3-us-west-1.amazonaws.com/6-011.png","6","Cup","6-011.png"
"","4006","image-button-response","42","null","238108","685c6ca90f751d3aae6b1794","685c6e2f07589d53a0f026f4","676f05e174ced6e867ae4b4f","false","false","Hat","https://kisumu-drawings.s3-us-west-1.amazonaws.com/107-007.png","7","Hat","107-007.png"
"","10384","image-button-response","43","null","249007","685c6ca90f751d3aae6b1794","685c6e2f07589d53a0f026f4","676f05e174ced6e867ae4b4f","false","false","Watch","https://kisumu-drawings.s3-us-west-1.amazonaws.com/50-010.png","10","Tree","50-010.png"
"","2463","image-button-response","44","null","251973","685c6ca90f751d3aae6b1794","685c6e2f07589d53a0f026f4","676f05e174ced6e867ae4b4f","false","false","Rabbit","https://kisumu-drawings.s3-us-west-1.amazonaws.com/92-016.png","4","Cat","92-016.png"
"","1722","image-button-response","45","null","254208","685c6ca90f751d3aae6b1794","685c6e2f07589d53a0f026f4","676f05e174ced6e867ae4b4f","false","false","Hat","https://kisumu-drawings.s3-us-west-1.amazonaws.com/25-011.png","5","Chair","25-011.png"
"","1557","image-button-response","46","null","256271","685c6ca90f751d3aae6b1794","685c6e2f07589d53a0f026f4","676f05e174ced6e867ae4b4f","false","false","Watch","https://kisumu-drawings.s3-us-west-1.amazonaws.com/107-011.png","11","Watch","107-011.png"
"","2880","image-button-response","47","null","259658","685c6ca90f751d3aae6b1794","685c6e2f07589d53a0f026f4","676f05e174ced6e867ae4b4f","false","false","Bicycle","https://kisumu-drawings.s3-us-west-1.amazonaws.com/50-006.png","3","Car","50-006.png"
"","1798","image-button-response","48","null","261964","685c6ca90f751d3aae6b1794","685c6e2f07589d53a0f026f4","676f05e174ced6e867ae4b4f","false","false","Bird","https://kisumu-drawings.s3-us-west-1.amazonaws.com/93-011.png","4","Cat","93-011.png"
"","4485","image-button-response","49","null","266964","685c6ca90f751d3aae6b1794","685c6e2f07589d53a0f026f4","676f05e174ced6e867ae4b4f","false","false","Car","https://kisumu-drawings.s3-us-west-1.amazonaws.com/6-010.png","7","Hat","6-010.png"
"","3378","image-button-response","50","null","270845","685c6ca90f751d3aae6b1794","685c6e2f07589d53a0f026f4","676f05e174ced6e867ae4b4f","false","false","House","https://kisumu-drawings.s3-us-west-1.amazonaws.com/93-010.png","8","House","93-010.png"
"","3403","image-button-response","51","null","274763","685c6ca90f751d3aae6b1794","685c6e2f07589d53a0f026f4","676f05e174ced6e867ae4b4f","false","false","Bird","https://kisumu-drawings.s3-us-west-1.amazonaws.com/107-016.png","0","Airplane","107-016.png"
"","1887","image-button-response","52","null","277154","685c6ca90f751d3aae6b1794","685c6e2f07589d53a0f026f4","676f05e174ced6e867ae4b4f","false","false","Watch","https://kisumu-drawings.s3-us-west-1.amazonaws.com/92-008.png","11","Watch","92-008.png"
"","10138","image-button-response","53","null","287799","685c6ca90f751d3aae6b1794","685c6e2f07589d53a0f026f4","676f05e174ced6e867ae4b4f","false","false","Bicycle","https://kisumu-drawings.s3-us-west-1.amazonaws.com/6-016.png","5","Chair","6-016.png"
"","3825","image-button-response","54","null","292136","685c6ca90f751d3aae6b1794","685c6e2f07589d53a0f026f4","676f05e174ced6e867ae4b4f","false","false","Car","https://kisumu-drawings.s3-us-west-1.amazonaws.com/107-009.png","3","Car","107-009.png"
"","5124","image-button-response","55","null","297772","685c6ca90f751d3aae6b1794","685c6e2f07589d53a0f026f4","676f05e174ced6e867ae4b4f","false","false","Bicycle","https://kisumu-drawings.s3-us-west-1.amazonaws.com/108-016.png","1","Bicycle","108-016.png"
"","2732","image-button-response","56","null","301009","685c6ca90f751d3aae6b1794","685c6e2f07589d53a0f026f4","676f05e174ced6e867ae4b4f","false","false","Car","https://kisumu-drawings.s3-us-west-1.amazonaws.com/93-009.png","3","Car","93-009.png"
"","2338","image-button-response","57","null","303858","685c6ca90f751d3aae6b1794","685c6e2f07589d53a0f026f4","676f05e174ced6e867ae4b4f","false","false","Hat","https://kisumu-drawings.s3-us-west-1.amazonaws.com/68-013.png","7","Hat","68-013.png"
"","2053","image-button-response","58","null","306417","685c6ca90f751d3aae6b1794","685c6e2f07589d53a0f026f4","676f05e174ced6e867ae4b4f","false","false","Cat","https://kisumu-drawings.s3-us-west-1.amazonaws.com/93-007.png","4","Cat","93-007.png"
"","1897","image-button-response","59","null","308821","685c6ca90f751d3aae6b1794","685c6e2f07589d53a0f026f4","676f05e174ced6e867ae4b4f","false","false","Cup","https://kisumu-drawings.s3-us-west-1.amazonaws.com/92-010.png","6","Cup","92-010.png"
"","9826","image-button-response","60","null","319154","685c6ca90f751d3aae6b1794","685c6e2f07589d53a0f026f4","676f05e174ced6e867ae4b4f","false","false","Airplane","https://kisumu-drawings.s3-us-west-1.amazonaws.com/7-009.png","10","Tree","7-009.png"
"","1888","image-button-response","61","null","321550","685c6ca90f751d3aae6b1794","685c6e2f07589d53a0f026f4","676f05e174ced6e867ae4b4f","false","false","Cat","https://kisumu-drawings.s3-us-west-1.amazonaws.com/50-016.png","4","Cat","50-016.png"
"","1895","image-button-response","62","null","323958","685c6ca90f751d3aae6b1794","685c6e2f07589d53a0f026f4","676f05e174ced6e867ae4b4f","false","false","House","https://kisumu-drawings.s3-us-west-1.amazonaws.com/26-014.png","8","House","26-014.png"
"","1870","image-button-response","63","null","326342","685c6ca90f751d3aae6b1794","685c6e2f07589d53a0f026f4","676f05e174ced6e867ae4b4f","false","false","Cup","https://kisumu-drawings.s3-us-west-1.amazonaws.com/5-012.png","6","Cup","5-012.png"
"","2916","image-button-response","64","null","329763","685c6ca90f751d3aae6b1794","685c6e2f07589d53a0f026f4","676f05e174ced6e867ae4b4f","false","false","Airplane","https://kisumu-drawings.s3-us-west-1.amazonaws.com/107-012.png","0","Airplane","107-012.png"
"","1364","image-button-response","65","null","331634","685c6ca90f751d3aae6b1794","685c6e2f07589d53a0f026f4","676f05e174ced6e867ae4b4f","false","false","Cup","https://kisumu-drawings.s3-us-west-1.amazonaws.com/50-011.png","6","Cup","50-011.png"
"","2902","image-button-response","66","null","335042","685c6ca90f751d3aae6b1794","685c6e2f07589d53a0f026f4","676f05e174ced6e867ae4b4f","false","false","House","https://kisumu-drawings.s3-us-west-1.amazonaws.com/67-009.png","8","House","67-009.png"
"","2698","image-button-response","67","null","338247","685c6ca90f751d3aae6b1794","685c6e2f07589d53a0f026f4","676f05e174ced6e867ae4b4f","false","false","Car","https://kisumu-drawings.s3-us-west-1.amazonaws.com/26-007.png","3","Car","26-007.png"
"","1685","image-button-response","68","null","340445","685c6ca90f751d3aae6b1794","685c6e2f07589d53a0f026f4","676f05e174ced6e867ae4b4f","false","false","Cat","https://kisumu-drawings.s3-us-west-1.amazonaws.com/68-011.png","4","Cat","68-011.png"
"","2380","image-button-response","69","null","343333","685c6ca90f751d3aae6b1794","685c6e2f07589d53a0f026f4","676f05e174ced6e867ae4b4f","false","false","Watch","https://kisumu-drawings.s3-us-west-1.amazonaws.com/25-015.png","5","Chair","25-015.png"
"","2152","image-button-response","70","null","345992","685c6ca90f751d3aae6b1794","685c6e2f07589d53a0f026f4","676f05e174ced6e867ae4b4f","false","false","Bicycle","https://kisumu-drawings.s3-us-west-1.amazonaws.com/68-009.png","1","Bicycle","68-009.png"
"","1631","image-button-response","71","null","348136","685c6ca90f751d3aae6b1794","685c6e2f07589d53a0f026f4","676f05e174ced6e867ae4b4f","false","false","Tree","https://kisumu-drawings.s3-us-west-1.amazonaws.com/92-015.png","10","Tree","92-015.png"
"","7035","image-button-response","72","null","355680","685c6ca90f751d3aae6b1794","685c6e2f07589d53a0f026f4","676f05e174ced6e867ae4b4f","false","false","Bird","https://kisumu-drawings.s3-us-west-1.amazonaws.com/6-009.png","11","Watch","6-009.png"
"","2748","image-button-response","73","null","358936","685c6ca90f751d3aae6b1794","685c6e2f07589d53a0f026f4","676f05e174ced6e867ae4b4f","false","false","Hat","https://kisumu-drawings.s3-us-west-1.amazonaws.com/5-007.png","5","Chair","5-007.png"
"","1755","image-button-response","74","null","361203","685c6ca90f751d3aae6b1794","685c6e2f07589d53a0f026f4","676f05e174ced6e867ae4b4f","false","false","Cup","https://kisumu-drawings.s3-us-west-1.amazonaws.com/106-010.png","6","Cup","106-010.png"
"","1942","image-button-response","75","null","363651","685c6ca90f751d3aae6b1794","685c6e2f07589d53a0f026f4","676f05e174ced6e867ae4b4f","false","false","Tree","https://kisumu-drawings.s3-us-west-1.amazonaws.com/67-008.png","10","Tree","67-008.png"
