"view_history","rt","trial_type","trial_index","plugin_version","time_elapsed","study_id","session_id","participant_id","catch_trial","prep_trial","sketcher_category","stimulus","response","response_category","sketch_id"
"[{""page_index"":0,""viewing_time"":6765},{""page_index"":1,""viewing_time"":2972},{""page_index"":2,""viewing_time"":3425},{""page_index"":3,""viewing_time"":5150}]","18311","instructions","0","null","18323","685c6ca90f751d3aae6b1794","685c6ddf55063f2dd310381c","6772f1137e8b2c6b1790e0ae","","","","","","",""
"","2176","image-button-response","1","null","21508","685c6ca90f751d3aae6b1794","685c6ddf55063f2dd310381c","6772f1137e8b2c6b1790e0ae","false","true","car","stimuli/prep_trials/1_car_prep.png","3","Car",""
"","2547","image-button-response","2","null","24558","685c6ca90f751d3aae6b1794","685c6ddf55063f2dd310381c","6772f1137e8b2c6b1790e0ae","false","true","cat","stimuli/prep_trials/0_cat_prep.jpg","4","Cat",""
"","8299","image-button-response","3","null","33379","685c6ca90f751d3aae6b1794","685c6ddf55063f2dd310381c","6772f1137e8b2c6b1790e0ae","false","false","Chair","https://kisumu-drawings.s3-us-west-1.amazonaws.com/56-010.png","5","Chair","56-010.png"
"","12442","image-button-response","4","null","46334","685c6ca90f751d3aae6b1794","685c6ddf55063f2dd310381c","6772f1137e8b2c6b1790e0ae","false","false","Cup","https://kisumu-drawings.s3-us-west-1.amazonaws.com/20-009.png","4","Cat","20-009.png"
"","4009","image-button-response","5","null","50855","685c6ca90f751d3aae6b1794","685c6ddf55063f2dd310381c","6772f1137e8b2c6b1790e0ae","false","false","Cat","https://kisumu-drawings.s3-us-west-1.amazonaws.com/62-011.png","4","Cat","62-011.png"
"","4475","image-button-response","6","null","55836","685c6ca90f751d3aae6b1794","685c6ddf55063f2dd310381c","6772f1137e8b2c6b1790e0ae","false","false","Tree","https://kisumu-drawings.s3-us-west-1.amazonaws.com/62-016.png","10","Tree","62-016.png"
"","2686","image-button-response","7","null","59031","685c6ca90f751d3aae6b1794","685c6ddf55063f2dd310381c","6772f1137e8b2c6b1790e0ae","false","false","House","https://kisumu-drawings.s3-us-west-1.amazonaws.com/102-006.png","8","House","102-006.png"
"","2111","image-button-response","8","null","61644","685c6ca90f751d3aae6b1794","685c6ddf55063f2dd310381c","6772f1137e8b2c6b1790e0ae","false","false","Car","https://kisumu-drawings.s3-us-west-1.amazonaws.com/102-011.png","3","Car","102-011.png"
"","5231","image-button-response","9","null","67389","685c6ca90f751d3aae6b1794","685c6ddf55063f2dd310381c","6772f1137e8b2c6b1790e0ae","false","false","Cat","https://kisumu-drawings.s3-us-west-1.amazonaws.com/22-005.png","4","Cat","22-005.png"
"","8042","image-button-response","10","null","75934","685c6ca90f751d3aae6b1794","685c6ddf55063f2dd310381c","6772f1137e8b2c6b1790e0ae","false","false","Bicycle","https://kisumu-drawings.s3-us-west-1.amazonaws.com/20-015.png","4","Cat","20-015.png"
"","2802","image-button-response","11","null","79252","685c6ca90f751d3aae6b1794","685c6ddf55063f2dd310381c","6772f1137e8b2c6b1790e0ae","false","false","Tree","https://kisumu-drawings.s3-us-west-1.amazonaws.com/102-014.png","10","Tree","102-014.png"
"","2609","image-button-response","12","null","82374","685c6ca90f751d3aae6b1794","685c6ddf55063f2dd310381c","6772f1137e8b2c6b1790e0ae","false","false","Rabbit","https://kisumu-drawings.s3-us-west-1.amazonaws.com/85-010.png","9","Rabbit","85-010.png"
"","13060","image-button-response","13","null","95951","685c6ca90f751d3aae6b1794","685c6ddf55063f2dd310381c","6772f1137e8b2c6b1790e0ae","false","false","Car","https://kisumu-drawings.s3-us-west-1.amazonaws.com/85-005.png","3","Car","85-005.png"
"","3289","image-button-response","14","null","99758","685c6ca90f751d3aae6b1794","685c6ddf55063f2dd310381c","6772f1137e8b2c6b1790e0ae","false","false","Bicycle","https://kisumu-drawings.s3-us-west-1.amazonaws.com/62-008.png","3","Car","62-008.png"
"","12217","image-button-response","15","null","112485","685c6ca90f751d3aae6b1794","685c6ddf55063f2dd310381c","6772f1137e8b2c6b1790e0ae","false","false","Chair","https://kisumu-drawings.s3-us-west-1.amazonaws.com/20-013.png","5","Chair","20-013.png"
"","6618","image-button-response","16","null","119616","685c6ca90f751d3aae6b1794","685c6ddf55063f2dd310381c","6772f1137e8b2c6b1790e0ae","false","false","Cat","https://kisumu-drawings.s3-us-west-1.amazonaws.com/60-013.png","2","Bird","60-013.png"
"","4270","image-button-response","17","null","124391","685c6ca90f751d3aae6b1794","685c6ddf55063f2dd310381c","6772f1137e8b2c6b1790e0ae","false","false","Cat","https://kisumu-drawings.s3-us-west-1.amazonaws.com/102-012.png","4","Cat","102-012.png"
"","4740","image-button-response","18","null","129646","685c6ca90f751d3aae6b1794","685c6ddf55063f2dd310381c","6772f1137e8b2c6b1790e0ae","false","false","Rabbit","https://kisumu-drawings.s3-us-west-1.amazonaws.com/22-016.png","2","Bird","22-016.png"
"","2126","image-button-response","19","null","132274","685c6ca90f751d3aae6b1794","685c6ddf55063f2dd310381c","6772f1137e8b2c6b1790e0ae","false","false","Hat","https://kisumu-drawings.s3-us-west-1.amazonaws.com/22-008.png","2","Bird","22-008.png"
"","2852","image-button-response","20","null","135635","685c6ca90f751d3aae6b1794","685c6ddf55063f2dd310381c","6772f1137e8b2c6b1790e0ae","false","false","Car","https://kisumu-drawings.s3-us-west-1.amazonaws.com/62-007.png","3","Car","62-007.png"
"","2505","image-button-response","21","null","138647","685c6ca90f751d3aae6b1794","685c6ddf55063f2dd310381c","6772f1137e8b2c6b1790e0ae","false","false","Tree","https://kisumu-drawings.s3-us-west-1.amazonaws.com/22-014.png","10","Tree","22-014.png"
"","2348","image-button-response","22","null","141499","685c6ca90f751d3aae6b1794","685c6ddf55063f2dd310381c","6772f1137e8b2c6b1790e0ae","false","false","Cup","https://kisumu-drawings.s3-us-west-1.amazonaws.com/85-014.png","6","Cup","85-014.png"
"","1856","image-button-response","23","null","143871","685c6ca90f751d3aae6b1794","685c6ddf55063f2dd310381c","6772f1137e8b2c6b1790e0ae","false","false","Car","https://kisumu-drawings.s3-us-west-1.amazonaws.com/22-009.png","3","Car","22-009.png"
"","4506","image-button-response","24","null","148889","685c6ca90f751d3aae6b1794","685c6ddf55063f2dd310381c","6772f1137e8b2c6b1790e0ae","false","false","Bicycle","https://kisumu-drawings.s3-us-west-1.amazonaws.com/102-015.png","1","Bicycle","102-015.png"
"","3187","image-button-response","25","null","152579","685c6ca90f751d3aae6b1794","685c6ddf55063f2dd310381c","6772f1137e8b2c6b1790e0ae","false","false","Bicycle","https://kisumu-drawings.s3-us-west-1.amazonaws.com/85-006.png","1","Bicycle","85-006.png"
"","2396","image-button-response","26","null","155491","685c6ca90f751d3aae6b1794","685c6ddf55063f2dd310381c","6772f1137e8b2c6b1790e0ae","false","false","House","https://kisumu-drawings.s3-us-west-1.amazonaws.com/85-016.png","8","House","85-016.png"
"","8198","image-button-response","27","null","164200","685c6ca90f751d3aae6b1794","685c6ddf55063f2dd310381c","6772f1137e8b2c6b1790e0ae","false","false","Cat","https://kisumu-drawings.s3-us-west-1.amazonaws.com/20-008.png","3","Car","20-008.png"
"","3913","image-button-response","28","null","168617","685c6ca90f751d3aae6b1794","685c6ddf55063f2dd310381c","6772f1137e8b2c6b1790e0ae","false","false","Rabbit","https://kisumu-drawings.s3-us-west-1.amazonaws.com/62-006.png","9","Rabbit","62-006.png"
"","2320","image-button-response","29","null","171451","685c6ca90f751d3aae6b1794","685c6ddf55063f2dd310381c","6772f1137e8b2c6b1790e0ae","false","false","Watch","https://kisumu-drawings.s3-us-west-1.amazonaws.com/22-010.png","2","Bird","22-010.png"
"","1737","image-button-response","30","null","173707","685c6ca90f751d3aae6b1794","685c6ddf55063f2dd310381c","6772f1137e8b2c6b1790e0ae","false","false","Cup","https://kisumu-drawings.s3-us-west-1.amazonaws.com/62-012.png","6","Cup","62-012.png"
"","2404","image-button-response","31","null","176623","685c6ca90f751d3aae6b1794","685c6ddf55063f2dd310381c","6772f1137e8b2c6b1790e0ae","false","false","Hat","https://kisumu-drawings.s3-us-west-1.amazonaws.com/102-007.png","7","Hat","102-007.png"
"","4175","image-button-response","32","null","181307","685c6ca90f751d3aae6b1794","685c6ddf55063f2dd310381c","6772f1137e8b2c6b1790e0ae","false","false","Car","https://kisumu-drawings.s3-us-west-1.amazonaws.com/20-007.png","9","Rabbit","20-007.png"
"","2178","image-button-response","33","null","183992","685c6ca90f751d3aae6b1794","685c6ddf55063f2dd310381c","6772f1137e8b2c6b1790e0ae","false","false","Bird","https://kisumu-drawings.s3-us-west-1.amazonaws.com/102-013.png","2","Bird","102-013.png"
"","2340","image-button-response","34","null","186841","685c6ca90f751d3aae6b1794","685c6ddf55063f2dd310381c","6772f1137e8b2c6b1790e0ae","false","false","Airplane","https://kisumu-drawings.s3-us-west-1.amazonaws.com/22-012.png","1","Bicycle","22-012.png"
"","9285","image-button-response","35","null","196635","685c6ca90f751d3aae6b1794","685c6ddf55063f2dd310381c","6772f1137e8b2c6b1790e0ae","false","false","House","https://kisumu-drawings.s3-us-west-1.amazonaws.com/20-010.png","0","Airplane","20-010.png"
"","7054","image-button-response","36","null","204206","685c6ca90f751d3aae6b1794","685c6ddf55063f2dd310381c","6772f1137e8b2c6b1790e0ae","false","false","Airplane","https://kisumu-drawings.s3-us-west-1.amazonaws.com/20-016.png","5","Chair","20-016.png"
"","1577","image-button-response","37","null","206297","685c6ca90f751d3aae6b1794","685c6ddf55063f2dd310381c","6772f1137e8b2c6b1790e0ae","false","false","Chair","https://kisumu-drawings.s3-us-west-1.amazonaws.com/102-010.png","5","Chair","102-010.png"
"","6399","image-button-response","38","null","213213","685c6ca90f751d3aae6b1794","685c6ddf55063f2dd310381c","6772f1137e8b2c6b1790e0ae","false","false","Airplane","https://kisumu-drawings.s3-us-west-1.amazonaws.com/62-009.png","0","Airplane","62-009.png"
"","2804","image-button-response","39","null","216523","685c6ca90f751d3aae6b1794","685c6ddf55063f2dd310381c","6772f1137e8b2c6b1790e0ae","false","false","Watch","https://kisumu-drawings.s3-us-west-1.amazonaws.com/56-005.png","11","Watch","56-005.png"
"","1883","image-button-response","40","null","218915","685c6ca90f751d3aae6b1794","685c6ddf55063f2dd310381c","6772f1137e8b2c6b1790e0ae","false","false","Bird","https://kisumu-drawings.s3-us-west-1.amazonaws.com/85-007.png","2","Bird","85-007.png"
"","1562","image-button-response","41","null","220985","685c6ca90f751d3aae6b1794","685c6ddf55063f2dd310381c","6772f1137e8b2c6b1790e0ae","false","false","Hat","https://kisumu-drawings.s3-us-west-1.amazonaws.com/62-015.png","7","Hat","62-015.png"
"","4117","image-button-response","42","null","225612","685c6ca90f751d3aae6b1794","685c6ddf55063f2dd310381c","6772f1137e8b2c6b1790e0ae","false","false","Cup","https://kisumu-drawings.s3-us-west-1.amazonaws.com/22-015.png","11","Watch","22-015.png"
"","5931","image-button-response","43","null","232057","685c6ca90f751d3aae6b1794","685c6ddf55063f2dd310381c","6772f1137e8b2c6b1790e0ae","false","false","Watch","https://kisumu-drawings.s3-us-west-1.amazonaws.com/20-014.png","0","Airplane","20-014.png"
"","2272","image-button-response","44","null","234835","685c6ca90f751d3aae6b1794","685c6ddf55063f2dd310381c","6772f1137e8b2c6b1790e0ae","false","false","Chair","https://kisumu-drawings.s3-us-west-1.amazonaws.com/62-013.png","5","Chair","62-013.png"
"","1891","image-button-response","45","null","237237","685c6ca90f751d3aae6b1794","685c6ddf55063f2dd310381c","6772f1137e8b2c6b1790e0ae","false","false","Cup","https://kisumu-drawings.s3-us-west-1.amazonaws.com/102-008.png","6","Cup","102-008.png"
"","2412","image-button-response","46","null","240157","685c6ca90f751d3aae6b1794","685c6ddf55063f2dd310381c","6772f1137e8b2c6b1790e0ae","false","false","Tree","https://kisumu-drawings.s3-us-west-1.amazonaws.com/85-011.png","10","Tree","85-011.png"
"","7066","image-button-response","47","null","247739","685c6ca90f751d3aae6b1794","685c6ddf55063f2dd310381c","6772f1137e8b2c6b1790e0ae","false","false","Bird","https://kisumu-drawings.s3-us-west-1.amazonaws.com/62-010.png","2","Bird","62-010.png"
"","1854","image-button-response","48","null","250105","685c6ca90f751d3aae6b1794","685c6ddf55063f2dd310381c","6772f1137e8b2c6b1790e0ae","false","false","Airplane","https://kisumu-drawings.s3-us-west-1.amazonaws.com/85-013.png","0","Airplane","85-013.png"
"","2265","image-button-response","49","null","252875","685c6ca90f751d3aae6b1794","685c6ddf55063f2dd310381c","6772f1137e8b2c6b1790e0ae","false","false","Chair","https://kisumu-drawings.s3-us-west-1.amazonaws.com/22-006.png","5","Chair","22-006.png"
"","3699","image-button-response","50","null","257091","685c6ca90f751d3aae6b1794","685c6ddf55063f2dd310381c","6772f1137e8b2c6b1790e0ae","false","false","Rabbit","https://kisumu-drawings.s3-us-west-1.amazonaws.com/56-016.png","4","Cat","56-016.png"
"","4789","image-button-response","51","null","262387","685c6ca90f751d3aae6b1794","685c6ddf55063f2dd310381c","6772f1137e8b2c6b1790e0ae","false","false","Bird","https://kisumu-drawings.s3-us-west-1.amazonaws.com/20-005.png","1","Bicycle","20-005.png"
"","1402","image-button-response","52","null","264293","685c6ca90f751d3aae6b1794","685c6ddf55063f2dd310381c","6772f1137e8b2c6b1790e0ae","true","false","airplane","stimuli/catch_trials/0_airplane_catch.jpg","0","Airplane",""
"","2628","image-button-response","53","null","267425","685c6ca90f751d3aae6b1794","685c6ddf55063f2dd310381c","6772f1137e8b2c6b1790e0ae","false","false","House","https://kisumu-drawings.s3-us-west-1.amazonaws.com/62-014.png","8","House","62-014.png"
"","1111","image-button-response","54","null","269049","685c6ca90f751d3aae6b1794","685c6ddf55063f2dd310381c","6772f1137e8b2c6b1790e0ae","false","false","House","https://kisumu-drawings.s3-us-west-1.amazonaws.com/22-013.png","8","House","22-013.png"
"","2529","image-button-response","55","null","272081","685c6ca90f751d3aae6b1794","685c6ddf55063f2dd310381c","6772f1137e8b2c6b1790e0ae","false","false","Tree","https://kisumu-drawings.s3-us-west-1.amazonaws.com/20-012.png","10","Tree","20-012.png"
"","1802","image-button-response","56","null","274385","685c6ca90f751d3aae6b1794","685c6ddf55063f2dd310381c","6772f1137e8b2c6b1790e0ae","false","false","Watch","https://kisumu-drawings.s3-us-west-1.amazonaws.com/62-005.png","11","Watch","62-005.png"
"","4484","image-button-response","57","null","279375","685c6ca90f751d3aae6b1794","685c6ddf55063f2dd310381c","6772f1137e8b2c6b1790e0ae","false","false","Cat","https://kisumu-drawings.s3-us-west-1.amazonaws.com/85-008.png","2","Bird","85-008.png"
"","2256","image-button-response","58","null","282139","685c6ca90f751d3aae6b1794","685c6ddf55063f2dd310381c","6772f1137e8b2c6b1790e0ae","false","false","Watch","https://kisumu-drawings.s3-us-west-1.amazonaws.com/102-009.png","11","Watch","102-009.png"
"","2885","image-button-response","59","null","285536","685c6ca90f751d3aae6b1794","685c6ddf55063f2dd310381c","6772f1137e8b2c6b1790e0ae","false","false","Bird","https://kisumu-drawings.s3-us-west-1.amazonaws.com/56-008.png","0","Airplane","56-008.png"
"","1679","image-button-response","60","null","287727","685c6ca90f751d3aae6b1794","685c6ddf55063f2dd310381c","6772f1137e8b2c6b1790e0ae","false","false","Airplane","https://kisumu-drawings.s3-us-west-1.amazonaws.com/102-016.png","0","Airplane","102-016.png"
"","2279","image-button-response","61","null","290515","685c6ca90f751d3aae6b1794","685c6ddf55063f2dd310381c","6772f1137e8b2c6b1790e0ae","false","false","Airplane","https://kisumu-drawings.s3-us-west-1.amazonaws.com/56-009.png","11","Watch","56-009.png"
"","1916","image-button-response","62","null","292947","685c6ca90f751d3aae6b1794","685c6ddf55063f2dd310381c","6772f1137e8b2c6b1790e0ae","false","false","Bicycle","https://kisumu-drawings.s3-us-west-1.amazonaws.com/22-007.png","1","Bicycle","22-007.png"
"","10592","image-button-response","63","null","304043","685c6ca90f751d3aae6b1794","685c6ddf55063f2dd310381c","6772f1137e8b2c6b1790e0ae","false","false","Bicycle","https://kisumu-drawings.s3-us-west-1.amazonaws.com/56-007.png","3","Car","56-007.png"
"","9014","image-button-response","64","null","313563","685c6ca90f751d3aae6b1794","685c6ddf55063f2dd310381c","6772f1137e8b2c6b1790e0ae","false","false","Hat","https://kisumu-drawings.s3-us-west-1.amazonaws.com/56-014.png","10","Tree","56-014.png"
"","3386","image-button-response","65","null","317453","685c6ca90f751d3aae6b1794","685c6ddf55063f2dd310381c","6772f1137e8b2c6b1790e0ae","false","false","Cup","https://kisumu-drawings.s3-us-west-1.amazonaws.com/56-011.png","2","Bird","56-011.png"
"","2207","image-button-response","66","null","320166","685c6ca90f751d3aae6b1794","685c6ddf55063f2dd310381c","6772f1137e8b2c6b1790e0ae","false","false","Chair","https://kisumu-drawings.s3-us-west-1.amazonaws.com/85-009.png","5","Chair","85-009.png"
"","4368","image-button-response","67","null","325041","685c6ca90f751d3aae6b1794","685c6ddf55063f2dd310381c","6772f1137e8b2c6b1790e0ae","false","false","Bird","https://kisumu-drawings.s3-us-west-1.amazonaws.com/22-011.png","0","Airplane","22-011.png"
"","3418","image-button-response","68","null","328969","685c6ca90f751d3aae6b1794","685c6ddf55063f2dd310381c","6772f1137e8b2c6b1790e0ae","false","false","Rabbit","https://kisumu-drawings.s3-us-west-1.amazonaws.com/102-005.png","4","Cat","102-005.png"
"","2912","image-button-response","69","null","332396","685c6ca90f751d3aae6b1794","685c6ddf55063f2dd310381c","6772f1137e8b2c6b1790e0ae","false","false","Watch","https://kisumu-drawings.s3-us-west-1.amazonaws.com/85-012.png","11","Watch","85-012.png"
"","2703","image-button-response","70","null","335626","685c6ca90f751d3aae6b1794","685c6ddf55063f2dd310381c","6772f1137e8b2c6b1790e0ae","false","false","Car","https://kisumu-drawings.s3-us-west-1.amazonaws.com/56-012.png","3","Car","56-012.png"
"","2488","image-button-response","71","null","338630","685c6ca90f751d3aae6b1794","685c6ddf55063f2dd310381c","6772f1137e8b2c6b1790e0ae","false","false","Tree","https://kisumu-drawings.s3-us-west-1.amazonaws.com/56-006.png","10","Tree","56-006.png"
"","5740","image-button-response","72","null","344881","685c6ca90f751d3aae6b1794","685c6ddf55063f2dd310381c","6772f1137e8b2c6b1790e0ae","false","false","Hat","https://kisumu-drawings.s3-us-west-1.amazonaws.com/20-006.png","4","Cat","20-006.png"
"","2241","image-button-response","73","null","347631","685c6ca90f751d3aae6b1794","685c6ddf55063f2dd310381c","6772f1137e8b2c6b1790e0ae","false","false","Hat","https://kisumu-drawings.s3-us-west-1.amazonaws.com/85-015.png","0","Airplane","85-015.png"
"","2855","image-button-response","74","null","351012","685c6ca90f751d3aae6b1794","685c6ddf55063f2dd310381c","6772f1137e8b2c6b1790e0ae","false","false","House","https://kisumu-drawings.s3-us-west-1.amazonaws.com/56-015.png","7","Hat","56-015.png"
"","4379","image-button-response","75","null","355896","685c6ca90f751d3aae6b1794","685c6ddf55063f2dd310381c","6772f1137e8b2c6b1790e0ae","false","false","Rabbit","https://kisumu-drawings.s3-us-west-1.amazonaws.com/20-011.png","1","Bicycle","20-011.png"
