"view_history","rt","trial_type","trial_index","plugin_version","time_elapsed","study_id","session_id","participant_id","catch_trial","prep_trial","sketcher_category","stimulus","response","response_category","sketch_id"
"[{""page_index"":0,""viewing_time"":8944},{""page_index"":1,""viewing_time"":4330},{""page_index"":2,""viewing_time"":5790},{""page_index"":3,""viewing_time"":7962}]","27025","instructions","0","null","27041","685c6ca90f751d3aae6b1794","685c6dcc693eb7b1d759d017","67cb6ffcdfb183f140c5439c","","","","","","",""
"","4204","image-button-response","1","null","32254","685c6ca90f751d3aae6b1794","685c6dcc693eb7b1d759d017","67cb6ffcdfb183f140c5439c","false","true","car","stimuli/prep_trials/1_car_prep.png","3","Car",""
"","2395","image-button-response","2","null","35160","685c6ca90f751d3aae6b1794","685c6dcc693eb7b1d759d017","67cb6ffcdfb183f140c5439c","false","true","cat","stimuli/prep_trials/0_cat_prep.jpg","4","Cat",""
"","30014","image-button-response","3","null","65677","685c6ca90f751d3aae6b1794","685c6dcc693eb7b1d759d017","67cb6ffcdfb183f140c5439c","false","false","Airplane","https://kisumu-drawings.s3-us-west-1.amazonaws.com/23-012.png","8","House","23-012.png"
"","14348","image-button-response","4","null","80531","685c6ca90f751d3aae6b1794","685c6dcc693eb7b1d759d017","67cb6ffcdfb183f140c5439c","false","false","Bicycle","https://kisumu-drawings.s3-us-west-1.amazonaws.com/2-012.png","3","Car","2-012.png"
"","5984","image-button-response","5","null","87033","685c6ca90f751d3aae6b1794","685c6dcc693eb7b1d759d017","67cb6ffcdfb183f140c5439c","false","false","Airplane","https://kisumu-drawings.s3-us-west-1.amazonaws.com/89-014.png","0","Airplane","89-014.png"
"","6647","image-button-response","6","null","94197","685c6ca90f751d3aae6b1794","685c6dcc693eb7b1d759d017","67cb6ffcdfb183f140c5439c","false","false","Airplane","https://kisumu-drawings.s3-us-west-1.amazonaws.com/64-016.png","0","Airplane","64-016.png"
"","14907","image-button-response","7","null","109609","685c6ca90f751d3aae6b1794","685c6dcc693eb7b1d759d017","67cb6ffcdfb183f140c5439c","false","false","Rabbit","https://kisumu-drawings.s3-us-west-1.amazonaws.com/25-013.png","9","Rabbit","25-013.png"
"","23735","image-button-response","8","null","133849","685c6ca90f751d3aae6b1794","685c6dcc693eb7b1d759d017","67cb6ffcdfb183f140c5439c","false","false","Hat","https://kisumu-drawings.s3-us-west-1.amazonaws.com/106-011.png","7","Hat","106-011.png"
"","9621","image-button-response","9","null","143975","685c6ca90f751d3aae6b1794","685c6dcc693eb7b1d759d017","67cb6ffcdfb183f140c5439c","false","false","Cat","https://kisumu-drawings.s3-us-west-1.amazonaws.com/65-015.png","4","Cat","65-015.png"
"","9141","image-button-response","10","null","153625","685c6ca90f751d3aae6b1794","685c6dcc693eb7b1d759d017","67cb6ffcdfb183f140c5439c","false","false","Bicycle","https://kisumu-drawings.s3-us-west-1.amazonaws.com/57-011.png","1","Bicycle","57-011.png"
"","8017","image-button-response","11","null","162151","685c6ca90f751d3aae6b1794","685c6dcc693eb7b1d759d017","67cb6ffcdfb183f140c5439c","false","false","Tree","https://kisumu-drawings.s3-us-west-1.amazonaws.com/93-014.png","10","Tree","93-014.png"
"","23340","image-button-response","12","null","185995","685c6ca90f751d3aae6b1794","685c6dcc693eb7b1d759d017","67cb6ffcdfb183f140c5439c","false","false","Rabbit","https://kisumu-drawings.s3-us-west-1.amazonaws.com/107-005.png","9","Rabbit","107-005.png"
"","19195","image-button-response","13","null","205707","685c6ca90f751d3aae6b1794","685c6dcc693eb7b1d759d017","67cb6ffcdfb183f140c5439c","false","false","Bicycle","https://kisumu-drawings.s3-us-west-1.amazonaws.com/23-016.png","8","House","23-016.png"
"","25845","image-button-response","14","null","232061","685c6ca90f751d3aae6b1794","685c6dcc693eb7b1d759d017","67cb6ffcdfb183f140c5439c","false","false","Cup","https://kisumu-drawings.s3-us-west-1.amazonaws.com/59-015.png","5","Chair","59-015.png"
"","6779","image-button-response","15","null","239343","685c6ca90f751d3aae6b1794","685c6dcc693eb7b1d759d017","67cb6ffcdfb183f140c5439c","false","false","Bird","https://kisumu-drawings.s3-us-west-1.amazonaws.com/89-012.png","0","Airplane","89-012.png"
"","11366","image-button-response","16","null","251211","685c6ca90f751d3aae6b1794","685c6dcc693eb7b1d759d017","67cb6ffcdfb183f140c5439c","false","false","Rabbit","https://kisumu-drawings.s3-us-west-1.amazonaws.com/50-008.png","4","Cat","50-008.png"
"","10301","image-button-response","17","null","262015","685c6ca90f751d3aae6b1794","685c6dcc693eb7b1d759d017","67cb6ffcdfb183f140c5439c","false","false","Cup","https://kisumu-drawings.s3-us-west-1.amazonaws.com/91-015.png","6","Cup","91-015.png"
"","6231","image-button-response","18","null","268748","685c6ca90f751d3aae6b1794","685c6dcc693eb7b1d759d017","67cb6ffcdfb183f140c5439c","false","false","Bird","https://kisumu-drawings.s3-us-west-1.amazonaws.com/57-012.png","2","Bird","57-012.png"
"","8902","image-button-response","19","null","278157","685c6ca90f751d3aae6b1794","685c6dcc693eb7b1d759d017","67cb6ffcdfb183f140c5439c","false","false","Chair","https://kisumu-drawings.s3-us-west-1.amazonaws.com/105-014.png","5","Chair","105-014.png"
"","24196","image-button-response","20","null","302857","685c6ca90f751d3aae6b1794","685c6dcc693eb7b1d759d017","67cb6ffcdfb183f140c5439c","false","false","Bird","https://kisumu-drawings.s3-us-west-1.amazonaws.com/23-010.png","7","Hat","23-010.png"
"","68859","image-button-response","21","null","372233","685c6ca90f751d3aae6b1794","685c6dcc693eb7b1d759d017","67cb6ffcdfb183f140c5439c","false","false","Chair","https://kisumu-drawings.s3-us-west-1.amazonaws.com/59-007.png","5","Chair","59-007.png"
"","8630","image-button-response","22","null","381375","685c6ca90f751d3aae6b1794","685c6dcc693eb7b1d759d017","67cb6ffcdfb183f140c5439c","false","false","Hat","https://kisumu-drawings.s3-us-west-1.amazonaws.com/59-016.png","7","Hat","59-016.png"
"","59566","image-button-response","23","null","441447","685c6ca90f751d3aae6b1794","685c6dcc693eb7b1d759d017","67cb6ffcdfb183f140c5439c","false","false","Watch","https://kisumu-drawings.s3-us-west-1.amazonaws.com/51-014.png","1","Bicycle","51-014.png"
"","11355","image-button-response","24","null","453311","685c6ca90f751d3aae6b1794","685c6dcc693eb7b1d759d017","67cb6ffcdfb183f140c5439c","false","false","House","https://kisumu-drawings.s3-us-west-1.amazonaws.com/67-009.png","8","House","67-009.png"
"","12786","image-button-response","25","null","466601","685c6ca90f751d3aae6b1794","685c6dcc693eb7b1d759d017","67cb6ffcdfb183f140c5439c","true","false","airplane","stimuli/catch_trials/0_airplane_catch.jpg","0","Airplane",""
"","19594","image-button-response","26","null","486697","685c6ca90f751d3aae6b1794","685c6dcc693eb7b1d759d017","67cb6ffcdfb183f140c5439c","false","false","Watch","https://kisumu-drawings.s3-us-west-1.amazonaws.com/108-010.png","11","Watch","108-010.png"
"","14052","image-button-response","27","null","501259","685c6ca90f751d3aae6b1794","685c6dcc693eb7b1d759d017","67cb6ffcdfb183f140c5439c","false","false","Bird","https://kisumu-drawings.s3-us-west-1.amazonaws.com/64-005.png","2","Bird","64-005.png"
"","19061","image-button-response","28","null","520823","685c6ca90f751d3aae6b1794","685c6dcc693eb7b1d759d017","67cb6ffcdfb183f140c5439c","false","false","Bird","https://kisumu-drawings.s3-us-west-1.amazonaws.com/2-014.png","2","Bird","2-014.png"
"","36169","image-button-response","29","null","557495","685c6ca90f751d3aae6b1794","685c6dcc693eb7b1d759d017","67cb6ffcdfb183f140c5439c","false","false","Rabbit","https://kisumu-drawings.s3-us-west-1.amazonaws.com/92-016.png","4","Cat","92-016.png"
"","22989","image-button-response","30","null","580989","685c6ca90f751d3aae6b1794","685c6dcc693eb7b1d759d017","67cb6ffcdfb183f140c5439c","false","false","Tree","https://kisumu-drawings.s3-us-west-1.amazonaws.com/107-010.png","10","Tree","107-010.png"
"","8157","image-button-response","31","null","589652","685c6ca90f751d3aae6b1794","685c6dcc693eb7b1d759d017","67cb6ffcdfb183f140c5439c","false","false","Bicycle","https://kisumu-drawings.s3-us-west-1.amazonaws.com/89-011.png","1","Bicycle","89-011.png"
"","12288","image-button-response","32","null","602443","685c6ca90f751d3aae6b1794","685c6dcc693eb7b1d759d017","67cb6ffcdfb183f140c5439c","false","false","House","https://kisumu-drawings.s3-us-west-1.amazonaws.com/92-013.png","8","House","92-013.png"
"","14787","image-button-response","33","null","617747","685c6ca90f751d3aae6b1794","685c6dcc693eb7b1d759d017","67cb6ffcdfb183f140c5439c","false","false","Chair","https://kisumu-drawings.s3-us-west-1.amazonaws.com/66-014.png","5","Chair","66-014.png"
"","8906","image-button-response","34","null","627167","685c6ca90f751d3aae6b1794","685c6dcc693eb7b1d759d017","67cb6ffcdfb183f140c5439c","false","false","Tree","https://kisumu-drawings.s3-us-west-1.amazonaws.com/26-016.png","10","Tree","26-016.png"
"","20185","image-button-response","35","null","647861","685c6ca90f751d3aae6b1794","685c6dcc693eb7b1d759d017","67cb6ffcdfb183f140c5439c","false","false","Airplane","https://kisumu-drawings.s3-us-west-1.amazonaws.com/57-014.png","0","Airplane","57-014.png"
"","18130","image-button-response","36","null","666493","685c6ca90f751d3aae6b1794","685c6dcc693eb7b1d759d017","67cb6ffcdfb183f140c5439c","false","false","Bicycle","https://kisumu-drawings.s3-us-west-1.amazonaws.com/64-015.png","5","Chair","64-015.png"
"","10210","image-button-response","37","null","677213","685c6ca90f751d3aae6b1794","685c6dcc693eb7b1d759d017","67cb6ffcdfb183f140c5439c","false","false","Hat","https://kisumu-drawings.s3-us-west-1.amazonaws.com/34-007.png","7","Hat","34-007.png"
"","20787","image-button-response","38","null","698503","685c6ca90f751d3aae6b1794","685c6dcc693eb7b1d759d017","67cb6ffcdfb183f140c5439c","false","false","Cat","https://kisumu-drawings.s3-us-west-1.amazonaws.com/3-009.png","4","Cat","3-009.png"
"","21163","image-button-response","39","null","720169","685c6ca90f751d3aae6b1794","685c6dcc693eb7b1d759d017","67cb6ffcdfb183f140c5439c","false","false","Car","https://kisumu-drawings.s3-us-west-1.amazonaws.com/2-016.png","3","Car","2-016.png"
"","6772","image-button-response","40","null","727449","685c6ca90f751d3aae6b1794","685c6dcc693eb7b1d759d017","67cb6ffcdfb183f140c5439c","false","false","Hat","https://kisumu-drawings.s3-us-west-1.amazonaws.com/92-011.png","7","Hat","92-011.png"
"","6427","image-button-response","41","null","734379","685c6ca90f751d3aae6b1794","685c6dcc693eb7b1d759d017","67cb6ffcdfb183f140c5439c","false","false","Cup","https://kisumu-drawings.s3-us-west-1.amazonaws.com/4-011.png","6","Cup","4-011.png"
"","9583","image-button-response","42","null","744464","685c6ca90f751d3aae6b1794","685c6dcc693eb7b1d759d017","67cb6ffcdfb183f140c5439c","false","false","Cat","https://kisumu-drawings.s3-us-west-1.amazonaws.com/57-008.png","4","Cat","57-008.png"
"","21703","image-button-response","43","null","766670","685c6ca90f751d3aae6b1794","685c6dcc693eb7b1d759d017","67cb6ffcdfb183f140c5439c","false","false","Watch","https://kisumu-drawings.s3-us-west-1.amazonaws.com/6-015.png","0","Airplane","6-015.png"
"","5904","image-button-response","44","null","773077","685c6ca90f751d3aae6b1794","685c6dcc693eb7b1d759d017","67cb6ffcdfb183f140c5439c","false","false","Car","https://kisumu-drawings.s3-us-west-1.amazonaws.com/90-012.png","3","Car","90-012.png"
"","14038","image-button-response","45","null","787623","685c6ca90f751d3aae6b1794","685c6dcc693eb7b1d759d017","67cb6ffcdfb183f140c5439c","false","false","Hat","https://kisumu-drawings.s3-us-west-1.amazonaws.com/4-013.png","9","Rabbit","4-013.png"
"","9874","image-button-response","46","null","798007","685c6ca90f751d3aae6b1794","685c6dcc693eb7b1d759d017","67cb6ffcdfb183f140c5439c","false","false","Cup","https://kisumu-drawings.s3-us-west-1.amazonaws.com/105-011.png","6","Cup","105-011.png"
"","23771","image-button-response","47","null","822287","685c6ca90f751d3aae6b1794","685c6dcc693eb7b1d759d017","67cb6ffcdfb183f140c5439c","false","false","Rabbit","https://kisumu-drawings.s3-us-west-1.amazonaws.com/5-005.png","9","Rabbit","5-005.png"
"","18118","image-button-response","48","null","840912","685c6ca90f751d3aae6b1794","685c6dcc693eb7b1d759d017","67cb6ffcdfb183f140c5439c","false","false","Bicycle","https://kisumu-drawings.s3-us-west-1.amazonaws.com/103-014.png","1","Bicycle","103-014.png"
"","9749","image-button-response","49","null","851164","685c6ca90f751d3aae6b1794","685c6dcc693eb7b1d759d017","67cb6ffcdfb183f140c5439c","false","false","Rabbit","https://kisumu-drawings.s3-us-west-1.amazonaws.com/67-007.png","9","Rabbit","67-007.png"
"","17609","image-button-response","50","null","869280","685c6ca90f751d3aae6b1794","685c6dcc693eb7b1d759d017","67cb6ffcdfb183f140c5439c","false","false","Tree","https://kisumu-drawings.s3-us-west-1.amazonaws.com/50-009.png","2","Bird","50-009.png"
"","11922","image-button-response","51","null","881705","685c6ca90f751d3aae6b1794","685c6dcc693eb7b1d759d017","67cb6ffcdfb183f140c5439c","false","false","House","https://kisumu-drawings.s3-us-west-1.amazonaws.com/60-006.png","8","House","60-006.png"
"","24461","image-button-response","52","null","906674","685c6ca90f751d3aae6b1794","685c6dcc693eb7b1d759d017","67cb6ffcdfb183f140c5439c","false","false","Tree","https://kisumu-drawings.s3-us-west-1.amazonaws.com/6-014.png","0","Airplane","6-014.png"
"","8749","image-button-response","53","null","915932","685c6ca90f751d3aae6b1794","685c6dcc693eb7b1d759d017","67cb6ffcdfb183f140c5439c","false","false","Cat","https://kisumu-drawings.s3-us-west-1.amazonaws.com/90-013.png","4","Cat","90-013.png"
"","4998","image-button-response","54","null","921433","685c6ca90f751d3aae6b1794","685c6dcc693eb7b1d759d017","67cb6ffcdfb183f140c5439c","false","false","Cat","https://kisumu-drawings.s3-us-west-1.amazonaws.com/24-007.png","4","Cat","24-007.png"
"","40425","image-button-response","55","null","962369","685c6ca90f751d3aae6b1794","685c6dcc693eb7b1d759d017","67cb6ffcdfb183f140c5439c","false","false","Car","https://kisumu-drawings.s3-us-west-1.amazonaws.com/103-016.png","4","Cat","103-016.png"
"","16724","image-button-response","56","null","979596","685c6ca90f751d3aae6b1794","685c6dcc693eb7b1d759d017","67cb6ffcdfb183f140c5439c","false","false","Watch","https://kisumu-drawings.s3-us-west-1.amazonaws.com/94-006.png","11","Watch","94-006.png"
"","18413","image-button-response","57","null","998516","685c6ca90f751d3aae6b1794","685c6dcc693eb7b1d759d017","67cb6ffcdfb183f140c5439c","false","false","Tree","https://kisumu-drawings.s3-us-west-1.amazonaws.com/68-015.png","10","Tree","68-015.png"
"","187504","image-button-response","58","null","1186525","685c6ca90f751d3aae6b1794","685c6dcc693eb7b1d759d017","67cb6ffcdfb183f140c5439c","false","false","Car","https://kisumu-drawings.s3-us-west-1.amazonaws.com/57-013.png","3","Car","57-013.png"
"","6879","image-button-response","59","null","1193912","685c6ca90f751d3aae6b1794","685c6dcc693eb7b1d759d017","67cb6ffcdfb183f140c5439c","false","false","Watch","https://kisumu-drawings.s3-us-west-1.amazonaws.com/63-005.png","11","Watch","63-005.png"
"","9293","image-button-response","60","null","1203724","685c6ca90f751d3aae6b1794","685c6dcc693eb7b1d759d017","67cb6ffcdfb183f140c5439c","false","false","Cup","https://kisumu-drawings.s3-us-west-1.amazonaws.com/66-015.png","6","Cup","66-015.png"
"","27992","image-button-response","61","null","1232226","685c6ca90f751d3aae6b1794","685c6dcc693eb7b1d759d017","67cb6ffcdfb183f140c5439c","false","false","Chair","https://kisumu-drawings.s3-us-west-1.amazonaws.com/91-008.png","5","Chair","91-008.png"
"","12026","image-button-response","62","null","1244762","685c6ca90f751d3aae6b1794","685c6dcc693eb7b1d759d017","67cb6ffcdfb183f140c5439c","false","false","Airplane","https://kisumu-drawings.s3-us-west-1.amazonaws.com/103-005.png","0","Airplane","103-005.png"
"","16189","image-button-response","63","null","1261454","685c6ca90f751d3aae6b1794","685c6dcc693eb7b1d759d017","67cb6ffcdfb183f140c5439c","false","false","Bird","https://kisumu-drawings.s3-us-west-1.amazonaws.com/103-015.png","2","Bird","103-015.png"
"","52475","image-button-response","64","null","1314448","685c6ca90f751d3aae6b1794","685c6dcc693eb7b1d759d017","67cb6ffcdfb183f140c5439c","false","false","Chair","https://kisumu-drawings.s3-us-west-1.amazonaws.com/34-014.png","8","House","34-014.png"
"","17561","image-button-response","65","null","1332524","685c6ca90f751d3aae6b1794","685c6dcc693eb7b1d759d017","67cb6ffcdfb183f140c5439c","false","false","Car","https://kisumu-drawings.s3-us-west-1.amazonaws.com/23-011.png","3","Car","23-011.png"
"","19079","image-button-response","66","null","1352108","685c6ca90f751d3aae6b1794","685c6dcc693eb7b1d759d017","67cb6ffcdfb183f140c5439c","false","false","Car","https://kisumu-drawings.s3-us-west-1.amazonaws.com/64-014.png","8","House","64-014.png"
"","11589","image-button-response","67","null","1364200","685c6ca90f751d3aae6b1794","685c6dcc693eb7b1d759d017","67cb6ffcdfb183f140c5439c","false","false","Watch","https://kisumu-drawings.s3-us-west-1.amazonaws.com/26-015.png","0","Airplane","26-015.png"
"","6646","image-button-response","68","null","1371348","685c6ca90f751d3aae6b1794","685c6dcc693eb7b1d759d017","67cb6ffcdfb183f140c5439c","false","false","House","https://kisumu-drawings.s3-us-west-1.amazonaws.com/106-013.png","8","House","106-013.png"
"","7646","image-button-response","69","null","1379504","685c6ca90f751d3aae6b1794","685c6dcc693eb7b1d759d017","67cb6ffcdfb183f140c5439c","false","false","Cat","https://kisumu-drawings.s3-us-west-1.amazonaws.com/104-013.png","4","Cat","104-013.png"
"","42543","image-button-response","70","null","1422560","685c6ca90f751d3aae6b1794","685c6dcc693eb7b1d759d017","67cb6ffcdfb183f140c5439c","false","false","Airplane","https://kisumu-drawings.s3-us-west-1.amazonaws.com/2-013.png","3","Car","2-013.png"
"","9352","image-button-response","71","null","1432418","685c6ca90f751d3aae6b1794","685c6dcc693eb7b1d759d017","67cb6ffcdfb183f140c5439c","false","false","Hat","https://kisumu-drawings.s3-us-west-1.amazonaws.com/66-016.png","7","Hat","66-016.png"
"","6397","image-button-response","72","null","1439324","685c6ca90f751d3aae6b1794","685c6dcc693eb7b1d759d017","67cb6ffcdfb183f140c5439c","false","false","House","https://kisumu-drawings.s3-us-west-1.amazonaws.com/5-013.png","4","Cat","5-013.png"
"","12083","image-button-response","73","null","1451924","685c6ca90f751d3aae6b1794","685c6dcc693eb7b1d759d017","67cb6ffcdfb183f140c5439c","false","false","Chair","https://kisumu-drawings.s3-us-west-1.amazonaws.com/3-010.png","2","Bird","3-010.png"
"","4276","image-button-response","74","null","1456704","685c6ca90f751d3aae6b1794","685c6dcc693eb7b1d759d017","67cb6ffcdfb183f140c5439c","false","false","House","https://kisumu-drawings.s3-us-west-1.amazonaws.com/25-014.png","8","House","25-014.png"
"","3386","image-button-response","75","null","1460594","685c6ca90f751d3aae6b1794","685c6dcc693eb7b1d759d017","67cb6ffcdfb183f140c5439c","false","false","Cup","https://kisumu-drawings.s3-us-west-1.amazonaws.com/34-005.png","6","Cup","34-005.png"
