"view_history","rt","trial_type","trial_index","plugin_version","time_elapsed","study_id","session_id","participant_id","catch_trial","prep_trial","sketcher_category","stimulus","response","response_category","sketch_id"
"[{""page_index"":0,""viewing_time"":78625},{""page_index"":1,""viewing_time"":6931},{""page_index"":2,""viewing_time"":18050},{""page_index"":3,""viewing_time"":16908}]","120514","instructions","0","null","120539","685c6ca90f751d3aae6b1794","685c7357b4f6251b15b678dc","67d5a19b8b98d688b46bb348","","","","","","",""
"","4404","image-button-response","1","null","125953","685c6ca90f751d3aae6b1794","685c7357b4f6251b15b678dc","67d5a19b8b98d688b46bb348","false","true","car","stimuli/prep_trials/1_car_prep.png","3","Car",""
"","3998","image-button-response","2","null","130462","685c6ca90f751d3aae6b1794","685c7357b4f6251b15b678dc","67d5a19b8b98d688b46bb348","false","true","cat","stimuli/prep_trials/0_cat_prep.jpg","4","Cat",""
"","7783","image-button-response","3","null","138757","685c6ca90f751d3aae6b1794","685c7357b4f6251b15b678dc","67d5a19b8b98d688b46bb348","false","false","Chair","https://kisumu-drawings.s3-us-west-1.amazonaws.com/61-015.png","5","Chair","61-015.png"
"","6788","image-button-response","4","null","146062","685c6ca90f751d3aae6b1794","685c7357b4f6251b15b678dc","67d5a19b8b98d688b46bb348","false","false","Bird","https://kisumu-drawings.s3-us-west-1.amazonaws.com/67-016.png","2","Bird","67-016.png"
"","6322","image-button-response","5","null","152896","685c6ca90f751d3aae6b1794","685c7357b4f6251b15b678dc","67d5a19b8b98d688b46bb348","false","false","Tree","https://kisumu-drawings.s3-us-west-1.amazonaws.com/88-009.png","10","Tree","88-009.png"
"","8165","image-button-response","6","null","161580","685c6ca90f751d3aae6b1794","685c7357b4f6251b15b678dc","67d5a19b8b98d688b46bb348","false","false","Chair","https://kisumu-drawings.s3-us-west-1.amazonaws.com/31-010.png","5","Chair","31-010.png"
"","12181","image-button-response","7","null","174266","685c6ca90f751d3aae6b1794","685c7357b4f6251b15b678dc","67d5a19b8b98d688b46bb348","false","false","Rabbit","https://kisumu-drawings.s3-us-west-1.amazonaws.com/101-006.png","4","Cat","101-006.png"
"","13578","image-button-response","8","null","188362","685c6ca90f751d3aae6b1794","685c7357b4f6251b15b678dc","67d5a19b8b98d688b46bb348","false","false","Rabbit","https://kisumu-drawings.s3-us-west-1.amazonaws.com/25-013.png","9","Rabbit","25-013.png"
"","6050","image-button-response","9","null","194932","685c6ca90f751d3aae6b1794","685c7357b4f6251b15b678dc","67d5a19b8b98d688b46bb348","false","false","Car","https://kisumu-drawings.s3-us-west-1.amazonaws.com/67-005.png","3","Car","67-005.png"
"","11376","image-button-response","10","null","206814","685c6ca90f751d3aae6b1794","685c7357b4f6251b15b678dc","67d5a19b8b98d688b46bb348","false","false","Cat","https://kisumu-drawings.s3-us-west-1.amazonaws.com/91-007.png","4","Cat","91-007.png"
"","16899","image-button-response","11","null","224232","685c6ca90f751d3aae6b1794","685c7357b4f6251b15b678dc","67d5a19b8b98d688b46bb348","false","false","Car","https://kisumu-drawings.s3-us-west-1.amazonaws.com/16-006.png","6","Cup","16-006.png"
"","7278","image-button-response","12","null","232039","685c6ca90f751d3aae6b1794","685c7357b4f6251b15b678dc","67d5a19b8b98d688b46bb348","false","false","House","https://kisumu-drawings.s3-us-west-1.amazonaws.com/116-015.png","8","House","116-015.png"
"","5986","image-button-response","13","null","238541","685c6ca90f751d3aae6b1794","685c7357b4f6251b15b678dc","67d5a19b8b98d688b46bb348","false","false","Cat","https://kisumu-drawings.s3-us-west-1.amazonaws.com/108-015.png","4","Cat","108-015.png"
"","6166","image-button-response","14","null","245219","685c6ca90f751d3aae6b1794","685c7357b4f6251b15b678dc","67d5a19b8b98d688b46bb348","false","false","Tree","https://kisumu-drawings.s3-us-west-1.amazonaws.com/58-006.png","10","Tree","58-006.png"
"","15735","image-button-response","15","null","261459","685c6ca90f751d3aae6b1794","685c7357b4f6251b15b678dc","67d5a19b8b98d688b46bb348","false","false","Cup","https://kisumu-drawings.s3-us-west-1.amazonaws.com/29-010.png","1","Bicycle","29-010.png"
"","10837","image-button-response","16","null","272811","685c6ca90f751d3aae6b1794","685c7357b4f6251b15b678dc","67d5a19b8b98d688b46bb348","false","false","Watch","https://kisumu-drawings.s3-us-west-1.amazonaws.com/113-005.png","11","Watch","113-005.png"
"","14580","image-button-response","17","null","287905","685c6ca90f751d3aae6b1794","685c7357b4f6251b15b678dc","67d5a19b8b98d688b46bb348","false","false","Airplane","https://kisumu-drawings.s3-us-west-1.amazonaws.com/48-009.png","8","House","48-009.png"
"","13397","image-button-response","18","null","301818","685c6ca90f751d3aae6b1794","685c7357b4f6251b15b678dc","67d5a19b8b98d688b46bb348","false","false","Chair","https://kisumu-drawings.s3-us-west-1.amazonaws.com/2-005.png","5","Chair","2-005.png"
"","9282","image-button-response","19","null","311610","685c6ca90f751d3aae6b1794","685c7357b4f6251b15b678dc","67d5a19b8b98d688b46bb348","false","false","Watch","https://kisumu-drawings.s3-us-west-1.amazonaws.com/34-009.png","11","Watch","34-009.png"
"","8228","image-button-response","20","null","320354","685c6ca90f751d3aae6b1794","685c7357b4f6251b15b678dc","67d5a19b8b98d688b46bb348","false","false","Hat","https://kisumu-drawings.s3-us-west-1.amazonaws.com/17-015.png","3","Car","17-015.png"
"","5368","image-button-response","21","null","326234","685c6ca90f751d3aae6b1794","685c7357b4f6251b15b678dc","67d5a19b8b98d688b46bb348","false","false","Airplane","https://kisumu-drawings.s3-us-west-1.amazonaws.com/88-006.png","0","Airplane","88-006.png"
"","6101","image-button-response","22","null","332850","685c6ca90f751d3aae6b1794","685c7357b4f6251b15b678dc","67d5a19b8b98d688b46bb348","false","false","Car","https://kisumu-drawings.s3-us-west-1.amazonaws.com/39-006.png","0","Airplane","39-006.png"
"","6046","image-button-response","23","null","339426","685c6ca90f751d3aae6b1794","685c7357b4f6251b15b678dc","67d5a19b8b98d688b46bb348","false","false","Bicycle","https://kisumu-drawings.s3-us-west-1.amazonaws.com/102-015.png","1","Bicycle","102-015.png"
"","17452","image-button-response","24","null","357398","685c6ca90f751d3aae6b1794","685c7357b4f6251b15b678dc","67d5a19b8b98d688b46bb348","false","false","Chair","https://kisumu-drawings.s3-us-west-1.amazonaws.com/120-016.png","6","Cup","120-016.png"
"","6654","image-button-response","25","null","364555","685c6ca90f751d3aae6b1794","685c7357b4f6251b15b678dc","67d5a19b8b98d688b46bb348","false","false","Airplane","https://kisumu-drawings.s3-us-west-1.amazonaws.com/74-015.png","0","Airplane","74-015.png"
"","3446","image-button-response","26","null","368520","685c6ca90f751d3aae6b1794","685c7357b4f6251b15b678dc","67d5a19b8b98d688b46bb348","false","false","Cat","https://kisumu-drawings.s3-us-west-1.amazonaws.com/41-011.png","4","Cat","41-011.png"
"","4293","image-button-response","27","null","373318","685c6ca90f751d3aae6b1794","685c7357b4f6251b15b678dc","67d5a19b8b98d688b46bb348","false","false","Cup","https://kisumu-drawings.s3-us-west-1.amazonaws.com/104-008.png","6","Cup","104-008.png"
"","6455","image-button-response","28","null","380290","685c6ca90f751d3aae6b1794","685c7357b4f6251b15b678dc","67d5a19b8b98d688b46bb348","false","false","Car","https://kisumu-drawings.s3-us-west-1.amazonaws.com/47-006.png","3","Car","47-006.png"
"","5683","image-button-response","29","null","386483","685c6ca90f751d3aae6b1794","685c7357b4f6251b15b678dc","67d5a19b8b98d688b46bb348","false","false","Cat","https://kisumu-drawings.s3-us-west-1.amazonaws.com/27-008.png","4","Cat","27-008.png"
"","23635","image-button-response","30","null","410629","685c6ca90f751d3aae6b1794","685c7357b4f6251b15b678dc","67d5a19b8b98d688b46bb348","false","false","Bird","https://kisumu-drawings.s3-us-west-1.amazonaws.com/8-005.png","10","Tree","8-005.png"
"","18020","image-button-response","31","null","429167","685c6ca90f751d3aae6b1794","685c7357b4f6251b15b678dc","67d5a19b8b98d688b46bb348","false","false","Hat","https://kisumu-drawings.s3-us-west-1.amazonaws.com/30-012.png","7","Hat","30-012.png"
"","19603","image-button-response","32","null","449285","685c6ca90f751d3aae6b1794","685c7357b4f6251b15b678dc","67d5a19b8b98d688b46bb348","false","false","Bicycle","https://kisumu-drawings.s3-us-west-1.amazonaws.com/82-006.png","1","Bicycle","82-006.png"
"","6312","image-button-response","33","null","456108","685c6ca90f751d3aae6b1794","685c7357b4f6251b15b678dc","67d5a19b8b98d688b46bb348","false","false","Car","https://kisumu-drawings.s3-us-west-1.amazonaws.com/92-007.png","3","Car","92-007.png"
"","6074","image-button-response","34","null","462689","685c6ca90f751d3aae6b1794","685c7357b4f6251b15b678dc","67d5a19b8b98d688b46bb348","false","false","Bicycle","https://kisumu-drawings.s3-us-west-1.amazonaws.com/74-014.png","1","Bicycle","74-014.png"
"","6098","image-button-response","35","null","469301","685c6ca90f751d3aae6b1794","685c7357b4f6251b15b678dc","67d5a19b8b98d688b46bb348","false","false","Bird","https://kisumu-drawings.s3-us-west-1.amazonaws.com/91-011.png","0","Airplane","91-011.png"
"","48655","image-button-response","36","null","518474","685c6ca90f751d3aae6b1794","685c7357b4f6251b15b678dc","67d5a19b8b98d688b46bb348","false","false","Rabbit","https://kisumu-drawings.s3-us-west-1.amazonaws.com/82-009.png","4","Cat","82-009.png"
"","5496","image-button-response","37","null","524484","685c6ca90f751d3aae6b1794","685c7357b4f6251b15b678dc","67d5a19b8b98d688b46bb348","false","false","Airplane","https://kisumu-drawings.s3-us-west-1.amazonaws.com/22-012.png","0","Airplane","22-012.png"
"","3603","image-button-response","38","null","528598","685c6ca90f751d3aae6b1794","685c7357b4f6251b15b678dc","67d5a19b8b98d688b46bb348","false","false","Cup","https://kisumu-drawings.s3-us-west-1.amazonaws.com/73-015.png","6","Cup","73-015.png"
"","9439","image-button-response","39","null","538542","685c6ca90f751d3aae6b1794","685c7357b4f6251b15b678dc","67d5a19b8b98d688b46bb348","false","false","Rabbit","https://kisumu-drawings.s3-us-west-1.amazonaws.com/71-005.png","4","Cat","71-005.png"
"","13974","image-button-response","40","null","553025","685c6ca90f751d3aae6b1794","685c7357b4f6251b15b678dc","67d5a19b8b98d688b46bb348","false","false","Bird","https://kisumu-drawings.s3-us-west-1.amazonaws.com/105-007.png","0","Airplane","105-007.png"
"","5998","image-button-response","41","null","559529","685c6ca90f751d3aae6b1794","685c7357b4f6251b15b678dc","67d5a19b8b98d688b46bb348","false","false","Bicycle","https://kisumu-drawings.s3-us-west-1.amazonaws.com/25-005.png","3","Car","25-005.png"
"","3209","image-button-response","42","null","563253","685c6ca90f751d3aae6b1794","685c7357b4f6251b15b678dc","67d5a19b8b98d688b46bb348","false","false","Cup","https://kisumu-drawings.s3-us-west-1.amazonaws.com/41-007.png","6","Cup","41-007.png"
"","3588","image-button-response","43","null","567357","685c6ca90f751d3aae6b1794","685c7357b4f6251b15b678dc","67d5a19b8b98d688b46bb348","false","false","House","https://kisumu-drawings.s3-us-west-1.amazonaws.com/24-015.png","8","House","24-015.png"
"","3658","image-button-response","44","null","571521","685c6ca90f751d3aae6b1794","685c7357b4f6251b15b678dc","67d5a19b8b98d688b46bb348","false","false","Watch","https://kisumu-drawings.s3-us-west-1.amazonaws.com/71-015.png","11","Watch","71-015.png"
"","3448","image-button-response","45","null","575473","685c6ca90f751d3aae6b1794","685c7357b4f6251b15b678dc","67d5a19b8b98d688b46bb348","false","false","Tree","https://kisumu-drawings.s3-us-west-1.amazonaws.com/103-007.png","10","Tree","103-007.png"
"","3370","image-button-response","46","null","579355","685c6ca90f751d3aae6b1794","685c7357b4f6251b15b678dc","67d5a19b8b98d688b46bb348","false","false","Hat","https://kisumu-drawings.s3-us-west-1.amazonaws.com/90-009.png","7","Hat","90-009.png"
"","7562","image-button-response","47","null","587421","685c6ca90f751d3aae6b1794","685c7357b4f6251b15b678dc","67d5a19b8b98d688b46bb348","false","false","Bicycle","https://kisumu-drawings.s3-us-west-1.amazonaws.com/8-016.png","10","Tree","8-016.png"
"","5791","image-button-response","48","null","593721","685c6ca90f751d3aae6b1794","685c7357b4f6251b15b678dc","67d5a19b8b98d688b46bb348","false","false","Car","https://kisumu-drawings.s3-us-west-1.amazonaws.com/114-012.png","3","Car","114-012.png"
"","9495","image-button-response","49","null","603721","685c6ca90f751d3aae6b1794","685c7357b4f6251b15b678dc","67d5a19b8b98d688b46bb348","false","false","Chair","https://kisumu-drawings.s3-us-west-1.amazonaws.com/55-013.png","8","House","55-013.png"
"","7156","image-button-response","50","null","611389","685c6ca90f751d3aae6b1794","685c7357b4f6251b15b678dc","67d5a19b8b98d688b46bb348","false","false","Hat","https://kisumu-drawings.s3-us-west-1.amazonaws.com/52-009.png","7","Hat","52-009.png"
"","4959","image-button-response","51","null","616853","685c6ca90f751d3aae6b1794","685c7357b4f6251b15b678dc","67d5a19b8b98d688b46bb348","false","false","Cat","https://kisumu-drawings.s3-us-west-1.amazonaws.com/64-006.png","4","Cat","64-006.png"
"","17255","image-button-response","52","null","634617","685c6ca90f751d3aae6b1794","685c7357b4f6251b15b678dc","67d5a19b8b98d688b46bb348","false","false","Bicycle","https://kisumu-drawings.s3-us-west-1.amazonaws.com/51-007.png","10","Tree","51-007.png"
"","7034","image-button-response","53","null","642160","685c6ca90f751d3aae6b1794","685c7357b4f6251b15b678dc","67d5a19b8b98d688b46bb348","false","false","House","https://kisumu-drawings.s3-us-west-1.amazonaws.com/48-013.png","8","House","48-013.png"
"","2750","image-button-response","54","null","645416","685c6ca90f751d3aae6b1794","685c7357b4f6251b15b678dc","67d5a19b8b98d688b46bb348","false","false","House","https://kisumu-drawings.s3-us-west-1.amazonaws.com/99-010.png","8","House","99-010.png"
"","5469","image-button-response","55","null","651394","685c6ca90f751d3aae6b1794","685c7357b4f6251b15b678dc","67d5a19b8b98d688b46bb348","false","false","Airplane","https://kisumu-drawings.s3-us-west-1.amazonaws.com/8-015.png","0","Airplane","8-015.png"
"","4599","image-button-response","56","null","656502","685c6ca90f751d3aae6b1794","685c7357b4f6251b15b678dc","67d5a19b8b98d688b46bb348","false","false","Watch","https://kisumu-drawings.s3-us-west-1.amazonaws.com/94-006.png","11","Watch","94-006.png"
"","4512","image-button-response","57","null","661520","685c6ca90f751d3aae6b1794","685c7357b4f6251b15b678dc","67d5a19b8b98d688b46bb348","false","false","Hat","https://kisumu-drawings.s3-us-west-1.amazonaws.com/65-014.png","7","Hat","65-014.png"
"","2856","image-button-response","58","null","664882","685c6ca90f751d3aae6b1794","685c7357b4f6251b15b678dc","67d5a19b8b98d688b46bb348","false","false","Bird","https://kisumu-drawings.s3-us-west-1.amazonaws.com/43-009.png","4","Cat","43-009.png"
"","2184","image-button-response","59","null","667572","685c6ca90f751d3aae6b1794","685c7357b4f6251b15b678dc","67d5a19b8b98d688b46bb348","true","false","airplane","stimuli/catch_trials/0_airplane_catch.jpg","0","Airplane",""
"","5917","image-button-response","60","null","674010","685c6ca90f751d3aae6b1794","685c7357b4f6251b15b678dc","67d5a19b8b98d688b46bb348","false","false","Hat","https://kisumu-drawings.s3-us-west-1.amazonaws.com/111-013.png","7","Hat","111-013.png"
"","3919","image-button-response","61","null","678438","685c6ca90f751d3aae6b1794","685c7357b4f6251b15b678dc","67d5a19b8b98d688b46bb348","false","false","House","https://kisumu-drawings.s3-us-west-1.amazonaws.com/71-008.png","8","House","71-008.png"
"","4042","image-button-response","62","null","682984","685c6ca90f751d3aae6b1794","685c7357b4f6251b15b678dc","67d5a19b8b98d688b46bb348","false","false","Watch","https://kisumu-drawings.s3-us-west-1.amazonaws.com/17-011.png","11","Watch","17-011.png"
"","10352","image-button-response","63","null","693842","685c6ca90f751d3aae6b1794","685c7357b4f6251b15b678dc","67d5a19b8b98d688b46bb348","false","false","Cat","https://kisumu-drawings.s3-us-west-1.amazonaws.com/20-008.png","0","Airplane","20-008.png"
"","112076","image-button-response","64","null","806429","685c6ca90f751d3aae6b1794","685c7357b4f6251b15b678dc","67d5a19b8b98d688b46bb348","false","false","Rabbit","https://kisumu-drawings.s3-us-west-1.amazonaws.com/10-010.png","6","Cup","10-010.png"
"","6186","image-button-response","65","null","813126","685c6ca90f751d3aae6b1794","685c7357b4f6251b15b678dc","67d5a19b8b98d688b46bb348","false","false","Tree","https://kisumu-drawings.s3-us-west-1.amazonaws.com/35-015.png","10","Tree","35-015.png"
"","9343","image-button-response","66","null","822988","685c6ca90f751d3aae6b1794","685c7357b4f6251b15b678dc","67d5a19b8b98d688b46bb348","false","false","Cup","https://kisumu-drawings.s3-us-west-1.amazonaws.com/10-005.png","7","Hat","10-005.png"
"","9563","image-button-response","67","null","833056","685c6ca90f751d3aae6b1794","685c7357b4f6251b15b678dc","67d5a19b8b98d688b46bb348","false","false","Airplane","https://kisumu-drawings.s3-us-west-1.amazonaws.com/114-011.png","3","Car","114-011.png"
"","15231","image-button-response","68","null","848792","685c6ca90f751d3aae6b1794","685c7357b4f6251b15b678dc","67d5a19b8b98d688b46bb348","false","false","House","https://kisumu-drawings.s3-us-west-1.amazonaws.com/11-015.png","9","Rabbit","11-015.png"
"","11414","image-button-response","69","null","860718","685c6ca90f751d3aae6b1794","685c7357b4f6251b15b678dc","67d5a19b8b98d688b46bb348","false","false","Watch","https://kisumu-drawings.s3-us-west-1.amazonaws.com/42-015.png","0","Airplane","42-015.png"
"","27504","image-button-response","70","null","888733","685c6ca90f751d3aae6b1794","685c7357b4f6251b15b678dc","67d5a19b8b98d688b46bb348","false","false","Chair","https://kisumu-drawings.s3-us-west-1.amazonaws.com/92-009.png","5","Chair","92-009.png"
"","6119","image-button-response","71","null","895380","685c6ca90f751d3aae6b1794","685c7357b4f6251b15b678dc","67d5a19b8b98d688b46bb348","false","false","Tree","https://kisumu-drawings.s3-us-west-1.amazonaws.com/73-014.png","10","Tree","73-014.png"
"","8818","image-button-response","72","null","904709","685c6ca90f751d3aae6b1794","685c7357b4f6251b15b678dc","67d5a19b8b98d688b46bb348","false","false","Tree","https://kisumu-drawings.s3-us-west-1.amazonaws.com/15-007.png","10","Tree","15-007.png"
"","22273","image-button-response","73","null","927503","685c6ca90f751d3aae6b1794","685c7357b4f6251b15b678dc","67d5a19b8b98d688b46bb348","false","false","Bird","https://kisumu-drawings.s3-us-west-1.amazonaws.com/28-016.png","2","Bird","28-016.png"
"","7423","image-button-response","74","null","935445","685c6ca90f751d3aae6b1794","685c7357b4f6251b15b678dc","67d5a19b8b98d688b46bb348","false","false","Cup","https://kisumu-drawings.s3-us-west-1.amazonaws.com/95-013.png","6","Cup","95-013.png"
"","7647","image-button-response","75","null","943596","685c6ca90f751d3aae6b1794","685c7357b4f6251b15b678dc","67d5a19b8b98d688b46bb348","false","false","Rabbit","https://kisumu-drawings.s3-us-west-1.amazonaws.com/44-016.png","4","Cat","44-016.png"
