"view_history","rt","trial_type","trial_index","plugin_version","time_elapsed","study_id","session_id","participant_id","catch_trial","prep_trial","sketcher_category","stimulus","response","response_category","sketch_id"
"[{""page_index"":0,""viewing_time"":671530},{""page_index"":1,""viewing_time"":1039},{""page_index"":2,""viewing_time"":1280},{""page_index"":3,""viewing_time"":1539}]","675388","instructions","0","null","675410","685c6ca90f751d3aae6b1794","685c70aab6fdfd3cc0473965","67dd47c1ba37fed0188bac37","","","","","","",""
"","3983","image-button-response","1","null","680409","685c6ca90f751d3aae6b1794","685c70aab6fdfd3cc0473965","67dd47c1ba37fed0188bac37","false","true","car","stimuli/prep_trials/1_car_prep.png","3","Car",""
"","2145","image-button-response","2","null","683060","685c6ca90f751d3aae6b1794","685c70aab6fdfd3cc0473965","67dd47c1ba37fed0188bac37","false","true","cat","stimuli/prep_trials/0_cat_prep.jpg","4","Cat",""
"","10193","image-button-response","3","null","693760","685c6ca90f751d3aae6b1794","685c70aab6fdfd3cc0473965","67dd47c1ba37fed0188bac37","false","false","Cat","https://kisumu-drawings.s3-us-west-1.amazonaws.com/28-008.png","2","Bird","28-008.png"
"","116532","image-button-response","4","null","810808","685c6ca90f751d3aae6b1794","685c70aab6fdfd3cc0473965","67dd47c1ba37fed0188bac37","false","false","Chair","https://kisumu-drawings.s3-us-west-1.amazonaws.com/80-013.png","5","Chair","80-013.png"
"","21231","image-button-response","5","null","832550","685c6ca90f751d3aae6b1794","685c70aab6fdfd3cc0473965","67dd47c1ba37fed0188bac37","false","false","Hat","https://kisumu-drawings.s3-us-west-1.amazonaws.com/45-009.png","3","Car","45-009.png"
"","961","image-button-response","6","null","834013","685c6ca90f751d3aae6b1794","685c70aab6fdfd3cc0473965","67dd47c1ba37fed0188bac37","false","false","Watch","https://kisumu-drawings.s3-us-west-1.amazonaws.com/21-009.png","3","Car","21-009.png"
"","660","image-button-response","7","null","835182","685c6ca90f751d3aae6b1794","685c70aab6fdfd3cc0473965","67dd47c1ba37fed0188bac37","false","false","Rabbit","https://kisumu-drawings.s3-us-west-1.amazonaws.com/62-006.png","4","Cat","62-006.png"
"","475","image-button-response","8","null","836168","685c6ca90f751d3aae6b1794","685c70aab6fdfd3cc0473965","67dd47c1ba37fed0188bac37","false","false","Hat","https://kisumu-drawings.s3-us-west-1.amazonaws.com/108-006.png","10","Tree","108-006.png"
"","788","image-button-response","9","null","837464","685c6ca90f751d3aae6b1794","685c70aab6fdfd3cc0473965","67dd47c1ba37fed0188bac37","false","false","Cat","https://kisumu-drawings.s3-us-west-1.amazonaws.com/82-015.png","8","House","82-015.png"
"","511","image-button-response","10","null","838486","685c6ca90f751d3aae6b1794","685c70aab6fdfd3cc0473965","67dd47c1ba37fed0188bac37","false","false","Tree","https://kisumu-drawings.s3-us-west-1.amazonaws.com/82-010.png","1","Bicycle","82-010.png"
"","11366","image-button-response","11","null","850373","685c6ca90f751d3aae6b1794","685c70aab6fdfd3cc0473965","67dd47c1ba37fed0188bac37","false","false","Chair","https://kisumu-drawings.s3-us-west-1.amazonaws.com/108-007.png","5","Chair","108-007.png"
"","6945","image-button-response","12","null","857824","685c6ca90f751d3aae6b1794","685c70aab6fdfd3cc0473965","67dd47c1ba37fed0188bac37","false","false","Watch","https://kisumu-drawings.s3-us-west-1.amazonaws.com/119-015.png","2","Bird","119-015.png"
"","955","image-button-response","13","null","859286","685c6ca90f751d3aae6b1794","685c70aab6fdfd3cc0473965","67dd47c1ba37fed0188bac37","false","false","Airplane","https://kisumu-drawings.s3-us-west-1.amazonaws.com/87-005.png","3","Car","87-005.png"
"","21372","image-button-response","14","null","881172","685c6ca90f751d3aae6b1794","685c70aab6fdfd3cc0473965","67dd47c1ba37fed0188bac37","false","false","House","https://kisumu-drawings.s3-us-west-1.amazonaws.com/117-014.png","8","House","117-014.png"
"","9206","image-button-response","15","null","890885","685c6ca90f751d3aae6b1794","685c70aab6fdfd3cc0473965","67dd47c1ba37fed0188bac37","false","false","Bicycle","https://kisumu-drawings.s3-us-west-1.amazonaws.com/71-013.png","2","Bird","71-013.png"
"","11204","image-button-response","16","null","902603","685c6ca90f751d3aae6b1794","685c70aab6fdfd3cc0473965","67dd47c1ba37fed0188bac37","false","false","Car","https://kisumu-drawings.s3-us-west-1.amazonaws.com/41-010.png","3","Car","41-010.png"
"","17385","image-button-response","17","null","920501","685c6ca90f751d3aae6b1794","685c70aab6fdfd3cc0473965","67dd47c1ba37fed0188bac37","false","false","Chair","https://kisumu-drawings.s3-us-west-1.amazonaws.com/15-009.png","8","House","15-009.png"
"","15525","image-button-response","18","null","936530","685c6ca90f751d3aae6b1794","685c70aab6fdfd3cc0473965","67dd47c1ba37fed0188bac37","false","false","Car","https://kisumu-drawings.s3-us-west-1.amazonaws.com/77-015.png","3","Car","77-015.png"
"","20457","image-button-response","19","null","957494","685c6ca90f751d3aae6b1794","685c70aab6fdfd3cc0473965","67dd47c1ba37fed0188bac37","false","false","Rabbit","https://kisumu-drawings.s3-us-west-1.amazonaws.com/97-012.png","3","Car","97-012.png"
"","18482","image-button-response","20","null","976487","685c6ca90f751d3aae6b1794","685c70aab6fdfd3cc0473965","67dd47c1ba37fed0188bac37","false","false","House","https://kisumu-drawings.s3-us-west-1.amazonaws.com/41-015.png","8","House","41-015.png"
"","23343","image-button-response","21","null","1000334","685c6ca90f751d3aae6b1794","685c70aab6fdfd3cc0473965","67dd47c1ba37fed0188bac37","false","false","Bicycle","https://kisumu-drawings.s3-us-west-1.amazonaws.com/24-010.png","10","Tree","24-010.png"
"","19894","image-button-response","22","null","1020743","685c6ca90f751d3aae6b1794","685c70aab6fdfd3cc0473965","67dd47c1ba37fed0188bac37","false","false","Cat","https://kisumu-drawings.s3-us-west-1.amazonaws.com/112-016.png","2","Bird","112-016.png"
"","16634","image-button-response","23","null","1037899","685c6ca90f751d3aae6b1794","685c70aab6fdfd3cc0473965","67dd47c1ba37fed0188bac37","false","false","Chair","https://kisumu-drawings.s3-us-west-1.amazonaws.com/41-006.png","5","Chair","41-006.png"
"","23724","image-button-response","24","null","1062130","685c6ca90f751d3aae6b1794","685c70aab6fdfd3cc0473965","67dd47c1ba37fed0188bac37","false","false","Bird","https://kisumu-drawings.s3-us-west-1.amazonaws.com/80-008.png","2","Bird","80-008.png"
"","19441","image-button-response","25","null","1082086","685c6ca90f751d3aae6b1794","685c70aab6fdfd3cc0473965","67dd47c1ba37fed0188bac37","false","false","House","https://kisumu-drawings.s3-us-west-1.amazonaws.com/76-016.png","8","House","76-016.png"
"","8945","image-button-response","26","null","1091545","685c6ca90f751d3aae6b1794","685c70aab6fdfd3cc0473965","67dd47c1ba37fed0188bac37","false","false","Hat","https://kisumu-drawings.s3-us-west-1.amazonaws.com/16-013.png","5","Chair","16-013.png"
"","30425","image-button-response","27","null","1122479","685c6ca90f751d3aae6b1794","685c70aab6fdfd3cc0473965","67dd47c1ba37fed0188bac37","false","false","Rabbit","https://kisumu-drawings.s3-us-west-1.amazonaws.com/14-006.png","5","Chair","14-006.png"
"","6996","image-button-response","28","null","1129987","685c6ca90f751d3aae6b1794","685c70aab6fdfd3cc0473965","67dd47c1ba37fed0188bac37","false","false","Cat","https://kisumu-drawings.s3-us-west-1.amazonaws.com/2-015.png","8","House","2-015.png"
"","875","image-button-response","29","null","1131366","685c6ca90f751d3aae6b1794","685c70aab6fdfd3cc0473965","67dd47c1ba37fed0188bac37","false","false","Rabbit","https://kisumu-drawings.s3-us-west-1.amazonaws.com/26-013.png","3","Car","26-013.png"
"","130","image-button-response","30","null","1132012","685c6ca90f751d3aae6b1794","685c70aab6fdfd3cc0473965","67dd47c1ba37fed0188bac37","false","false","Tree","https://kisumu-drawings.s3-us-west-1.amazonaws.com/101-007.png","2","Bird","101-007.png"
"","11287","image-button-response","31","null","1143810","685c6ca90f751d3aae6b1794","685c70aab6fdfd3cc0473965","67dd47c1ba37fed0188bac37","false","false","Bird","https://kisumu-drawings.s3-us-west-1.amazonaws.com/10-014.png","9","Rabbit","10-014.png"
"","17157","image-button-response","32","null","1161478","685c6ca90f751d3aae6b1794","685c70aab6fdfd3cc0473965","67dd47c1ba37fed0188bac37","false","false","House","https://kisumu-drawings.s3-us-west-1.amazonaws.com/10-009.png","5","Chair","10-009.png"
"","15421","image-button-response","33","null","1177410","685c6ca90f751d3aae6b1794","685c70aab6fdfd3cc0473965","67dd47c1ba37fed0188bac37","false","false","Rabbit","https://kisumu-drawings.s3-us-west-1.amazonaws.com/118-012.png","9","Rabbit","118-012.png"
"","12366","image-button-response","34","null","1190292","685c6ca90f751d3aae6b1794","685c70aab6fdfd3cc0473965","67dd47c1ba37fed0188bac37","false","false","Airplane","https://kisumu-drawings.s3-us-west-1.amazonaws.com/51-006.png","0","Airplane","51-006.png"
"","13964","image-button-response","35","null","1204768","685c6ca90f751d3aae6b1794","685c70aab6fdfd3cc0473965","67dd47c1ba37fed0188bac37","false","false","Watch","https://kisumu-drawings.s3-us-west-1.amazonaws.com/1-006.png","11","Watch","1-006.png"
"","12555","image-button-response","36","null","1217825","685c6ca90f751d3aae6b1794","685c70aab6fdfd3cc0473965","67dd47c1ba37fed0188bac37","false","false","Car","https://kisumu-drawings.s3-us-west-1.amazonaws.com/102-011.png","3","Car","102-011.png"
"","21634","image-button-response","37","null","1239972","685c6ca90f751d3aae6b1794","685c70aab6fdfd3cc0473965","67dd47c1ba37fed0188bac37","false","false","Watch","https://kisumu-drawings.s3-us-west-1.amazonaws.com/87-010.png","11","Watch","87-010.png"
"","13212","image-button-response","38","null","1253689","685c6ca90f751d3aae6b1794","685c70aab6fdfd3cc0473965","67dd47c1ba37fed0188bac37","false","false","Chair","https://kisumu-drawings.s3-us-west-1.amazonaws.com/36-013.png","1","Bicycle","36-013.png"
"","8588","image-button-response","39","null","1262785","685c6ca90f751d3aae6b1794","685c70aab6fdfd3cc0473965","67dd47c1ba37fed0188bac37","false","false","Bird","https://kisumu-drawings.s3-us-west-1.amazonaws.com/116-010.png","11","Watch","116-010.png"
"","22131","image-button-response","40","null","1285420","685c6ca90f751d3aae6b1794","685c70aab6fdfd3cc0473965","67dd47c1ba37fed0188bac37","false","false","Bicycle","https://kisumu-drawings.s3-us-west-1.amazonaws.com/5-015.png","3","Car","5-015.png"
"","12349","image-button-response","41","null","1298279","685c6ca90f751d3aae6b1794","685c70aab6fdfd3cc0473965","67dd47c1ba37fed0188bac37","false","false","Cup","https://kisumu-drawings.s3-us-west-1.amazonaws.com/66-015.png","6","Cup","66-015.png"
"","30459","image-button-response","42","null","1329250","685c6ca90f751d3aae6b1794","685c70aab6fdfd3cc0473965","67dd47c1ba37fed0188bac37","false","false","Bicycle","https://kisumu-drawings.s3-us-west-1.amazonaws.com/86-010.png","0","Airplane","86-010.png"
"","21501","image-button-response","43","null","1351261","685c6ca90f751d3aae6b1794","685c70aab6fdfd3cc0473965","67dd47c1ba37fed0188bac37","false","false","Airplane","https://kisumu-drawings.s3-us-west-1.amazonaws.com/74-015.png","11","Watch","74-015.png"
"","43603","image-button-response","44","null","1395376","685c6ca90f751d3aae6b1794","685c70aab6fdfd3cc0473965","67dd47c1ba37fed0188bac37","false","false","Tree","https://kisumu-drawings.s3-us-west-1.amazonaws.com/4-014.png","1","Bicycle","4-014.png"
"","134152","image-button-response","45","null","1530042","685c6ca90f751d3aae6b1794","685c70aab6fdfd3cc0473965","67dd47c1ba37fed0188bac37","false","false","Cup","https://kisumu-drawings.s3-us-west-1.amazonaws.com/31-011.png","9","Rabbit","31-011.png"
"","849","image-button-response","46","null","1531409","685c6ca90f751d3aae6b1794","685c70aab6fdfd3cc0473965","67dd47c1ba37fed0188bac37","false","false","Airplane","https://kisumu-drawings.s3-us-west-1.amazonaws.com/24-008.png","4","Cat","24-008.png"
"","6942","image-button-response","47","null","1538859","685c6ca90f751d3aae6b1794","685c70aab6fdfd3cc0473965","67dd47c1ba37fed0188bac37","false","false","Car","https://kisumu-drawings.s3-us-west-1.amazonaws.com/14-010.png","3","Car","14-010.png"
"","2499","image-button-response","48","null","1541866","685c6ca90f751d3aae6b1794","685c70aab6fdfd3cc0473965","67dd47c1ba37fed0188bac37","false","false","Hat","https://kisumu-drawings.s3-us-west-1.amazonaws.com/81-006.png","3","Car","81-006.png"
"","492","image-button-response","49","null","1542876","685c6ca90f751d3aae6b1794","685c70aab6fdfd3cc0473965","67dd47c1ba37fed0188bac37","false","false","Watch","https://kisumu-drawings.s3-us-west-1.amazonaws.com/49-015.png","4","Cat","49-015.png"
"","975","image-button-response","50","null","1544360","685c6ca90f751d3aae6b1794","685c70aab6fdfd3cc0473965","67dd47c1ba37fed0188bac37","false","false","Watch","https://kisumu-drawings.s3-us-west-1.amazonaws.com/61-011.png","5","Chair","61-011.png"
"","609","image-button-response","51","null","1545480","685c6ca90f751d3aae6b1794","685c70aab6fdfd3cc0473965","67dd47c1ba37fed0188bac37","false","false","Bicycle","https://kisumu-drawings.s3-us-west-1.amazonaws.com/45-015.png","3","Car","45-015.png"
"","450","image-button-response","52","null","1546436","685c6ca90f751d3aae6b1794","685c70aab6fdfd3cc0473965","67dd47c1ba37fed0188bac37","false","false","Car","https://kisumu-drawings.s3-us-west-1.amazonaws.com/29-007.png","2","Bird","29-007.png"
"","454","image-button-response","53","null","1547411","685c6ca90f751d3aae6b1794","685c70aab6fdfd3cc0473965","67dd47c1ba37fed0188bac37","false","false","Bird","https://kisumu-drawings.s3-us-west-1.amazonaws.com/29-006.png","1","Bicycle","29-006.png"
"","566","image-button-response","54","null","1548483","685c6ca90f751d3aae6b1794","685c70aab6fdfd3cc0473965","67dd47c1ba37fed0188bac37","false","false","Cup","https://kisumu-drawings.s3-us-west-1.amazonaws.com/110-013.png","4","Cat","110-013.png"
"","535","image-button-response","55","null","1549528","685c6ca90f751d3aae6b1794","685c70aab6fdfd3cc0473965","67dd47c1ba37fed0188bac37","false","false","Bird","https://kisumu-drawings.s3-us-west-1.amazonaws.com/56-008.png","5","Chair","56-008.png"
"","479","image-button-response","56","null","1550522","685c6ca90f751d3aae6b1794","685c70aab6fdfd3cc0473965","67dd47c1ba37fed0188bac37","false","false","Hat","https://kisumu-drawings.s3-us-west-1.amazonaws.com/35-013.png","3","Car","35-013.png"
"","556","image-button-response","57","null","1551583","685c6ca90f751d3aae6b1794","685c70aab6fdfd3cc0473965","67dd47c1ba37fed0188bac37","false","false","Car","https://kisumu-drawings.s3-us-west-1.amazonaws.com/93-009.png","2","Bird","93-009.png"
"","725","image-button-response","58","null","1552812","685c6ca90f751d3aae6b1794","685c70aab6fdfd3cc0473965","67dd47c1ba37fed0188bac37","false","false","Tree","https://kisumu-drawings.s3-us-west-1.amazonaws.com/56-006.png","6","Cup","56-006.png"
"","676","image-button-response","59","null","1553990","685c6ca90f751d3aae6b1794","685c70aab6fdfd3cc0473965","67dd47c1ba37fed0188bac37","false","false","Cup","https://kisumu-drawings.s3-us-west-1.amazonaws.com/96-010.png","4","Cat","96-010.png"
"","646","image-button-response","60","null","1555142","685c6ca90f751d3aae6b1794","685c70aab6fdfd3cc0473965","67dd47c1ba37fed0188bac37","false","false","Cat","https://kisumu-drawings.s3-us-west-1.amazonaws.com/61-013.png","2","Bird","61-013.png"
"","575","image-button-response","61","null","1556227","685c6ca90f751d3aae6b1794","685c70aab6fdfd3cc0473965","67dd47c1ba37fed0188bac37","false","false","Tree","https://kisumu-drawings.s3-us-west-1.amazonaws.com/40-014.png","10","Tree","40-014.png"
"","568","image-button-response","62","null","1557309","685c6ca90f751d3aae6b1794","685c70aab6fdfd3cc0473965","67dd47c1ba37fed0188bac37","false","false","Hat","https://kisumu-drawings.s3-us-west-1.amazonaws.com/77-008.png","2","Bird","77-008.png"
"","792","image-button-response","63","null","1558610","685c6ca90f751d3aae6b1794","685c70aab6fdfd3cc0473965","67dd47c1ba37fed0188bac37","true","false","airplane","stimuli/catch_trials/0_airplane_catch.jpg","11","Watch",""
"","574","image-button-response","64","null","1559696","685c6ca90f751d3aae6b1794","685c70aab6fdfd3cc0473965","67dd47c1ba37fed0188bac37","false","false","House","https://kisumu-drawings.s3-us-west-1.amazonaws.com/28-012.png","2","Bird","28-012.png"
"","855","image-button-response","65","null","1561054","685c6ca90f751d3aae6b1794","685c70aab6fdfd3cc0473965","67dd47c1ba37fed0188bac37","false","false","Airplane","https://kisumu-drawings.s3-us-west-1.amazonaws.com/18-011.png","9","Rabbit","18-011.png"
"","712","image-button-response","66","null","1562270","685c6ca90f751d3aae6b1794","685c70aab6fdfd3cc0473965","67dd47c1ba37fed0188bac37","false","false","Bicycle","https://kisumu-drawings.s3-us-west-1.amazonaws.com/116-005.png","2","Bird","116-005.png"
"","571","image-button-response","67","null","1563350","685c6ca90f751d3aae6b1794","685c70aab6fdfd3cc0473965","67dd47c1ba37fed0188bac37","false","false","Airplane","https://kisumu-drawings.s3-us-west-1.amazonaws.com/109-015.png","10","Tree","109-015.png"
"","826","image-button-response","68","null","1564681","685c6ca90f751d3aae6b1794","685c70aab6fdfd3cc0473965","67dd47c1ba37fed0188bac37","false","false","Bird","https://kisumu-drawings.s3-us-west-1.amazonaws.com/90-010.png","0","Airplane","90-010.png"
"","544","image-button-response","69","null","1565735","685c6ca90f751d3aae6b1794","685c70aab6fdfd3cc0473965","67dd47c1ba37fed0188bac37","false","false","Chair","https://kisumu-drawings.s3-us-west-1.amazonaws.com/90-011.png","6","Cup","90-011.png"
"","1028","image-button-response","70","null","1567271","685c6ca90f751d3aae6b1794","685c70aab6fdfd3cc0473965","67dd47c1ba37fed0188bac37","false","false","Cup","https://kisumu-drawings.s3-us-west-1.amazonaws.com/48-015.png","3","Car","48-015.png"
"","2186","image-button-response","71","null","1569963","685c6ca90f751d3aae6b1794","685c70aab6fdfd3cc0473965","67dd47c1ba37fed0188bac37","false","false","Rabbit","https://kisumu-drawings.s3-us-west-1.amazonaws.com/42-010.png","4","Cat","42-010.png"
"","51835","image-button-response","72","null","1622315","685c6ca90f751d3aae6b1794","685c70aab6fdfd3cc0473965","67dd47c1ba37fed0188bac37","false","false","Tree","https://kisumu-drawings.s3-us-west-1.amazonaws.com/70-015.png","10","Tree","70-015.png"
"","12507","image-button-response","73","null","1635331","685c6ca90f751d3aae6b1794","685c70aab6fdfd3cc0473965","67dd47c1ba37fed0188bac37","false","false","Cup","https://kisumu-drawings.s3-us-west-1.amazonaws.com/18-015.png","10","Tree","18-015.png"
"","932","image-button-response","74","null","1636771","685c6ca90f751d3aae6b1794","685c70aab6fdfd3cc0473965","67dd47c1ba37fed0188bac37","false","false","Cat","https://kisumu-drawings.s3-us-west-1.amazonaws.com/53-007.png","9","Rabbit","53-007.png"
"","7747","image-button-response","75","null","1645040","685c6ca90f751d3aae6b1794","685c70aab6fdfd3cc0473965","67dd47c1ba37fed0188bac37","false","false","House","https://kisumu-drawings.s3-us-west-1.amazonaws.com/90-016.png","8","House","90-016.png"
