"view_history","rt","trial_type","trial_index","plugin_version","time_elapsed","study_id","session_id","participant_id","catch_trial","prep_trial","sketcher_category","stimulus","response","response_category","sketch_id"
"[{""page_index"":0,""viewing_time"":5754},{""page_index"":1,""viewing_time"":3791},{""page_index"":2,""viewing_time"":8928},{""page_index"":3,""viewing_time"":6624}]","25097","instructions","0","null","25111","685c6ca90f751d3aae6b1794","685c6e10f49183c03b27bb7e","67dd8fbb2dd5af426c27c46c","","","","","","",""
"","6334","image-button-response","1","null","32455","685c6ca90f751d3aae6b1794","685c6e10f49183c03b27bb7e","67dd8fbb2dd5af426c27c46c","false","true","car","stimuli/prep_trials/1_car_prep.png","3","Car",""
"","3918","image-button-response","2","null","36886","685c6ca90f751d3aae6b1794","685c6e10f49183c03b27bb7e","67dd8fbb2dd5af426c27c46c","false","true","cat","stimuli/prep_trials/0_cat_prep.jpg","4","Cat",""
"","60042","image-button-response","3","null","97438","685c6ca90f751d3aae6b1794","685c6e10f49183c03b27bb7e","67dd8fbb2dd5af426c27c46c","false","false","Airplane","https://kisumu-drawings.s3-us-west-1.amazonaws.com/48-009.png","10","Tree","48-009.png"
"","13286","image-button-response","4","null","111230","685c6ca90f751d3aae6b1794","685c6e10f49183c03b27bb7e","67dd8fbb2dd5af426c27c46c","false","false","Chair","https://kisumu-drawings.s3-us-west-1.amazonaws.com/101-009.png","5","Chair","101-009.png"
"","24901","image-button-response","5","null","136647","685c6ca90f751d3aae6b1794","685c6e10f49183c03b27bb7e","67dd8fbb2dd5af426c27c46c","false","false","Airplane","https://kisumu-drawings.s3-us-west-1.amazonaws.com/119-012.png","0","Airplane","119-012.png"
"","10172","image-button-response","6","null","147326","685c6ca90f751d3aae6b1794","685c6e10f49183c03b27bb7e","67dd8fbb2dd5af426c27c46c","false","false","Bird","https://kisumu-drawings.s3-us-west-1.amazonaws.com/101-012.png","2","Bird","101-012.png"
"","24812","image-button-response","7","null","172646","685c6ca90f751d3aae6b1794","685c6e10f49183c03b27bb7e","67dd8fbb2dd5af426c27c46c","false","false","Rabbit","https://kisumu-drawings.s3-us-west-1.amazonaws.com/49-016.png","4","Cat","49-016.png"
"","20839","image-button-response","8","null","193990","685c6ca90f751d3aae6b1794","685c6e10f49183c03b27bb7e","67dd8fbb2dd5af426c27c46c","false","false","Tree","https://kisumu-drawings.s3-us-west-1.amazonaws.com/80-014.png","10","Tree","80-014.png"
"","37357","image-button-response","9","null","231854","685c6ca90f751d3aae6b1794","685c6e10f49183c03b27bb7e","67dd8fbb2dd5af426c27c46c","false","false","Rabbit","https://kisumu-drawings.s3-us-west-1.amazonaws.com/1-010.png","11","Watch","1-010.png"
"","12860","image-button-response","10","null","245222","685c6ca90f751d3aae6b1794","685c6e10f49183c03b27bb7e","67dd8fbb2dd5af426c27c46c","false","false","Cup","https://kisumu-drawings.s3-us-west-1.amazonaws.com/101-010.png","6","Cup","101-010.png"
"","17132","image-button-response","11","null","262870","685c6ca90f751d3aae6b1794","685c6e10f49183c03b27bb7e","67dd8fbb2dd5af426c27c46c","false","false","Bicycle","https://kisumu-drawings.s3-us-west-1.amazonaws.com/119-009.png","1","Bicycle","119-009.png"
"","25025","image-button-response","12","null","288406","685c6ca90f751d3aae6b1794","685c6e10f49183c03b27bb7e","67dd8fbb2dd5af426c27c46c","false","false","House","https://kisumu-drawings.s3-us-west-1.amazonaws.com/19-006.png","11","Watch","19-006.png"
"","11881","image-button-response","13","null","300790","685c6ca90f751d3aae6b1794","685c6e10f49183c03b27bb7e","67dd8fbb2dd5af426c27c46c","false","false","Chair","https://kisumu-drawings.s3-us-west-1.amazonaws.com/73-010.png","5","Chair","73-010.png"
"","70575","image-button-response","14","null","371878","685c6ca90f751d3aae6b1794","685c6e10f49183c03b27bb7e","67dd8fbb2dd5af426c27c46c","false","false","Tree","https://kisumu-drawings.s3-us-west-1.amazonaws.com/48-006.png","6","Cup","48-006.png"
"","12278","image-button-response","15","null","384662","685c6ca90f751d3aae6b1794","685c6e10f49183c03b27bb7e","67dd8fbb2dd5af426c27c46c","false","false","Cup","https://kisumu-drawings.s3-us-west-1.amazonaws.com/1-015.png","2","Bird","1-015.png"
"","7204","image-button-response","16","null","392374","685c6ca90f751d3aae6b1794","685c6e10f49183c03b27bb7e","67dd8fbb2dd5af426c27c46c","false","false","Hat","https://kisumu-drawings.s3-us-west-1.amazonaws.com/61-007.png","7","Hat","61-007.png"
"","9756","image-button-response","17","null","402646","685c6ca90f751d3aae6b1794","685c6e10f49183c03b27bb7e","67dd8fbb2dd5af426c27c46c","false","false","House","https://kisumu-drawings.s3-us-west-1.amazonaws.com/101-005.png","8","House","101-005.png"
"","15244","image-button-response","18","null","418406","685c6ca90f751d3aae6b1794","685c6e10f49183c03b27bb7e","67dd8fbb2dd5af426c27c46c","false","false","Rabbit","https://kisumu-drawings.s3-us-west-1.amazonaws.com/88-008.png","4","Cat","88-008.png"
"","12110","image-button-response","19","null","431023","685c6ca90f751d3aae6b1794","685c6e10f49183c03b27bb7e","67dd8fbb2dd5af426c27c46c","false","false","Cat","https://kisumu-drawings.s3-us-west-1.amazonaws.com/88-013.png","4","Cat","88-013.png"
"","22198","image-button-response","20","null","453734","685c6ca90f751d3aae6b1794","685c6e10f49183c03b27bb7e","67dd8fbb2dd5af426c27c46c","false","false","Car","https://kisumu-drawings.s3-us-west-1.amazonaws.com/1-011.png","9","Rabbit","1-011.png"
"","17929","image-button-response","21","null","472174","685c6ca90f751d3aae6b1794","685c6e10f49183c03b27bb7e","67dd8fbb2dd5af426c27c46c","false","false","Watch","https://kisumu-drawings.s3-us-west-1.amazonaws.com/40-015.png","6","Cup","40-015.png"
"","10948","image-button-response","22","null","483630","685c6ca90f751d3aae6b1794","685c6e10f49183c03b27bb7e","67dd8fbb2dd5af426c27c46c","false","false","Car","https://kisumu-drawings.s3-us-west-1.amazonaws.com/101-013.png","3","Car","101-013.png"
"","14476","image-button-response","23","null","498614","685c6ca90f751d3aae6b1794","685c6e10f49183c03b27bb7e","67dd8fbb2dd5af426c27c46c","false","false","Car","https://kisumu-drawings.s3-us-west-1.amazonaws.com/49-009.png","3","Car","49-009.png"
"","7459","image-button-response","24","null","506583","685c6ca90f751d3aae6b1794","685c6e10f49183c03b27bb7e","67dd8fbb2dd5af426c27c46c","false","false","Cup","https://kisumu-drawings.s3-us-west-1.amazonaws.com/61-016.png","6","Cup","61-016.png"
"","16848","image-button-response","25","null","523934","685c6ca90f751d3aae6b1794","685c6e10f49183c03b27bb7e","67dd8fbb2dd5af426c27c46c","false","false","Bicycle","https://kisumu-drawings.s3-us-west-1.amazonaws.com/1-013.png","2","Bird","1-013.png"
"","28754","image-button-response","26","null","553198","685c6ca90f751d3aae6b1794","685c6e10f49183c03b27bb7e","67dd8fbb2dd5af426c27c46c","false","false","Airplane","https://kisumu-drawings.s3-us-west-1.amazonaws.com/19-013.png","5","Chair","19-013.png"
"","8009","image-button-response","27","null","561710","685c6ca90f751d3aae6b1794","685c6e10f49183c03b27bb7e","67dd8fbb2dd5af426c27c46c","false","false","Chair","https://kisumu-drawings.s3-us-west-1.amazonaws.com/1-008.png","2","Bird","1-008.png"
"","13434","image-button-response","28","null","575654","685c6ca90f751d3aae6b1794","685c6e10f49183c03b27bb7e","67dd8fbb2dd5af426c27c46c","false","false","Hat","https://kisumu-drawings.s3-us-west-1.amazonaws.com/49-006.png","7","Hat","49-006.png"
"","2901","image-button-response","29","null","579071","685c6ca90f751d3aae6b1794","685c6e10f49183c03b27bb7e","67dd8fbb2dd5af426c27c46c","true","false","airplane","stimuli/catch_trials/0_airplane_catch.jpg","0","Airplane",""
"","12999","image-button-response","30","null","592574","685c6ca90f751d3aae6b1794","685c6e10f49183c03b27bb7e","67dd8fbb2dd5af426c27c46c","false","false","Tree","https://kisumu-drawings.s3-us-west-1.amazonaws.com/120-013.png","10","Tree","120-013.png"
"","11104","image-button-response","31","null","604182","685c6ca90f751d3aae6b1794","685c6e10f49183c03b27bb7e","67dd8fbb2dd5af426c27c46c","false","false","Cup","https://kisumu-drawings.s3-us-west-1.amazonaws.com/88-012.png","6","Cup","88-012.png"
"","6524","image-button-response","32","null","611221","685c6ca90f751d3aae6b1794","685c6e10f49183c03b27bb7e","67dd8fbb2dd5af426c27c46c","false","false","Car","https://kisumu-drawings.s3-us-west-1.amazonaws.com/61-012.png","3","Car","61-012.png"
"","10063","image-button-response","33","null","621798","685c6ca90f751d3aae6b1794","685c6e10f49183c03b27bb7e","67dd8fbb2dd5af426c27c46c","false","false","Watch","https://kisumu-drawings.s3-us-west-1.amazonaws.com/47-012.png","11","Watch","47-012.png"
"","12004","image-button-response","34","null","634318","685c6ca90f751d3aae6b1794","685c6e10f49183c03b27bb7e","67dd8fbb2dd5af426c27c46c","false","false","Hat","https://kisumu-drawings.s3-us-west-1.amazonaws.com/19-005.png","10","Tree","19-005.png"
"","8395","image-button-response","35","null","643222","685c6ca90f751d3aae6b1794","685c6e10f49183c03b27bb7e","67dd8fbb2dd5af426c27c46c","false","false","Cat","https://kisumu-drawings.s3-us-west-1.amazonaws.com/1-012.png","2","Bird","1-012.png"
"","13435","image-button-response","36","null","657166","685c6ca90f751d3aae6b1794","685c6e10f49183c03b27bb7e","67dd8fbb2dd5af426c27c46c","false","false","Bird","https://kisumu-drawings.s3-us-west-1.amazonaws.com/48-008.png","7","Hat","48-008.png"
"","8212","image-button-response","37","null","665886","685c6ca90f751d3aae6b1794","685c6e10f49183c03b27bb7e","67dd8fbb2dd5af426c27c46c","false","false","Chair","https://kisumu-drawings.s3-us-west-1.amazonaws.com/21-006.png","5","Chair","21-006.png"
"","4427","image-button-response","38","null","670822","685c6ca90f751d3aae6b1794","685c6e10f49183c03b27bb7e","67dd8fbb2dd5af426c27c46c","false","false","Tree","https://kisumu-drawings.s3-us-west-1.amazonaws.com/87-009.png","4","Cat","87-009.png"
"","4766","image-button-response","39","null","676094","685c6ca90f751d3aae6b1794","685c6e10f49183c03b27bb7e","67dd8fbb2dd5af426c27c46c","false","false","House","https://kisumu-drawings.s3-us-west-1.amazonaws.com/92-013.png","4","Cat","92-013.png"
"","16719","image-button-response","40","null","693319","685c6ca90f751d3aae6b1794","685c6e10f49183c03b27bb7e","67dd8fbb2dd5af426c27c46c","false","false","Bird","https://kisumu-drawings.s3-us-west-1.amazonaws.com/19-012.png","2","Bird","19-012.png"
"","9129","image-button-response","41","null","702958","685c6ca90f751d3aae6b1794","685c6e10f49183c03b27bb7e","67dd8fbb2dd5af426c27c46c","false","false","Chair","https://kisumu-drawings.s3-us-west-1.amazonaws.com/49-005.png","7","Hat","49-005.png"
"","11112","image-button-response","42","null","714573","685c6ca90f751d3aae6b1794","685c6e10f49183c03b27bb7e","67dd8fbb2dd5af426c27c46c","false","false","Rabbit","https://kisumu-drawings.s3-us-west-1.amazonaws.com/21-011.png","4","Cat","21-011.png"
"","10399","image-button-response","43","null","725478","685c6ca90f751d3aae6b1794","685c6e10f49183c03b27bb7e","67dd8fbb2dd5af426c27c46c","false","false","House","https://kisumu-drawings.s3-us-west-1.amazonaws.com/61-008.png","8","House","61-008.png"
"","13477","image-button-response","44","null","739462","685c6ca90f751d3aae6b1794","685c6e10f49183c03b27bb7e","67dd8fbb2dd5af426c27c46c","false","false","Bird","https://kisumu-drawings.s3-us-west-1.amazonaws.com/88-015.png","9","Rabbit","88-015.png"
"","7816","image-button-response","45","null","747782","685c6ca90f751d3aae6b1794","685c6e10f49183c03b27bb7e","67dd8fbb2dd5af426c27c46c","false","false","Hat","https://kisumu-drawings.s3-us-west-1.amazonaws.com/21-008.png","6","Cup","21-008.png"
"","7724","image-button-response","46","null","756015","685c6ca90f751d3aae6b1794","685c6e10f49183c03b27bb7e","67dd8fbb2dd5af426c27c46c","false","false","Cat","https://kisumu-drawings.s3-us-west-1.amazonaws.com/61-013.png","4","Cat","61-013.png"
"","10603","image-button-response","47","null","767134","685c6ca90f751d3aae6b1794","685c6e10f49183c03b27bb7e","67dd8fbb2dd5af426c27c46c","false","false","Tree","https://kisumu-drawings.s3-us-west-1.amazonaws.com/21-015.png","10","Tree","21-015.png"
"","9768","image-button-response","48","null","777406","685c6ca90f751d3aae6b1794","685c6e10f49183c03b27bb7e","67dd8fbb2dd5af426c27c46c","false","false","Hat","https://kisumu-drawings.s3-us-west-1.amazonaws.com/96-008.png","7","Hat","96-008.png"
"","10455","image-button-response","49","null","788374","685c6ca90f751d3aae6b1794","685c6e10f49183c03b27bb7e","67dd8fbb2dd5af426c27c46c","false","false","Bird","https://kisumu-drawings.s3-us-west-1.amazonaws.com/21-013.png","4","Cat","21-013.png"
"","10114","image-button-response","50","null","798991","685c6ca90f751d3aae6b1794","685c6e10f49183c03b27bb7e","67dd8fbb2dd5af426c27c46c","false","false","Airplane","https://kisumu-drawings.s3-us-west-1.amazonaws.com/40-012.png","2","Bird","40-012.png"
"","11590","image-button-response","51","null","811087","685c6ca90f751d3aae6b1794","685c6e10f49183c03b27bb7e","67dd8fbb2dd5af426c27c46c","false","false","Car","https://kisumu-drawings.s3-us-west-1.amazonaws.com/82-014.png","3","Car","82-014.png"
"","12058","image-button-response","52","null","823662","685c6ca90f751d3aae6b1794","685c6e10f49183c03b27bb7e","67dd8fbb2dd5af426c27c46c","false","false","Rabbit","https://kisumu-drawings.s3-us-west-1.amazonaws.com/61-009.png","9","Rabbit","61-009.png"
"","6570","image-button-response","53","null","830750","685c6ca90f751d3aae6b1794","685c6e10f49183c03b27bb7e","67dd8fbb2dd5af426c27c46c","false","false","Car","https://kisumu-drawings.s3-us-west-1.amazonaws.com/21-014.png","8","House","21-014.png"
"","11186","image-button-response","54","null","842454","685c6ca90f751d3aae6b1794","685c6e10f49183c03b27bb7e","67dd8fbb2dd5af426c27c46c","false","false","Bicycle","https://kisumu-drawings.s3-us-west-1.amazonaws.com/40-006.png","10","Tree","40-006.png"
"","10557","image-button-response","55","null","853518","685c6ca90f751d3aae6b1794","685c6e10f49183c03b27bb7e","67dd8fbb2dd5af426c27c46c","false","false","Watch","https://kisumu-drawings.s3-us-west-1.amazonaws.com/86-013.png","11","Watch","86-013.png"
"","12986","image-button-response","56","null","867006","685c6ca90f751d3aae6b1794","685c6e10f49183c03b27bb7e","67dd8fbb2dd5af426c27c46c","false","false","Tree","https://kisumu-drawings.s3-us-west-1.amazonaws.com/1-005.png","10","Tree","1-005.png"
"","6802","image-button-response","57","null","874325","685c6ca90f751d3aae6b1794","685c6e10f49183c03b27bb7e","67dd8fbb2dd5af426c27c46c","false","false","Bird","https://kisumu-drawings.s3-us-west-1.amazonaws.com/61-006.png","2","Bird","61-006.png"
"","9386","image-button-response","58","null","884222","685c6ca90f751d3aae6b1794","685c6e10f49183c03b27bb7e","67dd8fbb2dd5af426c27c46c","false","false","Watch","https://kisumu-drawings.s3-us-west-1.amazonaws.com/120-014.png","6","Cup","120-014.png"
"","7590","image-button-response","59","null","892326","685c6ca90f751d3aae6b1794","685c6e10f49183c03b27bb7e","67dd8fbb2dd5af426c27c46c","false","false","House","https://kisumu-drawings.s3-us-west-1.amazonaws.com/21-010.png","8","House","21-010.png"
"","10916","image-button-response","60","null","903750","685c6ca90f751d3aae6b1794","685c6e10f49183c03b27bb7e","67dd8fbb2dd5af426c27c46c","false","false","Chair","https://kisumu-drawings.s3-us-west-1.amazonaws.com/88-014.png","5","Chair","88-014.png"
"","14050","image-button-response","61","null","918310","685c6ca90f751d3aae6b1794","685c6e10f49183c03b27bb7e","67dd8fbb2dd5af426c27c46c","false","false","Rabbit","https://kisumu-drawings.s3-us-west-1.amazonaws.com/101-006.png","4","Cat","101-006.png"
"","13070","image-button-response","62","null","931893","685c6ca90f751d3aae6b1794","685c6e10f49183c03b27bb7e","67dd8fbb2dd5af426c27c46c","false","false","Watch","https://kisumu-drawings.s3-us-west-1.amazonaws.com/79-007.png","11","Watch","79-007.png"
"","11250","image-button-response","63","null","943646","685c6ca90f751d3aae6b1794","685c6e10f49183c03b27bb7e","67dd8fbb2dd5af426c27c46c","false","false","Hat","https://kisumu-drawings.s3-us-west-1.amazonaws.com/103-009.png","7","Hat","103-009.png"
"","11225","image-button-response","64","null","955374","685c6ca90f751d3aae6b1794","685c6e10f49183c03b27bb7e","67dd8fbb2dd5af426c27c46c","false","false","Cat","https://kisumu-drawings.s3-us-west-1.amazonaws.com/101-011.png","4","Cat","101-011.png"
"","12175","image-button-response","65","null","968054","685c6ca90f751d3aae6b1794","685c6e10f49183c03b27bb7e","67dd8fbb2dd5af426c27c46c","false","false","Bicycle","https://kisumu-drawings.s3-us-west-1.amazonaws.com/48-010.png","3","Car","48-010.png"
"","11181","image-button-response","66","null","979742","685c6ca90f751d3aae6b1794","685c6e10f49183c03b27bb7e","67dd8fbb2dd5af426c27c46c","false","false","Cat","https://kisumu-drawings.s3-us-west-1.amazonaws.com/30-009.png","2","Bird","30-009.png"
"","7506","image-button-response","67","null","987758","685c6ca90f751d3aae6b1794","685c6e10f49183c03b27bb7e","67dd8fbb2dd5af426c27c46c","false","false","Cup","https://kisumu-drawings.s3-us-west-1.amazonaws.com/21-007.png","6","Cup","21-007.png"
"","13367","image-button-response","68","null","1001630","685c6ca90f751d3aae6b1794","685c6e10f49183c03b27bb7e","67dd8fbb2dd5af426c27c46c","false","false","Airplane","https://kisumu-drawings.s3-us-west-1.amazonaws.com/80-009.png","0","Airplane","80-009.png"
"","24804","image-button-response","69","null","1026942","685c6ca90f751d3aae6b1794","685c6e10f49183c03b27bb7e","67dd8fbb2dd5af426c27c46c","false","false","Cat","https://kisumu-drawings.s3-us-west-1.amazonaws.com/44-014.png","5","Chair","44-014.png"
"","13215","image-button-response","70","null","1040662","685c6ca90f751d3aae6b1794","685c6e10f49183c03b27bb7e","67dd8fbb2dd5af426c27c46c","false","false","Bicycle","https://kisumu-drawings.s3-us-west-1.amazonaws.com/80-010.png","3","Car","80-010.png"
"","12321","image-button-response","71","null","1053495","685c6ca90f751d3aae6b1794","685c6e10f49183c03b27bb7e","67dd8fbb2dd5af426c27c46c","false","false","Airplane","https://kisumu-drawings.s3-us-west-1.amazonaws.com/88-006.png","9","Rabbit","88-006.png"
"","10875","image-button-response","72","null","1064886","685c6ca90f751d3aae6b1794","685c6e10f49183c03b27bb7e","67dd8fbb2dd5af426c27c46c","false","false","Cup","https://kisumu-drawings.s3-us-west-1.amazonaws.com/49-013.png","6","Cup","49-013.png"
"","14097","image-button-response","73","null","1079494","685c6ca90f751d3aae6b1794","685c6e10f49183c03b27bb7e","67dd8fbb2dd5af426c27c46c","false","false","Bicycle","https://kisumu-drawings.s3-us-west-1.amazonaws.com/87-015.png","3","Car","87-015.png"
"","11361","image-button-response","74","null","1091358","685c6ca90f751d3aae6b1794","685c6e10f49183c03b27bb7e","67dd8fbb2dd5af426c27c46c","false","false","Watch","https://kisumu-drawings.s3-us-west-1.amazonaws.com/18-008.png","8","House","18-008.png"
"","10398","image-button-response","75","null","1102262","685c6ca90f751d3aae6b1794","685c6e10f49183c03b27bb7e","67dd8fbb2dd5af426c27c46c","false","false","House","https://kisumu-drawings.s3-us-west-1.amazonaws.com/49-007.png","8","House","49-007.png"
