"view_history","rt","trial_type","trial_index","plugin_version","time_elapsed","study_id","session_id","participant_id","catch_trial","prep_trial","sketcher_category","stimulus","response","response_category","sketch_id"
"[{""page_index"":0,""viewing_time"":675740},{""page_index"":1,""viewing_time"":636},{""page_index"":2,""viewing_time"":919},{""page_index"":3,""viewing_time"":983}]","678278","instructions","0","null","678298","685c6ca90f751d3aae6b1794","685c70c17ca976132efd646a","67ddf0d78b09b4dce35030d9","","","","","","",""
"","3180","image-button-response","1","null","682492","685c6ca90f751d3aae6b1794","685c70c17ca976132efd646a","67ddf0d78b09b4dce35030d9","false","true","car","stimuli/prep_trials/1_car_prep.png","3","Car",""
"","2106","image-button-response","2","null","685117","685c6ca90f751d3aae6b1794","685c70c17ca976132efd646a","67ddf0d78b09b4dce35030d9","false","true","cat","stimuli/prep_trials/0_cat_prep.jpg","4","Cat",""
"","16774","image-button-response","3","null","702408","685c6ca90f751d3aae6b1794","685c70c17ca976132efd646a","67ddf0d78b09b4dce35030d9","false","false","Rabbit","https://kisumu-drawings.s3-us-west-1.amazonaws.com/14-006.png","4","Cat","14-006.png"
"","87738","image-button-response","4","null","790656","685c6ca90f751d3aae6b1794","685c70c17ca976132efd646a","67ddf0d78b09b4dce35030d9","false","false","Chair","https://kisumu-drawings.s3-us-west-1.amazonaws.com/11-013.png","10","Tree","11-013.png"
"","27161","image-button-response","5","null","818332","685c6ca90f751d3aae6b1794","685c70c17ca976132efd646a","67ddf0d78b09b4dce35030d9","false","false","Bicycle","https://kisumu-drawings.s3-us-west-1.amazonaws.com/26-005.png","1","Bicycle","26-005.png"
"","10080","image-button-response","6","null","828919","685c6ca90f751d3aae6b1794","685c70c17ca976132efd646a","67ddf0d78b09b4dce35030d9","false","false","Cup","https://kisumu-drawings.s3-us-west-1.amazonaws.com/32-016.png","9","Rabbit","32-016.png"
"","8212","image-button-response","7","null","837644","685c6ca90f751d3aae6b1794","685c70c17ca976132efd646a","67ddf0d78b09b4dce35030d9","false","false","Watch","https://kisumu-drawings.s3-us-west-1.amazonaws.com/22-010.png","3","Car","22-010.png"
"","748","image-button-response","8","null","838897","685c6ca90f751d3aae6b1794","685c70c17ca976132efd646a","67ddf0d78b09b4dce35030d9","false","false","Cat","https://kisumu-drawings.s3-us-west-1.amazonaws.com/14-014.png","9","Rabbit","14-014.png"
"","20851","image-button-response","9","null","860269","685c6ca90f751d3aae6b1794","685c70c17ca976132efd646a","67ddf0d78b09b4dce35030d9","false","false","Bird","https://kisumu-drawings.s3-us-west-1.amazonaws.com/43-009.png","9","Rabbit","43-009.png"
"","9940","image-button-response","10","null","870712","685c6ca90f751d3aae6b1794","685c70c17ca976132efd646a","67ddf0d78b09b4dce35030d9","false","false","Rabbit","https://kisumu-drawings.s3-us-west-1.amazonaws.com/84-015.png","9","Rabbit","84-015.png"
"","13489","image-button-response","11","null","884718","685c6ca90f751d3aae6b1794","685c70c17ca976132efd646a","67ddf0d78b09b4dce35030d9","false","false","Tree","https://kisumu-drawings.s3-us-west-1.amazonaws.com/36-006.png","5","Chair","36-006.png"
"","14021","image-button-response","12","null","899244","685c6ca90f751d3aae6b1794","685c70c17ca976132efd646a","67ddf0d78b09b4dce35030d9","false","false","Cat","https://kisumu-drawings.s3-us-west-1.amazonaws.com/88-013.png","9","Rabbit","88-013.png"
"","36648","image-button-response","13","null","936409","685c6ca90f751d3aae6b1794","685c70c17ca976132efd646a","67ddf0d78b09b4dce35030d9","false","false","Cup","https://kisumu-drawings.s3-us-west-1.amazonaws.com/17-014.png","6","Cup","17-014.png"
"","18563","image-button-response","14","null","955481","685c6ca90f751d3aae6b1794","685c70c17ca976132efd646a","67ddf0d78b09b4dce35030d9","false","false","Hat","https://kisumu-drawings.s3-us-west-1.amazonaws.com/87-011.png","11","Watch","87-011.png"
"","23439","image-button-response","15","null","979447","685c6ca90f751d3aae6b1794","685c70c17ca976132efd646a","67ddf0d78b09b4dce35030d9","false","false","Cup","https://kisumu-drawings.s3-us-west-1.amazonaws.com/103-006.png","6","Cup","103-006.png"
"","19480","image-button-response","16","null","999444","685c6ca90f751d3aae6b1794","685c70c17ca976132efd646a","67ddf0d78b09b4dce35030d9","false","false","Cat","https://kisumu-drawings.s3-us-west-1.amazonaws.com/64-006.png","2","Bird","64-006.png"
"","16727","image-button-response","17","null","1016676","685c6ca90f751d3aae6b1794","685c70c17ca976132efd646a","67ddf0d78b09b4dce35030d9","false","false","Bird","https://kisumu-drawings.s3-us-west-1.amazonaws.com/113-016.png","2","Bird","113-016.png"
"","23944","image-button-response","18","null","1041127","685c6ca90f751d3aae6b1794","685c70c17ca976132efd646a","67ddf0d78b09b4dce35030d9","false","false","House","https://kisumu-drawings.s3-us-west-1.amazonaws.com/73-013.png","8","House","73-013.png"
"","29379","image-button-response","19","null","1071020","685c6ca90f751d3aae6b1794","685c70c17ca976132efd646a","67ddf0d78b09b4dce35030d9","false","false","Airplane","https://kisumu-drawings.s3-us-west-1.amazonaws.com/112-015.png","0","Airplane","112-015.png"
"","19974","image-button-response","20","null","1091499","685c6ca90f751d3aae6b1794","685c70c17ca976132efd646a","67ddf0d78b09b4dce35030d9","false","false","Bicycle","https://kisumu-drawings.s3-us-west-1.amazonaws.com/109-016.png","1","Bicycle","109-016.png"
"","9591","image-button-response","21","null","1101607","685c6ca90f751d3aae6b1794","685c70c17ca976132efd646a","67ddf0d78b09b4dce35030d9","false","false","Rabbit","https://kisumu-drawings.s3-us-west-1.amazonaws.com/68-005.png","9","Rabbit","68-005.png"
"","8788","image-button-response","22","null","1110911","685c6ca90f751d3aae6b1794","685c70c17ca976132efd646a","67ddf0d78b09b4dce35030d9","false","false","Tree","https://kisumu-drawings.s3-us-west-1.amazonaws.com/14-007.png","2","Bird","14-007.png"
"","13610","image-button-response","23","null","1125042","685c6ca90f751d3aae6b1794","685c70c17ca976132efd646a","67ddf0d78b09b4dce35030d9","false","false","Cup","https://kisumu-drawings.s3-us-west-1.amazonaws.com/48-015.png","11","Watch","48-015.png"
"","14911","image-button-response","24","null","1140471","685c6ca90f751d3aae6b1794","685c70c17ca976132efd646a","67ddf0d78b09b4dce35030d9","false","false","House","https://kisumu-drawings.s3-us-west-1.amazonaws.com/5-013.png","9","Rabbit","5-013.png"
"","17323","image-button-response","25","null","1158303","685c6ca90f751d3aae6b1794","685c70c17ca976132efd646a","67ddf0d78b09b4dce35030d9","false","false","Tree","https://kisumu-drawings.s3-us-west-1.amazonaws.com/95-014.png","10","Tree","95-014.png"
"","11873","image-button-response","26","null","1170683","685c6ca90f751d3aae6b1794","685c70c17ca976132efd646a","67ddf0d78b09b4dce35030d9","false","false","Hat","https://kisumu-drawings.s3-us-west-1.amazonaws.com/48-016.png","5","Chair","48-016.png"
"","27228","image-button-response","27","null","1198414","685c6ca90f751d3aae6b1794","685c70c17ca976132efd646a","67ddf0d78b09b4dce35030d9","false","false","Airplane","https://kisumu-drawings.s3-us-west-1.amazonaws.com/55-014.png","0","Airplane","55-014.png"
"","21225","image-button-response","28","null","1220145","685c6ca90f751d3aae6b1794","685c70c17ca976132efd646a","67ddf0d78b09b4dce35030d9","false","false","Bicycle","https://kisumu-drawings.s3-us-west-1.amazonaws.com/68-009.png","1","Bicycle","68-009.png"
"","45480","image-button-response","29","null","1266140","685c6ca90f751d3aae6b1794","685c70c17ca976132efd646a","67ddf0d78b09b4dce35030d9","false","false","Car","https://kisumu-drawings.s3-us-west-1.amazonaws.com/57-013.png","3","Car","57-013.png"
"","57894","image-button-response","30","null","1324552","685c6ca90f751d3aae6b1794","685c70c17ca976132efd646a","67ddf0d78b09b4dce35030d9","false","false","Bird","https://kisumu-drawings.s3-us-west-1.amazonaws.com/36-016.png","9","Rabbit","36-016.png"
"","13875","image-button-response","31","null","1338944","685c6ca90f751d3aae6b1794","685c70c17ca976132efd646a","67ddf0d78b09b4dce35030d9","false","false","Bicycle","https://kisumu-drawings.s3-us-west-1.amazonaws.com/56-007.png","1","Bicycle","56-007.png"
"","38540","image-button-response","32","null","1377995","685c6ca90f751d3aae6b1794","685c70c17ca976132efd646a","67ddf0d78b09b4dce35030d9","false","false","Chair","https://kisumu-drawings.s3-us-west-1.amazonaws.com/76-009.png","11","Watch","76-009.png"
"","113022","image-button-response","33","null","1491528","685c6ca90f751d3aae6b1794","685c70c17ca976132efd646a","67ddf0d78b09b4dce35030d9","false","false","Tree","https://kisumu-drawings.s3-us-west-1.amazonaws.com/79-006.png","4","Cat","79-006.png"
"","664","image-button-response","34","null","1492710","685c6ca90f751d3aae6b1794","685c70c17ca976132efd646a","67ddf0d78b09b4dce35030d9","false","false","Bicycle","https://kisumu-drawings.s3-us-west-1.amazonaws.com/93-013.png","9","Rabbit","93-013.png"
"","547","image-button-response","35","null","1493774","685c6ca90f751d3aae6b1794","685c70c17ca976132efd646a","67ddf0d78b09b4dce35030d9","false","false","Car","https://kisumu-drawings.s3-us-west-1.amazonaws.com/36-011.png","10","Tree","36-011.png"
"","578","image-button-response","36","null","1494861","685c6ca90f751d3aae6b1794","685c70c17ca976132efd646a","67ddf0d78b09b4dce35030d9","false","false","Car","https://kisumu-drawings.s3-us-west-1.amazonaws.com/61-012.png","3","Car","61-012.png"
"","552","image-button-response","37","null","1495929","685c6ca90f751d3aae6b1794","685c70c17ca976132efd646a","67ddf0d78b09b4dce35030d9","false","false","House","https://kisumu-drawings.s3-us-west-1.amazonaws.com/40-011.png","4","Cat","40-011.png"
"","824","image-button-response","38","null","1497261","685c6ca90f751d3aae6b1794","685c70c17ca976132efd646a","67ddf0d78b09b4dce35030d9","false","false","Chair","https://kisumu-drawings.s3-us-west-1.amazonaws.com/33-013.png","8","House","33-013.png"
"","791","image-button-response","39","null","1498556","685c6ca90f751d3aae6b1794","685c70c17ca976132efd646a","67ddf0d78b09b4dce35030d9","false","false","Watch","https://kisumu-drawings.s3-us-west-1.amazonaws.com/61-011.png","9","Rabbit","61-011.png"
"","495","image-button-response","40","null","1499554","685c6ca90f751d3aae6b1794","685c70c17ca976132efd646a","67ddf0d78b09b4dce35030d9","false","false","House","https://kisumu-drawings.s3-us-west-1.amazonaws.com/113-007.png","10","Tree","113-007.png"
"","1180","image-button-response","41","null","1501251","685c6ca90f751d3aae6b1794","685c70c17ca976132efd646a","67ddf0d78b09b4dce35030d9","false","false","Bird","https://kisumu-drawings.s3-us-west-1.amazonaws.com/9-011.png","0","Airplane","9-011.png"
"","766","image-button-response","42","null","1502534","685c6ca90f751d3aae6b1794","685c70c17ca976132efd646a","67ddf0d78b09b4dce35030d9","false","false","Watch","https://kisumu-drawings.s3-us-west-1.amazonaws.com/88-005.png","2","Bird","88-005.png"
"","619","image-button-response","43","null","1503668","685c6ca90f751d3aae6b1794","685c70c17ca976132efd646a","67ddf0d78b09b4dce35030d9","false","false","Hat","https://kisumu-drawings.s3-us-west-1.amazonaws.com/1-016.png","4","Cat","1-016.png"
"","54523","image-button-response","44","null","1558695","685c6ca90f751d3aae6b1794","685c70c17ca976132efd646a","67ddf0d78b09b4dce35030d9","false","false","Car","https://kisumu-drawings.s3-us-west-1.amazonaws.com/14-010.png","3","Car","14-010.png"
"","615","image-button-response","45","null","1559820","685c6ca90f751d3aae6b1794","685c70c17ca976132efd646a","67ddf0d78b09b4dce35030d9","false","false","Bird","https://kisumu-drawings.s3-us-west-1.amazonaws.com/82-013.png","3","Car","82-013.png"
"","727","image-button-response","46","null","1561056","685c6ca90f751d3aae6b1794","685c70c17ca976132efd646a","67ddf0d78b09b4dce35030d9","false","false","Airplane","https://kisumu-drawings.s3-us-west-1.amazonaws.com/28-006.png","4","Cat","28-006.png"
"","96381","image-button-response","47","null","1657945","685c6ca90f751d3aae6b1794","685c70c17ca976132efd646a","67ddf0d78b09b4dce35030d9","false","false","Cup","https://kisumu-drawings.s3-us-west-1.amazonaws.com/89-008.png","6","Cup","89-008.png"
"","554","image-button-response","48","null","1659011","685c6ca90f751d3aae6b1794","685c70c17ca976132efd646a","67ddf0d78b09b4dce35030d9","false","false","Cup","https://kisumu-drawings.s3-us-west-1.amazonaws.com/66-015.png","3","Car","66-015.png"
"","457","image-button-response","49","null","1659972","685c6ca90f751d3aae6b1794","685c70c17ca976132efd646a","67ddf0d78b09b4dce35030d9","false","false","House","https://kisumu-drawings.s3-us-west-1.amazonaws.com/50-007.png","4","Cat","50-007.png"
"","467","image-button-response","50","null","1660943","685c6ca90f751d3aae6b1794","685c70c17ca976132efd646a","67ddf0d78b09b4dce35030d9","false","false","Chair","https://kisumu-drawings.s3-us-west-1.amazonaws.com/85-009.png","11","Watch","85-009.png"
"","462","image-button-response","51","null","1661908","685c6ca90f751d3aae6b1794","685c70c17ca976132efd646a","67ddf0d78b09b4dce35030d9","false","false","Airplane","https://kisumu-drawings.s3-us-west-1.amazonaws.com/65-006.png","9","Rabbit","65-006.png"
"","438","image-button-response","52","null","1662863","685c6ca90f751d3aae6b1794","685c70c17ca976132efd646a","67ddf0d78b09b4dce35030d9","false","false","Rabbit","https://kisumu-drawings.s3-us-west-1.amazonaws.com/107-005.png","2","Bird","107-005.png"
"","645","image-button-response","53","null","1664021","685c6ca90f751d3aae6b1794","685c70c17ca976132efd646a","67ddf0d78b09b4dce35030d9","false","false","Airplane","https://kisumu-drawings.s3-us-west-1.amazonaws.com/6-007.png","4","Cat","6-007.png"
"","636","image-button-response","54","null","1665160","685c6ca90f751d3aae6b1794","685c70c17ca976132efd646a","67ddf0d78b09b4dce35030d9","false","false","Car","https://kisumu-drawings.s3-us-west-1.amazonaws.com/97-014.png","4","Cat","97-014.png"
"","460","image-button-response","55","null","1666126","685c6ca90f751d3aae6b1794","685c70c17ca976132efd646a","67ddf0d78b09b4dce35030d9","false","false","Car","https://kisumu-drawings.s3-us-west-1.amazonaws.com/104-014.png","11","Watch","104-014.png"
"","559","image-button-response","56","null","1667189","685c6ca90f751d3aae6b1794","685c70c17ca976132efd646a","67ddf0d78b09b4dce35030d9","false","false","Watch","https://kisumu-drawings.s3-us-west-1.amazonaws.com/19-009.png","2","Bird","19-009.png"
"","2491","image-button-response","57","null","1670196","685c6ca90f751d3aae6b1794","685c70c17ca976132efd646a","67ddf0d78b09b4dce35030d9","false","false","Cat","https://kisumu-drawings.s3-us-west-1.amazonaws.com/108-015.png","4","Cat","108-015.png"
"","593","image-button-response","58","null","1671298","685c6ca90f751d3aae6b1794","685c70c17ca976132efd646a","67ddf0d78b09b4dce35030d9","false","false","Watch","https://kisumu-drawings.s3-us-west-1.amazonaws.com/49-015.png","2","Bird","49-015.png"
"","603","image-button-response","59","null","1672417","685c6ca90f751d3aae6b1794","685c70c17ca976132efd646a","67ddf0d78b09b4dce35030d9","false","false","Chair","https://kisumu-drawings.s3-us-west-1.amazonaws.com/56-010.png","9","Rabbit","56-010.png"
"","467","image-button-response","60","null","1673399","685c6ca90f751d3aae6b1794","685c70c17ca976132efd646a","67ddf0d78b09b4dce35030d9","true","false","airplane","stimuli/catch_trials/0_airplane_catch.jpg","10","Tree",""
"","459","image-button-response","61","null","1674367","685c6ca90f751d3aae6b1794","685c70c17ca976132efd646a","67ddf0d78b09b4dce35030d9","false","false","Rabbit","https://kisumu-drawings.s3-us-west-1.amazonaws.com/57-016.png","4","Cat","57-016.png"
"","496","image-button-response","62","null","1675374","685c6ca90f751d3aae6b1794","685c70c17ca976132efd646a","67ddf0d78b09b4dce35030d9","false","false","Hat","https://kisumu-drawings.s3-us-west-1.amazonaws.com/72-011.png","2","Bird","72-011.png"
"","1063","image-button-response","63","null","1676941","685c6ca90f751d3aae6b1794","685c70c17ca976132efd646a","67ddf0d78b09b4dce35030d9","false","false","Watch","https://kisumu-drawings.s3-us-west-1.amazonaws.com/119-015.png","6","Cup","119-015.png"
"","615","image-button-response","64","null","1678069","685c6ca90f751d3aae6b1794","685c70c17ca976132efd646a","67ddf0d78b09b4dce35030d9","false","false","Hat","https://kisumu-drawings.s3-us-west-1.amazonaws.com/27-015.png","10","Tree","27-015.png"
"","780","image-button-response","65","null","1679358","685c6ca90f751d3aae6b1794","685c70c17ca976132efd646a","67ddf0d78b09b4dce35030d9","false","false","Cat","https://kisumu-drawings.s3-us-west-1.amazonaws.com/55-012.png","11","Watch","55-012.png"
"","658","image-button-response","66","null","1680521","685c6ca90f751d3aae6b1794","685c70c17ca976132efd646a","67ddf0d78b09b4dce35030d9","false","false","Rabbit","https://kisumu-drawings.s3-us-west-1.amazonaws.com/30-014.png","4","Cat","30-014.png"
"","564","image-button-response","67","null","1681600","685c6ca90f751d3aae6b1794","685c70c17ca976132efd646a","67ddf0d78b09b4dce35030d9","false","false","Bicycle","https://kisumu-drawings.s3-us-west-1.amazonaws.com/15-012.png","3","Car","15-012.png"
"","702","image-button-response","68","null","1682814","685c6ca90f751d3aae6b1794","685c70c17ca976132efd646a","67ddf0d78b09b4dce35030d9","false","false","Cat","https://kisumu-drawings.s3-us-west-1.amazonaws.com/33-012.png","2","Bird","33-012.png"
"","696","image-button-response","69","null","1684025","685c6ca90f751d3aae6b1794","685c70c17ca976132efd646a","67ddf0d78b09b4dce35030d9","false","false","House","https://kisumu-drawings.s3-us-west-1.amazonaws.com/99-010.png","7","Hat","99-010.png"
"","17726","image-button-response","70","null","1702257","685c6ca90f751d3aae6b1794","685c70c17ca976132efd646a","67ddf0d78b09b4dce35030d9","false","false","Tree","https://kisumu-drawings.s3-us-west-1.amazonaws.com/102-014.png","10","Tree","102-014.png"
"","5565","image-button-response","71","null","1708333","685c6ca90f751d3aae6b1794","685c70c17ca976132efd646a","67ddf0d78b09b4dce35030d9","false","false","Tree","https://kisumu-drawings.s3-us-west-1.amazonaws.com/56-006.png","10","Tree","56-006.png"
"","6189","image-button-response","72","null","1715035","685c6ca90f751d3aae6b1794","685c70c17ca976132efd646a","67ddf0d78b09b4dce35030d9","false","false","Hat","https://kisumu-drawings.s3-us-west-1.amazonaws.com/113-008.png","7","Hat","113-008.png"
"","10985","image-button-response","73","null","1726526","685c6ca90f751d3aae6b1794","685c70c17ca976132efd646a","67ddf0d78b09b4dce35030d9","false","false","Airplane","https://kisumu-drawings.s3-us-west-1.amazonaws.com/83-015.png","0","Airplane","83-015.png"
"","9071","image-button-response","74","null","1736106","685c6ca90f751d3aae6b1794","685c70c17ca976132efd646a","67ddf0d78b09b4dce35030d9","false","false","Chair","https://kisumu-drawings.s3-us-west-1.amazonaws.com/116-013.png","5","Chair","116-013.png"
"","11338","image-button-response","75","null","1747950","685c6ca90f751d3aae6b1794","685c70c17ca976132efd646a","67ddf0d78b09b4dce35030d9","false","false","Bird","https://kisumu-drawings.s3-us-west-1.amazonaws.com/69-015.png","2","Bird","69-015.png"
