"view_history","rt","trial_type","trial_index","plugin_version","time_elapsed","study_id","session_id","participant_id","catch_trial","prep_trial","sketcher_category","stimulus","response","response_category","sketch_id"
"[{""page_index"":0,""viewing_time"":39984},{""page_index"":1,""viewing_time"":43534},{""page_index"":2,""viewing_time"":14237},{""page_index"":3,""viewing_time"":4833}]","102588","instructions","0","null","102613","685c6ca90f751d3aae6b1794","685c73b1c2fbf403f4558139","67e9651d69c53446e96e9b9b","","","","","","",""
"","6754","image-button-response","1","null","110386","685c6ca90f751d3aae6b1794","685c73b1c2fbf403f4558139","67e9651d69c53446e96e9b9b","false","true","car","stimuli/prep_trials/1_car_prep.png","3","Car",""
"","3663","image-button-response","2","null","114561","685c6ca90f751d3aae6b1794","685c73b1c2fbf403f4558139","67e9651d69c53446e96e9b9b","false","true","cat","stimuli/prep_trials/0_cat_prep.jpg","4","Cat",""
"","41111","image-button-response","3","null","156186","685c6ca90f751d3aae6b1794","685c73b1c2fbf403f4558139","67e9651d69c53446e96e9b9b","false","false","Cup","https://kisumu-drawings.s3-us-west-1.amazonaws.com/48-015.png","7","Hat","48-015.png"
"","8413","image-button-response","4","null","165109","685c6ca90f751d3aae6b1794","685c73b1c2fbf403f4558139","67e9651d69c53446e96e9b9b","false","false","Airplane","https://kisumu-drawings.s3-us-west-1.amazonaws.com/70-008.png","0","Airplane","70-008.png"
"","9079","image-button-response","5","null","174701","685c6ca90f751d3aae6b1794","685c73b1c2fbf403f4558139","67e9651d69c53446e96e9b9b","false","false","Car","https://kisumu-drawings.s3-us-west-1.amazonaws.com/92-007.png","3","Car","92-007.png"
"","16139","image-button-response","6","null","191346","685c6ca90f751d3aae6b1794","685c73b1c2fbf403f4558139","67e9651d69c53446e96e9b9b","false","false","Cat","https://kisumu-drawings.s3-us-west-1.amazonaws.com/119-011.png","9","Rabbit","119-011.png"
"","7041","image-button-response","7","null","198895","685c6ca90f751d3aae6b1794","685c73b1c2fbf403f4558139","67e9651d69c53446e96e9b9b","false","false","Airplane","https://kisumu-drawings.s3-us-west-1.amazonaws.com/90-014.png","0","Airplane","90-014.png"
"","9139","image-button-response","8","null","208552","685c6ca90f751d3aae6b1794","685c73b1c2fbf403f4558139","67e9651d69c53446e96e9b9b","false","false","Hat","https://kisumu-drawings.s3-us-west-1.amazonaws.com/42-012.png","2","Bird","42-012.png"
"","12839","image-button-response","9","null","221902","685c6ca90f751d3aae6b1794","685c73b1c2fbf403f4558139","67e9651d69c53446e96e9b9b","false","false","House","https://kisumu-drawings.s3-us-west-1.amazonaws.com/64-008.png","8","House","64-008.png"
"","9023","image-button-response","10","null","231434","685c6ca90f751d3aae6b1794","685c73b1c2fbf403f4558139","67e9651d69c53446e96e9b9b","false","false","Chair","https://kisumu-drawings.s3-us-west-1.amazonaws.com/108-007.png","5","Chair","108-007.png"
"","8228","image-button-response","11","null","240171","685c6ca90f751d3aae6b1794","685c73b1c2fbf403f4558139","67e9651d69c53446e96e9b9b","false","false","Chair","https://kisumu-drawings.s3-us-west-1.amazonaws.com/28-009.png","5","Chair","28-009.png"
"","22697","image-button-response","12","null","263385","685c6ca90f751d3aae6b1794","685c73b1c2fbf403f4558139","67e9651d69c53446e96e9b9b","false","false","Watch","https://kisumu-drawings.s3-us-west-1.amazonaws.com/68-016.png","11","Watch","68-016.png"
"","6623","image-button-response","13","null","270516","685c6ca90f751d3aae6b1794","685c73b1c2fbf403f4558139","67e9651d69c53446e96e9b9b","false","false","Tree","https://kisumu-drawings.s3-us-west-1.amazonaws.com/89-006.png","10","Tree","89-006.png"
"","7291","image-button-response","14","null","278314","685c6ca90f751d3aae6b1794","685c73b1c2fbf403f4558139","67e9651d69c53446e96e9b9b","true","false","airplane","stimuli/catch_trials/0_airplane_catch.jpg","0","Airplane",""
"","8554","image-button-response","15","null","287377","685c6ca90f751d3aae6b1794","685c73b1c2fbf403f4558139","67e9651d69c53446e96e9b9b","false","false","Cup","https://kisumu-drawings.s3-us-west-1.amazonaws.com/92-010.png","6","Cup","92-010.png"
"","6693","image-button-response","16","null","294575","685c6ca90f751d3aae6b1794","685c73b1c2fbf403f4558139","67e9651d69c53446e96e9b9b","false","false","Chair","https://kisumu-drawings.s3-us-west-1.amazonaws.com/66-014.png","5","Chair","66-014.png"
"","4463","image-button-response","17","null","299546","685c6ca90f751d3aae6b1794","685c73b1c2fbf403f4558139","67e9651d69c53446e96e9b9b","false","false","Watch","https://kisumu-drawings.s3-us-west-1.amazonaws.com/8-009.png","11","Watch","8-009.png"
"","18517","image-button-response","18","null","318576","685c6ca90f751d3aae6b1794","685c73b1c2fbf403f4558139","67e9651d69c53446e96e9b9b","false","false","Rabbit","https://kisumu-drawings.s3-us-west-1.amazonaws.com/94-008.png","11","Watch","94-008.png"
"","12011","image-button-response","19","null","331099","685c6ca90f751d3aae6b1794","685c73b1c2fbf403f4558139","67e9651d69c53446e96e9b9b","false","false","Bicycle","https://kisumu-drawings.s3-us-west-1.amazonaws.com/80-010.png","1","Bicycle","80-010.png"
"","15605","image-button-response","20","null","347213","685c6ca90f751d3aae6b1794","685c73b1c2fbf403f4558139","67e9651d69c53446e96e9b9b","false","false","Bicycle","https://kisumu-drawings.s3-us-west-1.amazonaws.com/59-012.png","1","Bicycle","59-012.png"
"","12277","image-button-response","21","null","359997","685c6ca90f751d3aae6b1794","685c73b1c2fbf403f4558139","67e9651d69c53446e96e9b9b","false","false","Watch","https://kisumu-drawings.s3-us-west-1.amazonaws.com/94-006.png","11","Watch","94-006.png"
"","21996","image-button-response","22","null","382499","685c6ca90f751d3aae6b1794","685c73b1c2fbf403f4558139","67e9651d69c53446e96e9b9b","false","false","Cat","https://kisumu-drawings.s3-us-west-1.amazonaws.com/16-007.png","11","Watch","16-007.png"
"","9630","image-button-response","23","null","392639","685c6ca90f751d3aae6b1794","685c73b1c2fbf403f4558139","67e9651d69c53446e96e9b9b","false","false","Rabbit","https://kisumu-drawings.s3-us-west-1.amazonaws.com/74-008.png","9","Rabbit","74-008.png"
"","5431","image-button-response","24","null","398579","685c6ca90f751d3aae6b1794","685c73b1c2fbf403f4558139","67e9651d69c53446e96e9b9b","false","false","House","https://kisumu-drawings.s3-us-west-1.amazonaws.com/32-006.png","8","House","32-006.png"
"","8021","image-button-response","25","null","407108","685c6ca90f751d3aae6b1794","685c73b1c2fbf403f4558139","67e9651d69c53446e96e9b9b","false","false","Rabbit","https://kisumu-drawings.s3-us-west-1.amazonaws.com/111-011.png","9","Rabbit","111-011.png"
"","6272","image-button-response","26","null","413885","685c6ca90f751d3aae6b1794","685c73b1c2fbf403f4558139","67e9651d69c53446e96e9b9b","false","false","Watch","https://kisumu-drawings.s3-us-west-1.amazonaws.com/29-012.png","11","Watch","29-012.png"
"","3067","image-button-response","27","null","417459","685c6ca90f751d3aae6b1794","685c73b1c2fbf403f4558139","67e9651d69c53446e96e9b9b","false","false","House","https://kisumu-drawings.s3-us-west-1.amazonaws.com/100-006.png","8","House","100-006.png"
"","4422","image-button-response","28","null","422390","685c6ca90f751d3aae6b1794","685c73b1c2fbf403f4558139","67e9651d69c53446e96e9b9b","false","false","Bird","https://kisumu-drawings.s3-us-west-1.amazonaws.com/107-016.png","0","Airplane","107-016.png"
"","3823","image-button-response","29","null","426732","685c6ca90f751d3aae6b1794","685c73b1c2fbf403f4558139","67e9651d69c53446e96e9b9b","false","false","Tree","https://kisumu-drawings.s3-us-west-1.amazonaws.com/34-010.png","10","Tree","34-010.png"
"","6662","image-button-response","30","null","433905","685c6ca90f751d3aae6b1794","685c73b1c2fbf403f4558139","67e9651d69c53446e96e9b9b","false","false","Hat","https://kisumu-drawings.s3-us-west-1.amazonaws.com/63-014.png","7","Hat","63-014.png"
"","6257","image-button-response","31","null","440670","685c6ca90f751d3aae6b1794","685c73b1c2fbf403f4558139","67e9651d69c53446e96e9b9b","false","false","Bird","https://kisumu-drawings.s3-us-west-1.amazonaws.com/47-005.png","2","Bird","47-005.png"
"","3377","image-button-response","32","null","444567","685c6ca90f751d3aae6b1794","685c73b1c2fbf403f4558139","67e9651d69c53446e96e9b9b","false","false","Bicycle","https://kisumu-drawings.s3-us-west-1.amazonaws.com/90-015.png","1","Bicycle","90-015.png"
"","4847","image-button-response","33","null","449920","685c6ca90f751d3aae6b1794","685c73b1c2fbf403f4558139","67e9651d69c53446e96e9b9b","false","false","Tree","https://kisumu-drawings.s3-us-west-1.amazonaws.com/4-014.png","10","Tree","4-014.png"
"","18445","image-button-response","34","null","468883","685c6ca90f751d3aae6b1794","685c73b1c2fbf403f4558139","67e9651d69c53446e96e9b9b","false","false","Rabbit","https://kisumu-drawings.s3-us-west-1.amazonaws.com/12-015.png","5","Chair","12-015.png"
"","22894","image-button-response","35","null","492288","685c6ca90f751d3aae6b1794","685c73b1c2fbf403f4558139","67e9651d69c53446e96e9b9b","false","false","Watch","https://kisumu-drawings.s3-us-west-1.amazonaws.com/116-007.png","7","Hat","116-007.png"
"","19703","image-button-response","36","null","512494","685c6ca90f751d3aae6b1794","685c73b1c2fbf403f4558139","67e9651d69c53446e96e9b9b","false","false","Airplane","https://kisumu-drawings.s3-us-west-1.amazonaws.com/45-014.png","3","Car","45-014.png"
"","15647","image-button-response","37","null","528649","685c6ca90f751d3aae6b1794","685c73b1c2fbf403f4558139","67e9651d69c53446e96e9b9b","false","false","Cup","https://kisumu-drawings.s3-us-west-1.amazonaws.com/10-005.png","2","Bird","10-005.png"
"","7492","image-button-response","38","null","536651","685c6ca90f751d3aae6b1794","685c73b1c2fbf403f4558139","67e9651d69c53446e96e9b9b","false","false","Cat","https://kisumu-drawings.s3-us-west-1.amazonaws.com/41-011.png","2","Bird","41-011.png"
"","37892","image-button-response","39","null","575063","685c6ca90f751d3aae6b1794","685c73b1c2fbf403f4558139","67e9651d69c53446e96e9b9b","false","false","Cup","https://kisumu-drawings.s3-us-west-1.amazonaws.com/112-009.png","6","Cup","112-009.png"
"","16294","image-button-response","40","null","591862","685c6ca90f751d3aae6b1794","685c73b1c2fbf403f4558139","67e9651d69c53446e96e9b9b","false","false","Car","https://kisumu-drawings.s3-us-west-1.amazonaws.com/48-005.png","3","Car","48-005.png"
"","15182","image-button-response","41","null","607559","685c6ca90f751d3aae6b1794","685c73b1c2fbf403f4558139","67e9651d69c53446e96e9b9b","false","false","Car","https://kisumu-drawings.s3-us-west-1.amazonaws.com/39-006.png","0","Airplane","39-006.png"
"","6077","image-button-response","42","null","614146","685c6ca90f751d3aae6b1794","685c73b1c2fbf403f4558139","67e9651d69c53446e96e9b9b","false","false","Cup","https://kisumu-drawings.s3-us-west-1.amazonaws.com/71-007.png","6","Cup","71-007.png"
"","8715","image-button-response","43","null","623374","685c6ca90f751d3aae6b1794","685c73b1c2fbf403f4558139","67e9651d69c53446e96e9b9b","false","false","Car","https://kisumu-drawings.s3-us-west-1.amazonaws.com/1-011.png","10","Tree","1-011.png"
"","6069","image-button-response","44","null","629953","685c6ca90f751d3aae6b1794","685c73b1c2fbf403f4558139","67e9651d69c53446e96e9b9b","false","false","House","https://kisumu-drawings.s3-us-west-1.amazonaws.com/44-009.png","8","House","44-009.png"
"","6150","image-button-response","45","null","636622","685c6ca90f751d3aae6b1794","685c73b1c2fbf403f4558139","67e9651d69c53446e96e9b9b","false","false","Airplane","https://kisumu-drawings.s3-us-west-1.amazonaws.com/17-005.png","0","Airplane","17-005.png"
"","5900","image-button-response","46","null","643036","685c6ca90f751d3aae6b1794","685c73b1c2fbf403f4558139","67e9651d69c53446e96e9b9b","false","false","Hat","https://kisumu-drawings.s3-us-west-1.amazonaws.com/27-015.png","7","Hat","27-015.png"
"","3527","image-button-response","47","null","647082","685c6ca90f751d3aae6b1794","685c73b1c2fbf403f4558139","67e9651d69c53446e96e9b9b","false","false","Hat","https://kisumu-drawings.s3-us-west-1.amazonaws.com/81-006.png","7","Hat","81-006.png"
"","8996","image-button-response","48","null","656583","685c6ca90f751d3aae6b1794","685c73b1c2fbf403f4558139","67e9651d69c53446e96e9b9b","false","false","Cat","https://kisumu-drawings.s3-us-west-1.amazonaws.com/65-015.png","2","Bird","65-015.png"
"","14230","image-button-response","49","null","671332","685c6ca90f751d3aae6b1794","685c73b1c2fbf403f4558139","67e9651d69c53446e96e9b9b","false","false","Tree","https://kisumu-drawings.s3-us-west-1.amazonaws.com/116-006.png","10","Tree","116-006.png"
"","12925","image-button-response","50","null","684765","685c6ca90f751d3aae6b1794","685c73b1c2fbf403f4558139","67e9651d69c53446e96e9b9b","false","false","Bird","https://kisumu-drawings.s3-us-west-1.amazonaws.com/19-012.png","10","Tree","19-012.png"
"","12083","image-button-response","51","null","697357","685c6ca90f751d3aae6b1794","685c73b1c2fbf403f4558139","67e9651d69c53446e96e9b9b","false","false","Chair","https://kisumu-drawings.s3-us-west-1.amazonaws.com/1-008.png","10","Tree","1-008.png"
"","32225","image-button-response","52","null","730088","685c6ca90f751d3aae6b1794","685c73b1c2fbf403f4558139","67e9651d69c53446e96e9b9b","false","false","Rabbit","https://kisumu-drawings.s3-us-west-1.amazonaws.com/40-016.png","10","Tree","40-016.png"
"","6186","image-button-response","53","null","736784","685c6ca90f751d3aae6b1794","685c73b1c2fbf403f4558139","67e9651d69c53446e96e9b9b","false","false","Tree","https://kisumu-drawings.s3-us-west-1.amazonaws.com/68-015.png","10","Tree","68-015.png"
"","6121","image-button-response","54","null","743411","685c6ca90f751d3aae6b1794","685c73b1c2fbf403f4558139","67e9651d69c53446e96e9b9b","false","false","Bicycle","https://kisumu-drawings.s3-us-west-1.amazonaws.com/37-009.png","9","Rabbit","37-009.png"
"","18621","image-button-response","55","null","762542","685c6ca90f751d3aae6b1794","685c73b1c2fbf403f4558139","67e9651d69c53446e96e9b9b","false","false","House","https://kisumu-drawings.s3-us-west-1.amazonaws.com/11-015.png","10","Tree","11-015.png"
"","18343","image-button-response","56","null","781395","685c6ca90f751d3aae6b1794","685c73b1c2fbf403f4558139","67e9651d69c53446e96e9b9b","false","false","Car","https://kisumu-drawings.s3-us-west-1.amazonaws.com/107-009.png","3","Car","107-009.png"
"","19904","image-button-response","57","null","801804","685c6ca90f751d3aae6b1794","685c73b1c2fbf403f4558139","67e9651d69c53446e96e9b9b","false","false","Hat","https://kisumu-drawings.s3-us-west-1.amazonaws.com/108-006.png","7","Hat","108-006.png"
"","10065","image-button-response","58","null","812375","685c6ca90f751d3aae6b1794","685c73b1c2fbf403f4558139","67e9651d69c53446e96e9b9b","false","false","Chair","https://kisumu-drawings.s3-us-west-1.amazonaws.com/55-013.png","5","Chair","55-013.png"
"","17313","image-button-response","59","null","830203","685c6ca90f751d3aae6b1794","685c73b1c2fbf403f4558139","67e9651d69c53446e96e9b9b","false","false","Cat","https://kisumu-drawings.s3-us-west-1.amazonaws.com/39-007.png","10","Tree","39-007.png"
"","6257","image-button-response","60","null","836964","685c6ca90f751d3aae6b1794","685c73b1c2fbf403f4558139","67e9651d69c53446e96e9b9b","false","false","Cup","https://kisumu-drawings.s3-us-west-1.amazonaws.com/22-015.png","6","Cup","22-015.png"
"","13876","image-button-response","61","null","851352","685c6ca90f751d3aae6b1794","685c73b1c2fbf403f4558139","67e9651d69c53446e96e9b9b","false","false","Hat","https://kisumu-drawings.s3-us-west-1.amazonaws.com/18-007.png","7","Hat","18-007.png"
"","7189","image-button-response","62","null","859050","685c6ca90f751d3aae6b1794","685c73b1c2fbf403f4558139","67e9651d69c53446e96e9b9b","false","false","Bicycle","https://kisumu-drawings.s3-us-west-1.amazonaws.com/17-006.png","1","Bicycle","17-006.png"
"","3867","image-button-response","63","null","863432","685c6ca90f751d3aae6b1794","685c73b1c2fbf403f4558139","67e9651d69c53446e96e9b9b","false","false","Bird","https://kisumu-drawings.s3-us-west-1.amazonaws.com/35-005.png","7","Hat","35-005.png"
"","2489","image-button-response","64","null","866432","685c6ca90f751d3aae6b1794","685c73b1c2fbf403f4558139","67e9651d69c53446e96e9b9b","false","false","Chair","https://kisumu-drawings.s3-us-west-1.amazonaws.com/98-008.png","5","Chair","98-008.png"
"","2950","image-button-response","65","null","869890","685c6ca90f751d3aae6b1794","685c73b1c2fbf403f4558139","67e9651d69c53446e96e9b9b","false","false","House","https://kisumu-drawings.s3-us-west-1.amazonaws.com/119-016.png","8","House","119-016.png"
"","4701","image-button-response","66","null","875099","685c6ca90f751d3aae6b1794","685c73b1c2fbf403f4558139","67e9651d69c53446e96e9b9b","false","false","Car","https://kisumu-drawings.s3-us-west-1.amazonaws.com/79-008.png","3","Car","79-008.png"
"","5450","image-button-response","67","null","881063","685c6ca90f751d3aae6b1794","685c73b1c2fbf403f4558139","67e9651d69c53446e96e9b9b","false","false","Bird","https://kisumu-drawings.s3-us-west-1.amazonaws.com/89-012.png","0","Airplane","89-012.png"
"","2861","image-button-response","68","null","884441","685c6ca90f751d3aae6b1794","685c73b1c2fbf403f4558139","67e9651d69c53446e96e9b9b","false","false","Tree","https://kisumu-drawings.s3-us-west-1.amazonaws.com/50-009.png","10","Tree","50-009.png"
"","2593","image-button-response","69","null","887541","685c6ca90f751d3aae6b1794","685c73b1c2fbf403f4558139","67e9651d69c53446e96e9b9b","false","false","Airplane","https://kisumu-drawings.s3-us-west-1.amazonaws.com/38-014.png","0","Airplane","38-014.png"
"","2564","image-button-response","70","null","890611","685c6ca90f751d3aae6b1794","685c73b1c2fbf403f4558139","67e9651d69c53446e96e9b9b","false","false","Airplane","https://kisumu-drawings.s3-us-west-1.amazonaws.com/105-009.png","0","Airplane","105-009.png"
"","2518","image-button-response","71","null","893641","685c6ca90f751d3aae6b1794","685c73b1c2fbf403f4558139","67e9651d69c53446e96e9b9b","false","false","Bicycle","https://kisumu-drawings.s3-us-west-1.amazonaws.com/102-015.png","1","Bicycle","102-015.png"
"","9515","image-button-response","72","null","903661","685c6ca90f751d3aae6b1794","685c73b1c2fbf403f4558139","67e9651d69c53446e96e9b9b","false","false","Cat","https://kisumu-drawings.s3-us-west-1.amazonaws.com/94-009.png","2","Bird","94-009.png"
"","6755","image-button-response","73","null","910924","685c6ca90f751d3aae6b1794","685c73b1c2fbf403f4558139","67e9651d69c53446e96e9b9b","false","false","Watch","https://kisumu-drawings.s3-us-west-1.amazonaws.com/58-016.png","11","Watch","58-016.png"
"","6204","image-button-response","74","null","917634","685c6ca90f751d3aae6b1794","685c73b1c2fbf403f4558139","67e9651d69c53446e96e9b9b","false","false","Bird","https://kisumu-drawings.s3-us-west-1.amazonaws.com/79-005.png","0","Airplane","79-005.png"
"","8456","image-button-response","75","null","926598","685c6ca90f751d3aae6b1794","685c73b1c2fbf403f4558139","67e9651d69c53446e96e9b9b","false","false","Rabbit","https://kisumu-drawings.s3-us-west-1.amazonaws.com/47-010.png","2","Bird","47-010.png"
