"view_history","rt","trial_type","trial_index","plugin_version","time_elapsed","study_id","session_id","participant_id","catch_trial","prep_trial","sketcher_category","stimulus","response","response_category","sketch_id"
"[{""page_index"":0,""viewing_time"":16433},{""page_index"":1,""viewing_time"":7327},{""page_index"":2,""viewing_time"":13053},{""page_index"":3,""viewing_time"":20928}]","57742","instructions","0","null","57748","685c6ca90f751d3aae6b1794","685c6e203696054c44d0a6af","67ec9fc858f4594fd069d5ff","","","","","","",""
"","8575","image-button-response","1","null","67338","685c6ca90f751d3aae6b1794","685c6e203696054c44d0a6af","67ec9fc858f4594fd069d5ff","false","true","car","stimuli/prep_trials/1_car_prep.png","3","Car",""
"","5876","image-button-response","2","null","73724","685c6ca90f751d3aae6b1794","685c6e203696054c44d0a6af","67ec9fc858f4594fd069d5ff","false","true","cat","stimuli/prep_trials/0_cat_prep.jpg","4","Cat",""
"","41912","image-button-response","3","null","116151","685c6ca90f751d3aae6b1794","685c6e203696054c44d0a6af","67ec9fc858f4594fd069d5ff","false","false","Car","https://kisumu-drawings.s3-us-west-1.amazonaws.com/5-006.png","6","Cup","5-006.png"
"","4120","image-button-response","4","null","120787","685c6ca90f751d3aae6b1794","685c6e203696054c44d0a6af","67ec9fc858f4594fd069d5ff","false","false","Tree","https://kisumu-drawings.s3-us-west-1.amazonaws.com/60-009.png","10","Tree","60-009.png"
"","2594","image-button-response","5","null","123883","685c6ca90f751d3aae6b1794","685c6e203696054c44d0a6af","67ec9fc858f4594fd069d5ff","false","false","Hat","https://kisumu-drawings.s3-us-west-1.amazonaws.com/92-011.png","7","Hat","92-011.png"
"","24375","image-button-response","6","null","148776","685c6ca90f751d3aae6b1794","685c6e203696054c44d0a6af","67ec9fc858f4594fd069d5ff","false","false","Hat","https://kisumu-drawings.s3-us-west-1.amazonaws.com/25-011.png","0","Airplane","25-011.png"
"","8383","image-button-response","7","null","157674","685c6ca90f751d3aae6b1794","685c6e203696054c44d0a6af","67ec9fc858f4594fd069d5ff","false","false","Car","https://kisumu-drawings.s3-us-west-1.amazonaws.com/106-016.png","3","Car","106-016.png"
"","3566","image-button-response","8","null","161742","685c6ca90f751d3aae6b1794","685c6e203696054c44d0a6af","67ec9fc858f4594fd069d5ff","false","false","Cup","https://kisumu-drawings.s3-us-west-1.amazonaws.com/5-012.png","6","Cup","5-012.png"
"","3475","image-button-response","9","null","165727","685c6ca90f751d3aae6b1794","685c6e203696054c44d0a6af","67ec9fc858f4594fd069d5ff","false","false","Bird","https://kisumu-drawings.s3-us-west-1.amazonaws.com/60-014.png","2","Bird","60-014.png"
"","4337","image-button-response","10","null","170565","685c6ca90f751d3aae6b1794","685c6e203696054c44d0a6af","67ec9fc858f4594fd069d5ff","false","false","Airplane","https://kisumu-drawings.s3-us-west-1.amazonaws.com/106-008.png","0","Airplane","106-008.png"
"","9016","image-button-response","11","null","180094","685c6ca90f751d3aae6b1794","685c6e203696054c44d0a6af","67ec9fc858f4594fd069d5ff","false","false","Cat","https://kisumu-drawings.s3-us-west-1.amazonaws.com/5-011.png","9","Rabbit","5-011.png"
"","5789","image-button-response","12","null","186395","685c6ca90f751d3aae6b1794","685c6e203696054c44d0a6af","67ec9fc858f4594fd069d5ff","false","false","Tree","https://kisumu-drawings.s3-us-west-1.amazonaws.com/92-015.png","10","Tree","92-015.png"
"","24589","image-button-response","13","null","211496","685c6ca90f751d3aae6b1794","685c6e203696054c44d0a6af","67ec9fc858f4594fd069d5ff","false","false","Bird","https://kisumu-drawings.s3-us-west-1.amazonaws.com/25-008.png","9","Rabbit","25-008.png"
"","9905","image-button-response","14","null","221912","685c6ca90f751d3aae6b1794","685c6e203696054c44d0a6af","67ec9fc858f4594fd069d5ff","false","false","Hat","https://kisumu-drawings.s3-us-west-1.amazonaws.com/5-007.png","8","House","5-007.png"
"","2947","image-button-response","15","null","225365","685c6ca90f751d3aae6b1794","685c6e203696054c44d0a6af","67ec9fc858f4594fd069d5ff","false","false","Hat","https://kisumu-drawings.s3-us-west-1.amazonaws.com/67-012.png","7","Hat","67-012.png"
"","1346","image-button-response","16","null","227226","685c6ca90f751d3aae6b1794","685c6e203696054c44d0a6af","67ec9fc858f4594fd069d5ff","true","false","airplane","stimuli/catch_trials/0_airplane_catch.jpg","0","Airplane",""
"","2154","image-button-response","17","null","229894","685c6ca90f751d3aae6b1794","685c6e203696054c44d0a6af","67ec9fc858f4594fd069d5ff","false","false","Tree","https://kisumu-drawings.s3-us-west-1.amazonaws.com/106-012.png","10","Tree","106-012.png"
"","6117","image-button-response","18","null","236512","685c6ca90f751d3aae6b1794","685c6e203696054c44d0a6af","67ec9fc858f4594fd069d5ff","false","false","Bicycle","https://kisumu-drawings.s3-us-west-1.amazonaws.com/5-015.png","2","Bird","5-015.png"
"","4554","image-button-response","19","null","241576","685c6ca90f751d3aae6b1794","685c6e203696054c44d0a6af","67ec9fc858f4594fd069d5ff","false","false","Airplane","https://kisumu-drawings.s3-us-west-1.amazonaws.com/60-016.png","0","Airplane","60-016.png"
"","1193","image-button-response","20","null","243280","685c6ca90f751d3aae6b1794","685c6e203696054c44d0a6af","67ec9fc858f4594fd069d5ff","false","false","Airplane","https://kisumu-drawings.s3-us-west-1.amazonaws.com/67-014.png","0","Airplane","67-014.png"
"","2801","image-button-response","21","null","246587","685c6ca90f751d3aae6b1794","685c6e203696054c44d0a6af","67ec9fc858f4594fd069d5ff","false","false","Bicycle","https://kisumu-drawings.s3-us-west-1.amazonaws.com/67-015.png","1","Bicycle","67-015.png"
"","10419","image-button-response","22","null","257514","685c6ca90f751d3aae6b1794","685c6e203696054c44d0a6af","67ec9fc858f4594fd069d5ff","false","false","Rabbit","https://kisumu-drawings.s3-us-west-1.amazonaws.com/5-005.png","4","Cat","5-005.png"
"","2404","image-button-response","23","null","260425","685c6ca90f751d3aae6b1794","685c6e203696054c44d0a6af","67ec9fc858f4594fd069d5ff","false","false","Bicycle","https://kisumu-drawings.s3-us-west-1.amazonaws.com/106-009.png","1","Bicycle","106-009.png"
"","1761","image-button-response","24","null","262694","685c6ca90f751d3aae6b1794","685c6e203696054c44d0a6af","67ec9fc858f4594fd069d5ff","false","false","Bicycle","https://kisumu-drawings.s3-us-west-1.amazonaws.com/60-015.png","1","Bicycle","60-015.png"
"","1918","image-button-response","25","null","265123","685c6ca90f751d3aae6b1794","685c6e203696054c44d0a6af","67ec9fc858f4594fd069d5ff","false","false","Cat","https://kisumu-drawings.s3-us-west-1.amazonaws.com/25-010.png","2","Bird","25-010.png"
"","1623","image-button-response","26","null","267261","685c6ca90f751d3aae6b1794","685c6e203696054c44d0a6af","67ec9fc858f4594fd069d5ff","false","false","Bird","https://kisumu-drawings.s3-us-west-1.amazonaws.com/67-016.png","2","Bird","67-016.png"
"","5066","image-button-response","27","null","272831","685c6ca90f751d3aae6b1794","685c6e203696054c44d0a6af","67ec9fc858f4594fd069d5ff","false","false","Tree","https://kisumu-drawings.s3-us-west-1.amazonaws.com/5-008.png","10","Tree","5-008.png"
"","6319","image-button-response","28","null","279653","685c6ca90f751d3aae6b1794","685c6e203696054c44d0a6af","67ec9fc858f4594fd069d5ff","false","false","Watch","https://kisumu-drawings.s3-us-west-1.amazonaws.com/106-006.png","11","Watch","106-006.png"
"","10273","image-button-response","29","null","290434","685c6ca90f751d3aae6b1794","685c6e203696054c44d0a6af","67ec9fc858f4594fd069d5ff","false","false","Car","https://kisumu-drawings.s3-us-west-1.amazonaws.com/92-007.png","3","Car","92-007.png"
"","2947","image-button-response","30","null","293887","685c6ca90f751d3aae6b1794","685c6e203696054c44d0a6af","67ec9fc858f4594fd069d5ff","false","false","Watch","https://kisumu-drawings.s3-us-west-1.amazonaws.com/60-010.png","11","Watch","60-010.png"
"","2440","image-button-response","31","null","296828","685c6ca90f751d3aae6b1794","685c6e203696054c44d0a6af","67ec9fc858f4594fd069d5ff","false","false","Hat","https://kisumu-drawings.s3-us-west-1.amazonaws.com/60-005.png","7","Hat","60-005.png"
"","1683","image-button-response","32","null","299021","685c6ca90f751d3aae6b1794","685c6e203696054c44d0a6af","67ec9fc858f4594fd069d5ff","false","false","Cup","https://kisumu-drawings.s3-us-west-1.amazonaws.com/67-011.png","6","Cup","67-011.png"
"","2613","image-button-response","33","null","302147","685c6ca90f751d3aae6b1794","685c6e203696054c44d0a6af","67ec9fc858f4594fd069d5ff","false","false","Cat","https://kisumu-drawings.s3-us-west-1.amazonaws.com/67-013.png","4","Cat","67-013.png"
"","1878","image-button-response","34","null","304527","685c6ca90f751d3aae6b1794","685c6e203696054c44d0a6af","67ec9fc858f4594fd069d5ff","false","false","Rabbit","https://kisumu-drawings.s3-us-west-1.amazonaws.com/60-008.png","2","Bird","60-008.png"
"","6664","image-button-response","35","null","311693","685c6ca90f751d3aae6b1794","685c6e203696054c44d0a6af","67ec9fc858f4594fd069d5ff","false","false","Chair","https://kisumu-drawings.s3-us-west-1.amazonaws.com/92-009.png","5","Chair","92-009.png"
"","2347","image-button-response","36","null","314555","685c6ca90f751d3aae6b1794","685c6e203696054c44d0a6af","67ec9fc858f4594fd069d5ff","false","false","Cup","https://kisumu-drawings.s3-us-west-1.amazonaws.com/106-010.png","6","Cup","106-010.png"
"","12725","image-button-response","37","null","327795","685c6ca90f751d3aae6b1794","685c6e203696054c44d0a6af","67ec9fc858f4594fd069d5ff","false","false","Chair","https://kisumu-drawings.s3-us-west-1.amazonaws.com/25-009.png","6","Cup","25-009.png"
"","2556","image-button-response","38","null","330859","685c6ca90f751d3aae6b1794","685c6e203696054c44d0a6af","67ec9fc858f4594fd069d5ff","false","false","Cat","https://kisumu-drawings.s3-us-west-1.amazonaws.com/92-014.png","4","Cat","92-014.png"
"","2961","image-button-response","39","null","334328","685c6ca90f751d3aae6b1794","685c6e203696054c44d0a6af","67ec9fc858f4594fd069d5ff","false","false","Rabbit","https://kisumu-drawings.s3-us-west-1.amazonaws.com/67-007.png","9","Rabbit","67-007.png"
"","3314","image-button-response","40","null","338155","685c6ca90f751d3aae6b1794","685c6e203696054c44d0a6af","67ec9fc858f4594fd069d5ff","false","false","Watch","https://kisumu-drawings.s3-us-west-1.amazonaws.com/25-015.png","11","Watch","25-015.png"
"","1412","image-button-response","41","null","340077","685c6ca90f751d3aae6b1794","685c6e203696054c44d0a6af","67ec9fc858f4594fd069d5ff","false","false","Watch","https://kisumu-drawings.s3-us-west-1.amazonaws.com/92-008.png","11","Watch","92-008.png"
"","2904","image-button-response","42","null","343491","685c6ca90f751d3aae6b1794","685c6e203696054c44d0a6af","67ec9fc858f4594fd069d5ff","false","false","Chair","https://kisumu-drawings.s3-us-west-1.amazonaws.com/5-014.png","5","Chair","5-014.png"
"","1221","image-button-response","43","null","345219","685c6ca90f751d3aae6b1794","685c6e203696054c44d0a6af","67ec9fc858f4594fd069d5ff","false","false","Chair","https://kisumu-drawings.s3-us-west-1.amazonaws.com/67-010.png","5","Chair","67-010.png"
"","2811","image-button-response","44","null","348540","685c6ca90f751d3aae6b1794","685c6e203696054c44d0a6af","67ec9fc858f4594fd069d5ff","false","false","Rabbit","https://kisumu-drawings.s3-us-west-1.amazonaws.com/92-016.png","4","Cat","92-016.png"
"","2774","image-button-response","45","null","351821","685c6ca90f751d3aae6b1794","685c6e203696054c44d0a6af","67ec9fc858f4594fd069d5ff","false","false","House","https://kisumu-drawings.s3-us-west-1.amazonaws.com/25-014.png","8","House","25-014.png"
"","3504","image-button-response","46","null","355836","685c6ca90f751d3aae6b1794","685c6e203696054c44d0a6af","67ec9fc858f4594fd069d5ff","false","false","Bicycle","https://kisumu-drawings.s3-us-west-1.amazonaws.com/25-005.png","3","Car","25-005.png"
"","1388","image-button-response","47","null","357734","685c6ca90f751d3aae6b1794","685c6e203696054c44d0a6af","67ec9fc858f4594fd069d5ff","false","false","Car","https://kisumu-drawings.s3-us-west-1.amazonaws.com/60-012.png","3","Car","60-012.png"
"","13469","image-button-response","48","null","371710","685c6ca90f751d3aae6b1794","685c6e203696054c44d0a6af","67ec9fc858f4594fd069d5ff","false","false","Tree","https://kisumu-drawings.s3-us-west-1.amazonaws.com/25-016.png","10","Tree","25-016.png"
"","3109","image-button-response","49","null","375328","685c6ca90f751d3aae6b1794","685c6e203696054c44d0a6af","67ec9fc858f4594fd069d5ff","false","false","Bird","https://kisumu-drawings.s3-us-west-1.amazonaws.com/92-012.png","2","Bird","92-012.png"
"","1706","image-button-response","50","null","377544","685c6ca90f751d3aae6b1794","685c6e203696054c44d0a6af","67ec9fc858f4594fd069d5ff","false","false","Cup","https://kisumu-drawings.s3-us-west-1.amazonaws.com/60-007.png","6","Cup","60-007.png"
"","3043","image-button-response","51","null","381098","685c6ca90f751d3aae6b1794","685c6e203696054c44d0a6af","67ec9fc858f4594fd069d5ff","false","false","House","https://kisumu-drawings.s3-us-west-1.amazonaws.com/92-013.png","8","House","92-013.png"
"","2230","image-button-response","52","null","383844","685c6ca90f751d3aae6b1794","685c6e203696054c44d0a6af","67ec9fc858f4594fd069d5ff","false","false","Chair","https://kisumu-drawings.s3-us-west-1.amazonaws.com/106-007.png","5","Chair","106-007.png"
"","3288","image-button-response","53","null","387646","685c6ca90f751d3aae6b1794","685c6e203696054c44d0a6af","67ec9fc858f4594fd069d5ff","false","false","House","https://kisumu-drawings.s3-us-west-1.amazonaws.com/5-013.png","4","Cat","5-013.png"
"","1614","image-button-response","54","null","389762","685c6ca90f751d3aae6b1794","685c6e203696054c44d0a6af","67ec9fc858f4594fd069d5ff","false","false","House","https://kisumu-drawings.s3-us-west-1.amazonaws.com/106-013.png","8","House","106-013.png"
"","2057","image-button-response","55","null","392336","685c6ca90f751d3aae6b1794","685c6e203696054c44d0a6af","67ec9fc858f4594fd069d5ff","false","false","Tree","https://kisumu-drawings.s3-us-west-1.amazonaws.com/67-008.png","10","Tree","67-008.png"
"","2208","image-button-response","56","null","395053","685c6ca90f751d3aae6b1794","685c6e203696054c44d0a6af","67ec9fc858f4594fd069d5ff","false","false","Watch","https://kisumu-drawings.s3-us-west-1.amazonaws.com/5-009.png","2","Bird","5-009.png"
"","8071","image-button-response","57","null","403630","685c6ca90f751d3aae6b1794","685c6e203696054c44d0a6af","67ec9fc858f4594fd069d5ff","false","false","Chair","https://kisumu-drawings.s3-us-west-1.amazonaws.com/60-011.png","5","Chair","60-011.png"
"","2254","image-button-response","58","null","406391","685c6ca90f751d3aae6b1794","685c6e203696054c44d0a6af","67ec9fc858f4594fd069d5ff","false","false","House","https://kisumu-drawings.s3-us-west-1.amazonaws.com/67-009.png","8","House","67-009.png"
"","1416","image-button-response","59","null","408313","685c6ca90f751d3aae6b1794","685c6e203696054c44d0a6af","67ec9fc858f4594fd069d5ff","false","false","House","https://kisumu-drawings.s3-us-west-1.amazonaws.com/60-006.png","8","House","60-006.png"
"","1991","image-button-response","60","null","410816","685c6ca90f751d3aae6b1794","685c6e203696054c44d0a6af","67ec9fc858f4594fd069d5ff","false","false","Watch","https://kisumu-drawings.s3-us-west-1.amazonaws.com/67-006.png","11","Watch","67-006.png"
"","4842","image-button-response","61","null","416161","685c6ca90f751d3aae6b1794","685c6e203696054c44d0a6af","67ec9fc858f4594fd069d5ff","false","false","Airplane","https://kisumu-drawings.s3-us-west-1.amazonaws.com/25-006.png","0","Airplane","25-006.png"
"","1497","image-button-response","62","null","418167","685c6ca90f751d3aae6b1794","685c6e203696054c44d0a6af","67ec9fc858f4594fd069d5ff","false","false","Cup","https://kisumu-drawings.s3-us-west-1.amazonaws.com/25-012.png","6","Cup","25-012.png"
"","2109","image-button-response","63","null","420789","685c6ca90f751d3aae6b1794","685c6e203696054c44d0a6af","67ec9fc858f4594fd069d5ff","false","false","Car","https://kisumu-drawings.s3-us-west-1.amazonaws.com/67-005.png","3","Car","67-005.png"
"","1623","image-button-response","64","null","422919","685c6ca90f751d3aae6b1794","685c6e203696054c44d0a6af","67ec9fc858f4594fd069d5ff","false","false","Cat","https://kisumu-drawings.s3-us-west-1.amazonaws.com/106-005.png","4","Cat","106-005.png"
"","2070","image-button-response","65","null","425493","685c6ca90f751d3aae6b1794","685c6e203696054c44d0a6af","67ec9fc858f4594fd069d5ff","false","false","Bird","https://kisumu-drawings.s3-us-west-1.amazonaws.com/5-016.png","2","Bird","5-016.png"
"","1940","image-button-response","66","null","427937","685c6ca90f751d3aae6b1794","685c6e203696054c44d0a6af","67ec9fc858f4594fd069d5ff","false","false","Car","https://kisumu-drawings.s3-us-west-1.amazonaws.com/25-007.png","0","Airplane","25-007.png"
"","2416","image-button-response","67","null","430862","685c6ca90f751d3aae6b1794","685c6e203696054c44d0a6af","67ec9fc858f4594fd069d5ff","false","false","Cat","https://kisumu-drawings.s3-us-west-1.amazonaws.com/59-008.png","4","Cat","59-008.png"
"","6743","image-button-response","68","null","438118","685c6ca90f751d3aae6b1794","685c6e203696054c44d0a6af","67ec9fc858f4594fd069d5ff","false","false","Rabbit","https://kisumu-drawings.s3-us-west-1.amazonaws.com/25-013.png","7","Hat","25-013.png"
"","4915","image-button-response","69","null","443548","685c6ca90f751d3aae6b1794","685c6e203696054c44d0a6af","67ec9fc858f4594fd069d5ff","false","false","Hat","https://kisumu-drawings.s3-us-west-1.amazonaws.com/106-011.png","7","Hat","106-011.png"
"","2786","image-button-response","70","null","446837","685c6ca90f751d3aae6b1794","685c6e203696054c44d0a6af","67ec9fc858f4594fd069d5ff","false","false","Bicycle","https://kisumu-drawings.s3-us-west-1.amazonaws.com/92-005.png","1","Bicycle","92-005.png"
"","2353","image-button-response","71","null","449699","685c6ca90f751d3aae6b1794","685c6e203696054c44d0a6af","67ec9fc858f4594fd069d5ff","false","false","Bird","https://kisumu-drawings.s3-us-west-1.amazonaws.com/106-015.png","2","Bird","106-015.png"
"","2199","image-button-response","72","null","452416","685c6ca90f751d3aae6b1794","685c6e203696054c44d0a6af","67ec9fc858f4594fd069d5ff","false","false","Cup","https://kisumu-drawings.s3-us-west-1.amazonaws.com/92-010.png","6","Cup","92-010.png"
"","3397","image-button-response","73","null","456320","685c6ca90f751d3aae6b1794","685c6e203696054c44d0a6af","67ec9fc858f4594fd069d5ff","false","false","Rabbit","https://kisumu-drawings.s3-us-west-1.amazonaws.com/106-014.png","4","Cat","106-014.png"
"","3898","image-button-response","74","null","460730","685c6ca90f751d3aae6b1794","685c6e203696054c44d0a6af","67ec9fc858f4594fd069d5ff","false","false","Airplane","https://kisumu-drawings.s3-us-west-1.amazonaws.com/92-006.png","0","Airplane","92-006.png"
"","2164","image-button-response","75","null","463406","685c6ca90f751d3aae6b1794","685c6e203696054c44d0a6af","67ec9fc858f4594fd069d5ff","false","false","Airplane","https://kisumu-drawings.s3-us-west-1.amazonaws.com/5-010.png","2","Bird","5-010.png"
