"view_history","rt","trial_type","trial_index","plugin_version","time_elapsed","study_id","session_id","participant_id","catch_trial","prep_trial","sketcher_category","stimulus","response","response_category","sketch_id"
"[{""page_index"":0,""viewing_time"":194856},{""page_index"":1,""viewing_time"":20189},{""page_index"":2,""viewing_time"":6411},{""page_index"":3,""viewing_time"":13142}]","234599","instructions","0","null","234670","685c6ca90f751d3aae6b1794","685c7181b8431c38078c9b31","67f020ded233a50f479c4c87","","","","","","",""
"","10568","image-button-response","1","null","246278","685c6ca90f751d3aae6b1794","685c7181b8431c38078c9b31","67f020ded233a50f479c4c87","false","true","car","stimuli/prep_trials/1_car_prep.png","3","Car",""
"","28620","image-button-response","2","null","275438","685c6ca90f751d3aae6b1794","685c7181b8431c38078c9b31","67f020ded233a50f479c4c87","false","true","cat","stimuli/prep_trials/0_cat_prep.jpg","4","Cat",""
"","22226","image-button-response","3","null","298176","685c6ca90f751d3aae6b1794","685c7181b8431c38078c9b31","67f020ded233a50f479c4c87","false","false","Airplane","https://kisumu-drawings.s3-us-west-1.amazonaws.com/53-009.png","7","Hat","53-009.png"
"","6890","image-button-response","4","null","305586","685c6ca90f751d3aae6b1794","685c7181b8431c38078c9b31","67f020ded233a50f479c4c87","false","false","Cup","https://kisumu-drawings.s3-us-west-1.amazonaws.com/60-007.png","6","Cup","60-007.png"
"","12216","image-button-response","5","null","318312","685c6ca90f751d3aae6b1794","685c7181b8431c38078c9b31","67f020ded233a50f479c4c87","false","false","Car","https://kisumu-drawings.s3-us-west-1.amazonaws.com/76-014.png","3","Car","76-014.png"
"","9153","image-button-response","6","null","327989","685c6ca90f751d3aae6b1794","685c7181b8431c38078c9b31","67f020ded233a50f479c4c87","false","false","Airplane","https://kisumu-drawings.s3-us-west-1.amazonaws.com/96-009.png","0","Airplane","96-009.png"
"","66271","image-button-response","7","null","394775","685c6ca90f751d3aae6b1794","685c7181b8431c38078c9b31","67f020ded233a50f479c4c87","false","false","House","https://kisumu-drawings.s3-us-west-1.amazonaws.com/6-006.png","11","Watch","6-006.png"
"","4150","image-button-response","8","null","399439","685c6ca90f751d3aae6b1794","685c7181b8431c38078c9b31","67f020ded233a50f479c4c87","true","false","airplane","stimuli/catch_trials/0_airplane_catch.jpg","0","Airplane",""
"","12478","image-button-response","9","null","412435","685c6ca90f751d3aae6b1794","685c7181b8431c38078c9b31","67f020ded233a50f479c4c87","false","false","Hat","https://kisumu-drawings.s3-us-west-1.amazonaws.com/22-008.png","0","Airplane","22-008.png"
"","17675","image-button-response","10","null","430627","685c6ca90f751d3aae6b1794","685c7181b8431c38078c9b31","67f020ded233a50f479c4c87","false","false","Bicycle","https://kisumu-drawings.s3-us-west-1.amazonaws.com/69-014.png","1","Bicycle","69-014.png"
"","10242","image-button-response","11","null","441383","685c6ca90f751d3aae6b1794","685c7181b8431c38078c9b31","67f020ded233a50f479c4c87","false","false","Tree","https://kisumu-drawings.s3-us-west-1.amazonaws.com/105-013.png","10","Tree","105-013.png"
"","8200","image-button-response","12","null","450106","685c6ca90f751d3aae6b1794","685c7181b8431c38078c9b31","67f020ded233a50f479c4c87","false","false","Cup","https://kisumu-drawings.s3-us-west-1.amazonaws.com/22-015.png","6","Cup","22-015.png"
"","29793","image-button-response","13","null","480406","685c6ca90f751d3aae6b1794","685c7181b8431c38078c9b31","67f020ded233a50f479c4c87","false","false","Bicycle","https://kisumu-drawings.s3-us-west-1.amazonaws.com/9-008.png","5","Chair","9-008.png"
"","20500","image-button-response","14","null","501416","685c6ca90f751d3aae6b1794","685c7181b8431c38078c9b31","67f020ded233a50f479c4c87","false","false","Car","https://kisumu-drawings.s3-us-west-1.amazonaws.com/35-009.png","3","Car","35-009.png"
"","17104","image-button-response","15","null","519049","685c6ca90f751d3aae6b1794","685c7181b8431c38078c9b31","67f020ded233a50f479c4c87","false","false","Chair","https://kisumu-drawings.s3-us-west-1.amazonaws.com/50-014.png","8","House","50-014.png"
"","10729","image-button-response","16","null","530291","685c6ca90f751d3aae6b1794","685c7181b8431c38078c9b31","67f020ded233a50f479c4c87","false","false","Car","https://kisumu-drawings.s3-us-west-1.amazonaws.com/90-012.png","3","Car","90-012.png"
"","8506","image-button-response","17","null","539309","685c6ca90f751d3aae6b1794","685c7181b8431c38078c9b31","67f020ded233a50f479c4c87","false","false","Cat","https://kisumu-drawings.s3-us-west-1.amazonaws.com/62-011.png","4","Cat","62-011.png"
"","14972","image-button-response","18","null","554792","685c6ca90f751d3aae6b1794","685c7181b8431c38078c9b31","67f020ded233a50f479c4c87","false","false","Bird","https://kisumu-drawings.s3-us-west-1.amazonaws.com/72-016.png","10","Tree","72-016.png"
"","30504","image-button-response","19","null","585809","685c6ca90f751d3aae6b1794","685c7181b8431c38078c9b31","67f020ded233a50f479c4c87","false","false","Airplane","https://kisumu-drawings.s3-us-west-1.amazonaws.com/3-005.png","10","Tree","3-005.png"
"","13027","image-button-response","20","null","599354","685c6ca90f751d3aae6b1794","685c7181b8431c38078c9b31","67f020ded233a50f479c4c87","false","false","Hat","https://kisumu-drawings.s3-us-west-1.amazonaws.com/117-013.png","7","Hat","117-013.png"
"","13721","image-button-response","21","null","613598","685c6ca90f751d3aae6b1794","685c7181b8431c38078c9b31","67f020ded233a50f479c4c87","false","false","Bicycle","https://kisumu-drawings.s3-us-west-1.amazonaws.com/44-007.png","1","Bicycle","44-007.png"
"","9505","image-button-response","22","null","623619","685c6ca90f751d3aae6b1794","685c7181b8431c38078c9b31","67f020ded233a50f479c4c87","false","false","Hat","https://kisumu-drawings.s3-us-west-1.amazonaws.com/54-014.png","7","Hat","54-014.png"
"","7587","image-button-response","23","null","631727","685c6ca90f751d3aae6b1794","685c7181b8431c38078c9b31","67f020ded233a50f479c4c87","false","false","House","https://kisumu-drawings.s3-us-west-1.amazonaws.com/68-014.png","8","House","68-014.png"
"","5329","image-button-response","24","null","637568","685c6ca90f751d3aae6b1794","685c7181b8431c38078c9b31","67f020ded233a50f479c4c87","false","false","Bird","https://kisumu-drawings.s3-us-west-1.amazonaws.com/83-007.png","2","Bird","83-007.png"
"","5142","image-button-response","25","null","643229","685c6ca90f751d3aae6b1794","685c7181b8431c38078c9b31","67f020ded233a50f479c4c87","false","false","Cup","https://kisumu-drawings.s3-us-west-1.amazonaws.com/105-011.png","6","Cup","105-011.png"
"","3999","image-button-response","26","null","647741","685c6ca90f751d3aae6b1794","685c7181b8431c38078c9b31","67f020ded233a50f479c4c87","false","false","Tree","https://kisumu-drawings.s3-us-west-1.amazonaws.com/41-013.png","10","Tree","41-013.png"
"","7430","image-button-response","27","null","655687","685c6ca90f751d3aae6b1794","685c7181b8431c38078c9b31","67f020ded233a50f479c4c87","false","false","Airplane","https://kisumu-drawings.s3-us-west-1.amazonaws.com/63-009.png","0","Airplane","63-009.png"
"","11600","image-button-response","28","null","667809","685c6ca90f751d3aae6b1794","685c7181b8431c38078c9b31","67f020ded233a50f479c4c87","false","false","Bird","https://kisumu-drawings.s3-us-west-1.amazonaws.com/24-009.png","10","Tree","24-009.png"
"","6524","image-button-response","29","null","674842","685c6ca90f751d3aae6b1794","685c7181b8431c38078c9b31","67f020ded233a50f479c4c87","false","false","Tree","https://kisumu-drawings.s3-us-west-1.amazonaws.com/65-011.png","10","Tree","65-011.png"
"","16109","image-button-response","30","null","691468","685c6ca90f751d3aae6b1794","685c7181b8431c38078c9b31","67f020ded233a50f479c4c87","false","false","Rabbit","https://kisumu-drawings.s3-us-west-1.amazonaws.com/12-015.png","5","Chair","12-015.png"
"","8731","image-button-response","31","null","700709","685c6ca90f751d3aae6b1794","685c7181b8431c38078c9b31","67f020ded233a50f479c4c87","false","false","Chair","https://kisumu-drawings.s3-us-west-1.amazonaws.com/119-013.png","11","Watch","119-013.png"
"","10763","image-button-response","32","null","711978","685c6ca90f751d3aae6b1794","685c7181b8431c38078c9b31","67f020ded233a50f479c4c87","false","false","Rabbit","https://kisumu-drawings.s3-us-west-1.amazonaws.com/69-010.png","9","Rabbit","69-010.png"
"","10732","image-button-response","33","null","723219","685c6ca90f751d3aae6b1794","685c7181b8431c38078c9b31","67f020ded233a50f479c4c87","false","false","Car","https://kisumu-drawings.s3-us-west-1.amazonaws.com/17-012.png","3","Car","17-012.png"
"","7023","image-button-response","34","null","730750","685c6ca90f751d3aae6b1794","685c7181b8431c38078c9b31","67f020ded233a50f479c4c87","false","false","House","https://kisumu-drawings.s3-us-west-1.amazonaws.com/105-016.png","8","House","105-016.png"
"","5285","image-button-response","35","null","736553","685c6ca90f751d3aae6b1794","685c7181b8431c38078c9b31","67f020ded233a50f479c4c87","false","false","Cat","https://kisumu-drawings.s3-us-west-1.amazonaws.com/60-013.png","4","Cat","60-013.png"
"","24553","image-button-response","36","null","761620","685c6ca90f751d3aae6b1794","685c7181b8431c38078c9b31","67f020ded233a50f479c4c87","false","false","Bird","https://kisumu-drawings.s3-us-west-1.amazonaws.com/48-008.png","7","Hat","48-008.png"
"","10114","image-button-response","37","null","772248","685c6ca90f751d3aae6b1794","685c7181b8431c38078c9b31","67f020ded233a50f479c4c87","false","false","Hat","https://kisumu-drawings.s3-us-west-1.amazonaws.com/4-013.png","4","Cat","4-013.png"
"","8027","image-button-response","38","null","780788","685c6ca90f751d3aae6b1794","685c7181b8431c38078c9b31","67f020ded233a50f479c4c87","false","false","Watch","https://kisumu-drawings.s3-us-west-1.amazonaws.com/88-005.png","11","Watch","88-005.png"
"","13516","image-button-response","39","null","794812","685c6ca90f751d3aae6b1794","685c7181b8431c38078c9b31","67f020ded233a50f479c4c87","false","false","Rabbit","https://kisumu-drawings.s3-us-west-1.amazonaws.com/86-016.png","9","Rabbit","86-016.png"
"","9429","image-button-response","40","null","804750","685c6ca90f751d3aae6b1794","685c7181b8431c38078c9b31","67f020ded233a50f479c4c87","false","false","Chair","https://kisumu-drawings.s3-us-west-1.amazonaws.com/86-008.png","5","Chair","86-008.png"
"","6315","image-button-response","41","null","811585","685c6ca90f751d3aae6b1794","685c7181b8431c38078c9b31","67f020ded233a50f479c4c87","false","false","House","https://kisumu-drawings.s3-us-west-1.amazonaws.com/42-013.png","8","House","42-013.png"
"","8274","image-button-response","42","null","820373","685c6ca90f751d3aae6b1794","685c7181b8431c38078c9b31","67f020ded233a50f479c4c87","false","false","Hat","https://kisumu-drawings.s3-us-west-1.amazonaws.com/84-008.png","7","Hat","84-008.png"
"","8733","image-button-response","43","null","829623","685c6ca90f751d3aae6b1794","685c7181b8431c38078c9b31","67f020ded233a50f479c4c87","false","false","Cat","https://kisumu-drawings.s3-us-west-1.amazonaws.com/107-013.png","4","Cat","107-013.png"
"","11257","image-button-response","44","null","841394","685c6ca90f751d3aae6b1794","685c7181b8431c38078c9b31","67f020ded233a50f479c4c87","false","false","Airplane","https://kisumu-drawings.s3-us-west-1.amazonaws.com/112-015.png","0","Airplane","112-015.png"
"","15078","image-button-response","45","null","856988","685c6ca90f751d3aae6b1794","685c7181b8431c38078c9b31","67f020ded233a50f479c4c87","false","false","Rabbit","https://kisumu-drawings.s3-us-west-1.amazonaws.com/102-005.png","9","Rabbit","102-005.png"
"","20675","image-button-response","46","null","878185","685c6ca90f751d3aae6b1794","685c7181b8431c38078c9b31","67f020ded233a50f479c4c87","false","false","Tree","https://kisumu-drawings.s3-us-west-1.amazonaws.com/7-015.png","5","Chair","7-015.png"
"","19931","image-button-response","47","null","898624","685c6ca90f751d3aae6b1794","685c7181b8431c38078c9b31","67f020ded233a50f479c4c87","false","false","Watch","https://kisumu-drawings.s3-us-west-1.amazonaws.com/68-016.png","11","Watch","68-016.png"
"","8965","image-button-response","48","null","908106","685c6ca90f751d3aae6b1794","685c7181b8431c38078c9b31","67f020ded233a50f479c4c87","false","false","Cat","https://kisumu-drawings.s3-us-west-1.amazonaws.com/34-016.png","4","Cat","34-016.png"
"","8126","image-button-response","49","null","916743","685c6ca90f751d3aae6b1794","685c7181b8431c38078c9b31","67f020ded233a50f479c4c87","false","false","Tree","https://kisumu-drawings.s3-us-west-1.amazonaws.com/99-008.png","10","Tree","99-008.png"
"","7604","image-button-response","50","null","924853","685c6ca90f751d3aae6b1794","685c7181b8431c38078c9b31","67f020ded233a50f479c4c87","false","false","Cat","https://kisumu-drawings.s3-us-west-1.amazonaws.com/99-005.png","4","Cat","99-005.png"
"","14806","image-button-response","51","null","940179","685c6ca90f751d3aae6b1794","685c7181b8431c38078c9b31","67f020ded233a50f479c4c87","false","false","Rabbit","https://kisumu-drawings.s3-us-west-1.amazonaws.com/37-015.png","4","Cat","37-015.png"
"","9799","image-button-response","52","null","950493","685c6ca90f751d3aae6b1794","685c7181b8431c38078c9b31","67f020ded233a50f479c4c87","false","false","Bicycle","https://kisumu-drawings.s3-us-west-1.amazonaws.com/38-015.png","1","Bicycle","38-015.png"
"","15675","image-button-response","53","null","966675","685c6ca90f751d3aae6b1794","685c7181b8431c38078c9b31","67f020ded233a50f479c4c87","false","false","Chair","https://kisumu-drawings.s3-us-west-1.amazonaws.com/19-010.png","10","Tree","19-010.png"
"","11642","image-button-response","54","null","978829","685c6ca90f751d3aae6b1794","685c7181b8431c38078c9b31","67f020ded233a50f479c4c87","false","false","Cup","https://kisumu-drawings.s3-us-west-1.amazonaws.com/68-006.png","6","Cup","68-006.png"
"","19814","image-button-response","55","null","999155","685c6ca90f751d3aae6b1794","685c7181b8431c38078c9b31","67f020ded233a50f479c4c87","false","false","Watch","https://kisumu-drawings.s3-us-west-1.amazonaws.com/40-015.png","11","Watch","40-015.png"
"","8609","image-button-response","56","null","1008272","685c6ca90f751d3aae6b1794","685c7181b8431c38078c9b31","67f020ded233a50f479c4c87","false","false","Car","https://kisumu-drawings.s3-us-west-1.amazonaws.com/103-016.png","3","Car","103-016.png"
"","14469","image-button-response","57","null","1023250","685c6ca90f751d3aae6b1794","685c7181b8431c38078c9b31","67f020ded233a50f479c4c87","false","false","Hat","https://kisumu-drawings.s3-us-west-1.amazonaws.com/64-013.png","7","Hat","64-013.png"
"","15994","image-button-response","58","null","1039752","685c6ca90f751d3aae6b1794","685c7181b8431c38078c9b31","67f020ded233a50f479c4c87","false","false","Cup","https://kisumu-drawings.s3-us-west-1.amazonaws.com/97-008.png","6","Cup","97-008.png"
"","9668","image-button-response","59","null","1049938","685c6ca90f751d3aae6b1794","685c7181b8431c38078c9b31","67f020ded233a50f479c4c87","false","false","Watch","https://kisumu-drawings.s3-us-west-1.amazonaws.com/101-015.png","11","Watch","101-015.png"
"","12427","image-button-response","60","null","1062875","685c6ca90f751d3aae6b1794","685c7181b8431c38078c9b31","67f020ded233a50f479c4c87","false","false","Watch","https://kisumu-drawings.s3-us-west-1.amazonaws.com/47-012.png","11","Watch","47-012.png"
"","8094","image-button-response","61","null","1071479","685c6ca90f751d3aae6b1794","685c7181b8431c38078c9b31","67f020ded233a50f479c4c87","false","false","Car","https://kisumu-drawings.s3-us-west-1.amazonaws.com/49-009.png","3","Car","49-009.png"
"","6008","image-button-response","62","null","1077999","685c6ca90f751d3aae6b1794","685c7181b8431c38078c9b31","67f020ded233a50f479c4c87","false","false","Rabbit","https://kisumu-drawings.s3-us-west-1.amazonaws.com/53-011.png","4","Cat","53-011.png"
"","8467","image-button-response","63","null","1086980","685c6ca90f751d3aae6b1794","685c7181b8431c38078c9b31","67f020ded233a50f479c4c87","false","false","House","https://kisumu-drawings.s3-us-west-1.amazonaws.com/21-010.png","8","House","21-010.png"
"","9962","image-button-response","64","null","1097451","685c6ca90f751d3aae6b1794","685c7181b8431c38078c9b31","67f020ded233a50f479c4c87","false","false","Bird","https://kisumu-drawings.s3-us-west-1.amazonaws.com/120-009.png","4","Cat","120-009.png"
"","22635","image-button-response","65","null","1120603","685c6ca90f751d3aae6b1794","685c7181b8431c38078c9b31","67f020ded233a50f479c4c87","false","false","Cup","https://kisumu-drawings.s3-us-west-1.amazonaws.com/16-005.png","5","Chair","16-005.png"
"","20624","image-button-response","66","null","1141751","685c6ca90f751d3aae6b1794","685c7181b8431c38078c9b31","67f020ded233a50f479c4c87","false","false","Cat","https://kisumu-drawings.s3-us-west-1.amazonaws.com/9-012.png","5","Chair","9-012.png"
"","12777","image-button-response","67","null","1155040","685c6ca90f751d3aae6b1794","685c7181b8431c38078c9b31","67f020ded233a50f479c4c87","false","false","Airplane","https://kisumu-drawings.s3-us-west-1.amazonaws.com/28-006.png","10","Tree","28-006.png"
"","8978","image-button-response","68","null","1164532","685c6ca90f751d3aae6b1794","685c7181b8431c38078c9b31","67f020ded233a50f479c4c87","false","false","Bicycle","https://kisumu-drawings.s3-us-west-1.amazonaws.com/101-016.png","3","Car","101-016.png"
"","7885","image-button-response","69","null","1172925","685c6ca90f751d3aae6b1794","685c7181b8431c38078c9b31","67f020ded233a50f479c4c87","false","false","Bird","https://kisumu-drawings.s3-us-west-1.amazonaws.com/10-014.png","4","Cat","10-014.png"
"","7614","image-button-response","70","null","1181062","685c6ca90f751d3aae6b1794","685c7181b8431c38078c9b31","67f020ded233a50f479c4c87","false","false","Tree","https://kisumu-drawings.s3-us-west-1.amazonaws.com/24-013.png","10","Tree","24-013.png"
"","1655","image-button-response","71","null","1183230","685c6ca90f751d3aae6b1794","685c7181b8431c38078c9b31","67f020ded233a50f479c4c87","false","false","Chair","https://kisumu-drawings.s3-us-west-1.amazonaws.com/32-013.png","10","Tree","32-013.png"
"","17128","image-button-response","72","null","1200879","685c6ca90f751d3aae6b1794","685c7181b8431c38078c9b31","67f020ded233a50f479c4c87","false","false","Watch","https://kisumu-drawings.s3-us-west-1.amazonaws.com/3-016.png","11","Watch","3-016.png"
"","8159","image-button-response","73","null","1209550","685c6ca90f751d3aae6b1794","685c7181b8431c38078c9b31","67f020ded233a50f479c4c87","false","false","Bicycle","https://kisumu-drawings.s3-us-west-1.amazonaws.com/86-010.png","3","Car","86-010.png"
"","6942","image-button-response","74","null","1217003","685c6ca90f751d3aae6b1794","685c7181b8431c38078c9b31","67f020ded233a50f479c4c87","false","false","House","https://kisumu-drawings.s3-us-west-1.amazonaws.com/99-010.png","8","House","99-010.png"
"","8737","image-button-response","75","null","1226248","685c6ca90f751d3aae6b1794","685c7181b8431c38078c9b31","67f020ded233a50f479c4c87","false","false","Chair","https://kisumu-drawings.s3-us-west-1.amazonaws.com/71-011.png","5","Chair","71-011.png"
