"view_history","rt","trial_type","trial_index","plugin_version","time_elapsed","study_id","session_id","participant_id","catch_trial","prep_trial","sketcher_category","stimulus","response","response_category","sketch_id"
"[{""page_index"":0,""viewing_time"":278484},{""page_index"":1,""viewing_time"":2194},{""page_index"":2,""viewing_time"":3730},{""page_index"":3,""viewing_time"":6395}]","290804","instructions","0","null","290839","685c6ca90f751d3aae6b1794","685c6e3888e98503957f5e96","68363ccce4f7e617492664e2","","","","","","",""
"","6923","image-button-response","1","null","298784","685c6ca90f751d3aae6b1794","685c6e3888e98503957f5e96","68363ccce4f7e617492664e2","false","true","car","stimuli/prep_trials/1_car_prep.png","3","Car",""
"","3170","image-button-response","2","null","302463","685c6ca90f751d3aae6b1794","685c6e3888e98503957f5e96","68363ccce4f7e617492664e2","false","true","cat","stimuli/prep_trials/0_cat_prep.jpg","4","Cat",""
"","20803","image-button-response","3","null","323778","685c6ca90f751d3aae6b1794","685c6e3888e98503957f5e96","68363ccce4f7e617492664e2","false","false","Hat","https://kisumu-drawings.s3-us-west-1.amazonaws.com/77-008.png","2","Bird","77-008.png"
"","38656","image-button-response","4","null","362949","685c6ca90f751d3aae6b1794","685c6e3888e98503957f5e96","68363ccce4f7e617492664e2","false","false","Rabbit","https://kisumu-drawings.s3-us-west-1.amazonaws.com/78-015.png","9","Rabbit","78-015.png"
"","31013","image-button-response","5","null","394483","685c6ca90f751d3aae6b1794","685c6e3888e98503957f5e96","68363ccce4f7e617492664e2","false","false","Bicycle","https://kisumu-drawings.s3-us-west-1.amazonaws.com/43-007.png","6","Cup","43-007.png"
"","25489","image-button-response","6","null","420492","685c6ca90f751d3aae6b1794","685c6e3888e98503957f5e96","68363ccce4f7e617492664e2","false","false","Car","https://kisumu-drawings.s3-us-west-1.amazonaws.com/36-011.png","0","Airplane","36-011.png"
"","32000","image-button-response","7","null","453008","685c6ca90f751d3aae6b1794","685c6e3888e98503957f5e96","68363ccce4f7e617492664e2","false","false","Hat","https://kisumu-drawings.s3-us-west-1.amazonaws.com/37-011.png","6","Cup","37-011.png"
"","16183","image-button-response","8","null","469720","685c6ca90f751d3aae6b1794","685c6e3888e98503957f5e96","68363ccce4f7e617492664e2","false","false","Tree","https://kisumu-drawings.s3-us-west-1.amazonaws.com/16-015.png","1","Bicycle","16-015.png"
"","13867","image-button-response","9","null","484105","685c6ca90f751d3aae6b1794","685c6e3888e98503957f5e96","68363ccce4f7e617492664e2","false","false","Watch","https://kisumu-drawings.s3-us-west-1.amazonaws.com/45-013.png","4","Cat","45-013.png"
"","14785","image-button-response","10","null","499409","685c6ca90f751d3aae6b1794","685c6e3888e98503957f5e96","68363ccce4f7e617492664e2","false","false","Bird","https://kisumu-drawings.s3-us-west-1.amazonaws.com/15-010.png","7","Hat","15-010.png"
"","15214","image-button-response","11","null","515127","685c6ca90f751d3aae6b1794","685c6e3888e98503957f5e96","68363ccce4f7e617492664e2","false","false","Watch","https://kisumu-drawings.s3-us-west-1.amazonaws.com/37-005.png","11","Watch","37-005.png"
"","24083","image-button-response","12","null","539721","685c6ca90f751d3aae6b1794","685c6e3888e98503957f5e96","68363ccce4f7e617492664e2","false","false","House","https://kisumu-drawings.s3-us-west-1.amazonaws.com/84-014.png","8","House","84-014.png"
"","34032","image-button-response","13","null","574260","685c6ca90f751d3aae6b1794","685c6e3888e98503957f5e96","68363ccce4f7e617492664e2","false","false","Hat","https://kisumu-drawings.s3-us-west-1.amazonaws.com/45-009.png","11","Watch","45-009.png"
"","12569","image-button-response","14","null","587338","685c6ca90f751d3aae6b1794","685c6e3888e98503957f5e96","68363ccce4f7e617492664e2","false","false","Cup","https://kisumu-drawings.s3-us-west-1.amazonaws.com/45-008.png","6","Cup","45-008.png"
"","12389","image-button-response","15","null","600235","685c6ca90f751d3aae6b1794","685c6e3888e98503957f5e96","68363ccce4f7e617492664e2","false","false","Chair","https://kisumu-drawings.s3-us-west-1.amazonaws.com/37-013.png","8","House","37-013.png"
"","28719","image-button-response","16","null","629464","685c6ca90f751d3aae6b1794","685c6e3888e98503957f5e96","68363ccce4f7e617492664e2","false","false","Chair","https://kisumu-drawings.s3-us-west-1.amazonaws.com/45-007.png","10","Tree","45-007.png"
"","12511","image-button-response","17","null","642488","685c6ca90f751d3aae6b1794","685c6e3888e98503957f5e96","68363ccce4f7e617492664e2","false","false","Hat","https://kisumu-drawings.s3-us-west-1.amazonaws.com/117-013.png","6","Cup","117-013.png"
"","13081","image-button-response","18","null","656085","685c6ca90f751d3aae6b1794","685c6e3888e98503957f5e96","68363ccce4f7e617492664e2","false","false","Bicycle","https://kisumu-drawings.s3-us-west-1.amazonaws.com/35-008.png","4","Cat","35-008.png"
"","12003","image-button-response","19","null","668592","685c6ca90f751d3aae6b1794","685c6e3888e98503957f5e96","68363ccce4f7e617492664e2","false","false","Tree","https://kisumu-drawings.s3-us-west-1.amazonaws.com/37-016.png","10","Tree","37-016.png"
"","13055","image-button-response","20","null","682153","685c6ca90f751d3aae6b1794","685c6e3888e98503957f5e96","68363ccce4f7e617492664e2","false","false","Watch","https://kisumu-drawings.s3-us-west-1.amazonaws.com/82-008.png","11","Watch","82-008.png"
"","12382","image-button-response","21","null","695055","685c6ca90f751d3aae6b1794","685c6e3888e98503957f5e96","68363ccce4f7e617492664e2","false","false","Cat","https://kisumu-drawings.s3-us-west-1.amazonaws.com/77-007.png","4","Cat","77-007.png"
"","10167","image-button-response","22","null","705743","685c6ca90f751d3aae6b1794","685c6e3888e98503957f5e96","68363ccce4f7e617492664e2","false","false","Airplane","https://kisumu-drawings.s3-us-west-1.amazonaws.com/43-005.png","2","Bird","43-005.png"
"","4518","image-button-response","23","null","710772","685c6ca90f751d3aae6b1794","685c6e3888e98503957f5e96","68363ccce4f7e617492664e2","true","false","airplane","stimuli/catch_trials/0_airplane_catch.jpg","0","Airplane",""
"","458","image-button-response","24","null","711742","685c6ca90f751d3aae6b1794","685c6e3888e98503957f5e96","68363ccce4f7e617492664e2","false","false","Tree","https://kisumu-drawings.s3-us-west-1.amazonaws.com/77-012.png","0","Airplane","77-012.png"
"","23715","image-button-response","25","null","735969","685c6ca90f751d3aae6b1794","685c6e3888e98503957f5e96","68363ccce4f7e617492664e2","false","false","Car","https://kisumu-drawings.s3-us-west-1.amazonaws.com/15-013.png","7","Hat","15-013.png"
"","15014","image-button-response","26","null","751502","685c6ca90f751d3aae6b1794","685c6e3888e98503957f5e96","68363ccce4f7e617492664e2","false","false","Airplane","https://kisumu-drawings.s3-us-west-1.amazonaws.com/81-014.png","0","Airplane","81-014.png"
"","83789","image-button-response","27","null","835806","685c6ca90f751d3aae6b1794","685c6e3888e98503957f5e96","68363ccce4f7e617492664e2","false","false","Car","https://kisumu-drawings.s3-us-west-1.amazonaws.com/44-011.png","2","Bird","44-011.png"
"","15282","image-button-response","28","null","851610","685c6ca90f751d3aae6b1794","685c6e3888e98503957f5e96","68363ccce4f7e617492664e2","false","false","Bird","https://kisumu-drawings.s3-us-west-1.amazonaws.com/117-011.png","2","Bird","117-011.png"
"","12791","image-button-response","29","null","864909","685c6ca90f751d3aae6b1794","685c6e3888e98503957f5e96","68363ccce4f7e617492664e2","false","false","Hat","https://kisumu-drawings.s3-us-west-1.amazonaws.com/83-010.png","7","Hat","83-010.png"
"","19949","image-button-response","30","null","885369","685c6ca90f751d3aae6b1794","685c6e3888e98503957f5e96","68363ccce4f7e617492664e2","false","false","Chair","https://kisumu-drawings.s3-us-west-1.amazonaws.com/77-010.png","5","Chair","77-010.png"
"","11461","image-button-response","31","null","897357","685c6ca90f751d3aae6b1794","685c6e3888e98503957f5e96","68363ccce4f7e617492664e2","false","false","Cup","https://kisumu-drawings.s3-us-west-1.amazonaws.com/37-010.png","6","Cup","37-010.png"
"","29555","image-button-response","32","null","927432","685c6ca90f751d3aae6b1794","685c6e3888e98503957f5e96","68363ccce4f7e617492664e2","false","false","Airplane","https://kisumu-drawings.s3-us-west-1.amazonaws.com/35-006.png","4","Cat","35-006.png"
"","12273","image-button-response","33","null","940211","685c6ca90f751d3aae6b1794","685c6e3888e98503957f5e96","68363ccce4f7e617492664e2","false","false","House","https://kisumu-drawings.s3-us-west-1.amazonaws.com/77-016.png","8","House","77-016.png"
"","14036","image-button-response","34","null","954752","685c6ca90f751d3aae6b1794","685c6e3888e98503957f5e96","68363ccce4f7e617492664e2","false","false","Cup","https://kisumu-drawings.s3-us-west-1.amazonaws.com/117-006.png","6","Cup","117-006.png"
"","12294","image-button-response","35","null","967556","685c6ca90f751d3aae6b1794","685c6e3888e98503957f5e96","68363ccce4f7e617492664e2","false","false","House","https://kisumu-drawings.s3-us-west-1.amazonaws.com/118-011.png","8","House","118-011.png"
"","15365","image-button-response","36","null","983437","685c6ca90f751d3aae6b1794","685c6e3888e98503957f5e96","68363ccce4f7e617492664e2","false","false","Airplane","https://kisumu-drawings.s3-us-west-1.amazonaws.com/115-005.png","0","Airplane","115-005.png"
"","10950","image-button-response","37","null","994892","685c6ca90f751d3aae6b1794","685c6e3888e98503957f5e96","68363ccce4f7e617492664e2","false","false","Bird","https://kisumu-drawings.s3-us-west-1.amazonaws.com/76-013.png","2","Bird","76-013.png"
"","12474","image-button-response","38","null","1007882","685c6ca90f751d3aae6b1794","685c6e3888e98503957f5e96","68363ccce4f7e617492664e2","false","false","Cup","https://kisumu-drawings.s3-us-west-1.amazonaws.com/83-011.png","6","Cup","83-011.png"
"","10970","image-button-response","39","null","1019365","685c6ca90f751d3aae6b1794","685c6e3888e98503957f5e96","68363ccce4f7e617492664e2","false","false","Bird","https://kisumu-drawings.s3-us-west-1.amazonaws.com/44-010.png","0","Airplane","44-010.png"
"","12714","image-button-response","40","null","1032608","685c6ca90f751d3aae6b1794","685c6e3888e98503957f5e96","68363ccce4f7e617492664e2","false","false","House","https://kisumu-drawings.s3-us-west-1.amazonaws.com/37-014.png","7","Hat","37-014.png"
"","18118","image-button-response","41","null","1051230","685c6ca90f751d3aae6b1794","685c6e3888e98503957f5e96","68363ccce4f7e617492664e2","false","false","Cat","https://kisumu-drawings.s3-us-west-1.amazonaws.com/37-012.png","4","Cat","37-012.png"
"","13628","image-button-response","42","null","1065371","685c6ca90f751d3aae6b1794","685c6e3888e98503957f5e96","68363ccce4f7e617492664e2","false","false","Cat","https://kisumu-drawings.s3-us-west-1.amazonaws.com/45-006.png","4","Cat","45-006.png"
"","21835","image-button-response","43","null","1087729","685c6ca90f751d3aae6b1794","685c6e3888e98503957f5e96","68363ccce4f7e617492664e2","false","false","Cat","https://kisumu-drawings.s3-us-west-1.amazonaws.com/16-007.png","1","Bicycle","16-007.png"
"","17200","image-button-response","44","null","1105447","685c6ca90f751d3aae6b1794","685c6e3888e98503957f5e96","68363ccce4f7e617492664e2","false","false","House","https://kisumu-drawings.s3-us-west-1.amazonaws.com/45-010.png","8","House","45-010.png"
"","12848","image-button-response","45","null","1118797","685c6ca90f751d3aae6b1794","685c6e3888e98503957f5e96","68363ccce4f7e617492664e2","false","false","Chair","https://kisumu-drawings.s3-us-west-1.amazonaws.com/16-008.png","1","Bicycle","16-008.png"
"","12788","image-button-response","46","null","1132097","685c6ca90f751d3aae6b1794","685c6e3888e98503957f5e96","68363ccce4f7e617492664e2","false","false","Rabbit","https://kisumu-drawings.s3-us-west-1.amazonaws.com/17-009.png","4","Cat","17-009.png"
"","12768","image-button-response","47","null","1145374","685c6ca90f751d3aae6b1794","685c6e3888e98503957f5e96","68363ccce4f7e617492664e2","false","false","Chair","https://kisumu-drawings.s3-us-west-1.amazonaws.com/83-014.png","5","Chair","83-014.png"
"","31222","image-button-response","48","null","1177110","685c6ca90f751d3aae6b1794","685c6e3888e98503957f5e96","68363ccce4f7e617492664e2","false","false","House","https://kisumu-drawings.s3-us-west-1.amazonaws.com/16-014.png","2","Bird","16-014.png"
"","16873","image-button-response","49","null","1194488","685c6ca90f751d3aae6b1794","685c6e3888e98503957f5e96","68363ccce4f7e617492664e2","false","false","Cat","https://kisumu-drawings.s3-us-west-1.amazonaws.com/117-009.png","4","Cat","117-009.png"
"","23326","image-button-response","50","null","1218327","685c6ca90f751d3aae6b1794","685c6e3888e98503957f5e96","68363ccce4f7e617492664e2","false","false","Car","https://kisumu-drawings.s3-us-west-1.amazonaws.com/77-015.png","3","Car","77-015.png"
"","25591","image-button-response","51","null","1244436","685c6ca90f751d3aae6b1794","685c6e3888e98503957f5e96","68363ccce4f7e617492664e2","false","false","Watch","https://kisumu-drawings.s3-us-west-1.amazonaws.com/77-013.png","11","Watch","77-013.png"
"","18618","image-button-response","52","null","1263567","685c6ca90f751d3aae6b1794","685c6e3888e98503957f5e96","68363ccce4f7e617492664e2","false","false","Watch","https://kisumu-drawings.s3-us-west-1.amazonaws.com/116-007.png","11","Watch","116-007.png"
"","13364","image-button-response","53","null","1277439","685c6ca90f751d3aae6b1794","685c6e3888e98503957f5e96","68363ccce4f7e617492664e2","false","false","Cup","https://kisumu-drawings.s3-us-west-1.amazonaws.com/16-005.png","2","Bird","16-005.png"
"","14621","image-button-response","54","null","1292581","685c6ca90f751d3aae6b1794","685c6e3888e98503957f5e96","68363ccce4f7e617492664e2","false","false","Airplane","https://kisumu-drawings.s3-us-west-1.amazonaws.com/13-006.png","9","Rabbit","13-006.png"
"","62072","image-button-response","55","null","1355160","685c6ca90f751d3aae6b1794","685c6e3888e98503957f5e96","68363ccce4f7e617492664e2","false","false","Rabbit","https://kisumu-drawings.s3-us-west-1.amazonaws.com/37-015.png","5","Chair","37-015.png"
"","12810","image-button-response","56","null","1368485","685c6ca90f751d3aae6b1794","685c6e3888e98503957f5e96","68363ccce4f7e617492664e2","false","false","Rabbit","https://kisumu-drawings.s3-us-west-1.amazonaws.com/83-016.png","4","Cat","83-016.png"
"","31336","image-button-response","57","null","1400346","685c6ca90f751d3aae6b1794","685c6e3888e98503957f5e96","68363ccce4f7e617492664e2","false","false","Tree","https://kisumu-drawings.s3-us-west-1.amazonaws.com/45-012.png","10","Tree","45-012.png"
"","16503","image-button-response","58","null","1417366","685c6ca90f751d3aae6b1794","685c6e3888e98503957f5e96","68363ccce4f7e617492664e2","false","false","Tree","https://kisumu-drawings.s3-us-west-1.amazonaws.com/117-012.png","10","Tree","117-012.png"
"","14637","image-button-response","59","null","1432528","685c6ca90f751d3aae6b1794","685c6e3888e98503957f5e96","68363ccce4f7e617492664e2","false","false","Rabbit","https://kisumu-drawings.s3-us-west-1.amazonaws.com/46-016.png","4","Cat","46-016.png"
"","14736","image-button-response","60","null","1447767","685c6ca90f751d3aae6b1794","685c6e3888e98503957f5e96","68363ccce4f7e617492664e2","false","false","Bird","https://kisumu-drawings.s3-us-west-1.amazonaws.com/82-013.png","2","Bird","82-013.png"
"","27306","image-button-response","61","null","1475585","685c6ca90f751d3aae6b1794","685c6e3888e98503957f5e96","68363ccce4f7e617492664e2","false","false","Car","https://kisumu-drawings.s3-us-west-1.amazonaws.com/83-009.png","4","Cat","83-009.png"
"","13516","image-button-response","62","null","1489613","685c6ca90f751d3aae6b1794","685c6e3888e98503957f5e96","68363ccce4f7e617492664e2","false","false","Rabbit","https://kisumu-drawings.s3-us-west-1.amazonaws.com/117-005.png","4","Cat","117-005.png"
"","13168","image-button-response","63","null","1503289","685c6ca90f751d3aae6b1794","685c6e3888e98503957f5e96","68363ccce4f7e617492664e2","false","false","Car","https://kisumu-drawings.s3-us-west-1.amazonaws.com/116-011.png","3","Car","116-011.png"
"","17235","image-button-response","64","null","1521034","685c6ca90f751d3aae6b1794","685c6e3888e98503957f5e96","68363ccce4f7e617492664e2","false","false","Bicycle","https://kisumu-drawings.s3-us-west-1.amazonaws.com/81-011.png","1","Bicycle","81-011.png"
"","19032","image-button-response","65","null","1540574","685c6ca90f751d3aae6b1794","685c6e3888e98503957f5e96","68363ccce4f7e617492664e2","false","false","Bicycle","https://kisumu-drawings.s3-us-west-1.amazonaws.com/75-011.png","9","Rabbit","75-011.png"
"","12912","image-button-response","66","null","1553996","685c6ca90f751d3aae6b1794","685c6e3888e98503957f5e96","68363ccce4f7e617492664e2","false","false","Bicycle","https://kisumu-drawings.s3-us-west-1.amazonaws.com/116-005.png","1","Bicycle","116-005.png"
"","12589","image-button-response","67","null","1567095","685c6ca90f751d3aae6b1794","685c6e3888e98503957f5e96","68363ccce4f7e617492664e2","false","false","Tree","https://kisumu-drawings.s3-us-west-1.amazonaws.com/83-013.png","10","Tree","83-013.png"
"","24330","image-button-response","68","null","1591937","685c6ca90f751d3aae6b1794","685c6e3888e98503957f5e96","68363ccce4f7e617492664e2","false","false","Watch","https://kisumu-drawings.s3-us-west-1.amazonaws.com/16-009.png","1","Bicycle","16-009.png"
"","26770","image-button-response","69","null","1619212","685c6ca90f751d3aae6b1794","685c6e3888e98503957f5e96","68363ccce4f7e617492664e2","false","false","Bicycle","https://kisumu-drawings.s3-us-west-1.amazonaws.com/14-011.png","11","Watch","14-011.png"
"","12861","image-button-response","70","null","1632580","685c6ca90f751d3aae6b1794","685c6e3888e98503957f5e96","68363ccce4f7e617492664e2","false","false","Cup","https://kisumu-drawings.s3-us-west-1.amazonaws.com/77-005.png","6","Cup","77-005.png"
"","16035","image-button-response","71","null","1649121","685c6ca90f751d3aae6b1794","685c6e3888e98503957f5e96","68363ccce4f7e617492664e2","false","false","Chair","https://kisumu-drawings.s3-us-west-1.amazonaws.com/117-010.png","5","Chair","117-010.png"
"","15061","image-button-response","72","null","1664687","685c6ca90f751d3aae6b1794","685c6e3888e98503957f5e96","68363ccce4f7e617492664e2","false","false","Cat","https://kisumu-drawings.s3-us-west-1.amazonaws.com/82-015.png","4","Cat","82-015.png"
"","22164","image-button-response","73","null","1687358","685c6ca90f751d3aae6b1794","685c6e3888e98503957f5e96","68363ccce4f7e617492664e2","false","false","Airplane","https://kisumu-drawings.s3-us-west-1.amazonaws.com/75-010.png","0","Airplane","75-010.png"
"","20468","image-button-response","74","null","1708346","685c6ca90f751d3aae6b1794","685c6e3888e98503957f5e96","68363ccce4f7e617492664e2","false","false","Bird","https://kisumu-drawings.s3-us-west-1.amazonaws.com/36-016.png","2","Bird","36-016.png"
"","16020","image-button-response","75","null","1724869","685c6ca90f751d3aae6b1794","685c6e3888e98503957f5e96","68363ccce4f7e617492664e2","false","false","Hat","https://kisumu-drawings.s3-us-west-1.amazonaws.com/15-016.png","11","Watch","15-016.png"
