"view_history","rt","trial_type","trial_index","plugin_version","time_elapsed","study_id","session_id","participant_id","catch_trial","prep_trial","sketcher_category","stimulus","response","response_category","sketch_id"
"[{""page_index"":0,""viewing_time"":783885},{""page_index"":1,""viewing_time"":1304},{""page_index"":2,""viewing_time"":7099},{""page_index"":3,""viewing_time"":1845}]","794134","instructions","0","null","794198","685c6ca90f751d3aae6b1794","685c6e45bee7a203a215a06b","6837453fc6c44bcd2835e557","","","","","","",""
"","3680","image-button-response","1","null","798896","685c6ca90f751d3aae6b1794","685c6e45bee7a203a215a06b","6837453fc6c44bcd2835e557","false","true","car","stimuli/prep_trials/1_car_prep.png","3","Car",""
"","2023","image-button-response","2","null","801430","685c6ca90f751d3aae6b1794","685c6e45bee7a203a215a06b","6837453fc6c44bcd2835e557","false","true","cat","stimuli/prep_trials/0_cat_prep.jpg","4","Cat",""
"","7567","image-button-response","3","null","809513","685c6ca90f751d3aae6b1794","685c6e45bee7a203a215a06b","6837453fc6c44bcd2835e557","false","false","Hat","https://kisumu-drawings.s3-us-west-1.amazonaws.com/77-008.png","6","Cup","77-008.png"
"","6377","image-button-response","4","null","816407","685c6ca90f751d3aae6b1794","685c6e45bee7a203a215a06b","6837453fc6c44bcd2835e557","false","false","Cup","https://kisumu-drawings.s3-us-west-1.amazonaws.com/116-008.png","6","Cup","116-008.png"
"","5810","image-button-response","5","null","822728","685c6ca90f751d3aae6b1794","685c6e45bee7a203a215a06b","6837453fc6c44bcd2835e557","false","false","Rabbit","https://kisumu-drawings.s3-us-west-1.amazonaws.com/45-011.png","4","Cat","45-011.png"
"","9987","image-button-response","6","null","833231","685c6ca90f751d3aae6b1794","685c6e45bee7a203a215a06b","6837453fc6c44bcd2835e557","false","false","Watch","https://kisumu-drawings.s3-us-west-1.amazonaws.com/76-007.png","10","Tree","76-007.png"
"","7650","image-button-response","7","null","841389","685c6ca90f751d3aae6b1794","685c6e45bee7a203a215a06b","6837453fc6c44bcd2835e557","false","false","Airplane","https://kisumu-drawings.s3-us-west-1.amazonaws.com/75-010.png","0","Airplane","75-010.png"
"","8798","image-button-response","8","null","850694","685c6ca90f751d3aae6b1794","685c6e45bee7a203a215a06b","6837453fc6c44bcd2835e557","false","false","Rabbit","https://kisumu-drawings.s3-us-west-1.amazonaws.com/77-009.png","4","Cat","77-009.png"
"","9035","image-button-response","9","null","860246","685c6ca90f751d3aae6b1794","685c6e45bee7a203a215a06b","6837453fc6c44bcd2835e557","false","false","House","https://kisumu-drawings.s3-us-west-1.amazonaws.com/16-014.png","6","Cup","16-014.png"
"","5318","image-button-response","10","null","866079","685c6ca90f751d3aae6b1794","685c6e45bee7a203a215a06b","6837453fc6c44bcd2835e557","false","false","Cup","https://kisumu-drawings.s3-us-west-1.amazonaws.com/82-016.png","6","Cup","82-016.png"
"","3939","image-button-response","11","null","870528","685c6ca90f751d3aae6b1794","685c6e45bee7a203a215a06b","6837453fc6c44bcd2835e557","false","false","Cat","https://kisumu-drawings.s3-us-west-1.amazonaws.com/116-012.png","4","Cat","116-012.png"
"","7375","image-button-response","12","null","878412","685c6ca90f751d3aae6b1794","685c6e45bee7a203a215a06b","6837453fc6c44bcd2835e557","false","false","Watch","https://kisumu-drawings.s3-us-west-1.amazonaws.com/44-006.png","11","Watch","44-006.png"
"","6432","image-button-response","13","null","885363","685c6ca90f751d3aae6b1794","685c6e45bee7a203a215a06b","6837453fc6c44bcd2835e557","false","false","Rabbit","https://kisumu-drawings.s3-us-west-1.amazonaws.com/37-015.png","4","Cat","37-015.png"
"","4540","image-button-response","14","null","890413","685c6ca90f751d3aae6b1794","685c6e45bee7a203a215a06b","6837453fc6c44bcd2835e557","false","false","Watch","https://kisumu-drawings.s3-us-west-1.amazonaws.com/37-005.png","11","Watch","37-005.png"
"","9186","image-button-response","15","null","900112","685c6ca90f751d3aae6b1794","685c6e45bee7a203a215a06b","6837453fc6c44bcd2835e557","false","false","Bicycle","https://kisumu-drawings.s3-us-west-1.amazonaws.com/115-008.png","1","Bicycle","115-008.png"
"","9833","image-button-response","16","null","910458","685c6ca90f751d3aae6b1794","685c6e45bee7a203a215a06b","6837453fc6c44bcd2835e557","false","false","Bird","https://kisumu-drawings.s3-us-west-1.amazonaws.com/14-013.png","11","Watch","14-013.png"
"","7746","image-button-response","17","null","918712","685c6ca90f751d3aae6b1794","685c6e45bee7a203a215a06b","6837453fc6c44bcd2835e557","false","false","Chair","https://kisumu-drawings.s3-us-west-1.amazonaws.com/36-013.png","1","Bicycle","36-013.png"
"","7357","image-button-response","18","null","926580","685c6ca90f751d3aae6b1794","685c6e45bee7a203a215a06b","6837453fc6c44bcd2835e557","false","false","Tree","https://kisumu-drawings.s3-us-west-1.amazonaws.com/117-012.png","10","Tree","117-012.png"
"","7558","image-button-response","19","null","934646","685c6ca90f751d3aae6b1794","685c6e45bee7a203a215a06b","6837453fc6c44bcd2835e557","false","false","Bicycle","https://kisumu-drawings.s3-us-west-1.amazonaws.com/14-011.png","11","Watch","14-011.png"
"","8340","image-button-response","20","null","943495","685c6ca90f751d3aae6b1794","685c6e45bee7a203a215a06b","6837453fc6c44bcd2835e557","false","false","Bird","https://kisumu-drawings.s3-us-west-1.amazonaws.com/116-010.png","10","Tree","116-010.png"
"","7402","image-button-response","21","null","951414","685c6ca90f751d3aae6b1794","685c6e45bee7a203a215a06b","6837453fc6c44bcd2835e557","false","false","Rabbit","https://kisumu-drawings.s3-us-west-1.amazonaws.com/83-016.png","9","Rabbit","83-016.png"
"","6373","image-button-response","22","null","958291","685c6ca90f751d3aae6b1794","685c6e45bee7a203a215a06b","6837453fc6c44bcd2835e557","false","false","Airplane","https://kisumu-drawings.s3-us-west-1.amazonaws.com/42-016.png","0","Airplane","42-016.png"
"","3317","image-button-response","23","null","962116","685c6ca90f751d3aae6b1794","685c6e45bee7a203a215a06b","6837453fc6c44bcd2835e557","false","false","Bird","https://kisumu-drawings.s3-us-west-1.amazonaws.com/76-013.png","0","Airplane","76-013.png"
"","5816","image-button-response","24","null","968446","685c6ca90f751d3aae6b1794","685c6e45bee7a203a215a06b","6837453fc6c44bcd2835e557","false","false","House","https://kisumu-drawings.s3-us-west-1.amazonaws.com/77-016.png","8","House","77-016.png"
"","8660","image-button-response","25","null","977620","685c6ca90f751d3aae6b1794","685c6e45bee7a203a215a06b","6837453fc6c44bcd2835e557","false","false","Chair","https://kisumu-drawings.s3-us-west-1.amazonaws.com/83-014.png","5","Chair","83-014.png"
"","6174","image-button-response","26","null","984313","685c6ca90f751d3aae6b1794","685c6e45bee7a203a215a06b","6837453fc6c44bcd2835e557","false","false","Airplane","https://kisumu-drawings.s3-us-west-1.amazonaws.com/13-006.png","6","Cup","13-006.png"
"","5945","image-button-response","27","null","990773","685c6ca90f751d3aae6b1794","685c6e45bee7a203a215a06b","6837453fc6c44bcd2835e557","false","false","Car","https://kisumu-drawings.s3-us-west-1.amazonaws.com/15-013.png","6","Cup","15-013.png"
"","3800","image-button-response","28","null","995079","685c6ca90f751d3aae6b1794","685c6e45bee7a203a215a06b","6837453fc6c44bcd2835e557","false","false","Tree","https://kisumu-drawings.s3-us-west-1.amazonaws.com/37-016.png","10","Tree","37-016.png"
"","4555","image-button-response","29","null","1000150","685c6ca90f751d3aae6b1794","685c6e45bee7a203a215a06b","6837453fc6c44bcd2835e557","false","false","Chair","https://kisumu-drawings.s3-us-west-1.amazonaws.com/116-013.png","5","Chair","116-013.png"
"","3443","image-button-response","30","null","1004098","685c6ca90f751d3aae6b1794","685c6e45bee7a203a215a06b","6837453fc6c44bcd2835e557","false","false","Cup","https://kisumu-drawings.s3-us-west-1.amazonaws.com/44-012.png","6","Cup","44-012.png"
"","3586","image-button-response","31","null","1008190","685c6ca90f751d3aae6b1794","685c6e45bee7a203a215a06b","6837453fc6c44bcd2835e557","false","false","Airplane","https://kisumu-drawings.s3-us-west-1.amazonaws.com/115-005.png","0","Airplane","115-005.png"
"","3944","image-button-response","32","null","1012648","685c6ca90f751d3aae6b1794","685c6e45bee7a203a215a06b","6837453fc6c44bcd2835e557","false","false","Cat","https://kisumu-drawings.s3-us-west-1.amazonaws.com/45-006.png","4","Cat","45-006.png"
"","5457","image-button-response","33","null","1018612","685c6ca90f751d3aae6b1794","685c6e45bee7a203a215a06b","6837453fc6c44bcd2835e557","false","false","Bird","https://kisumu-drawings.s3-us-west-1.amazonaws.com/36-016.png","0","Airplane","36-016.png"
"","5557","image-button-response","34","null","1024678","685c6ca90f751d3aae6b1794","685c6e45bee7a203a215a06b","6837453fc6c44bcd2835e557","false","false","Bicycle","https://kisumu-drawings.s3-us-west-1.amazonaws.com/35-008.png","0","Airplane","35-008.png"
"","5061","image-button-response","35","null","1030247","685c6ca90f751d3aae6b1794","685c6e45bee7a203a215a06b","6837453fc6c44bcd2835e557","false","false","Rabbit","https://kisumu-drawings.s3-us-west-1.amazonaws.com/16-016.png","1","Bicycle","16-016.png"
"","6048","image-button-response","36","null","1036813","685c6ca90f751d3aae6b1794","685c6e45bee7a203a215a06b","6837453fc6c44bcd2835e557","false","false","Car","https://kisumu-drawings.s3-us-west-1.amazonaws.com/116-011.png","3","Car","116-011.png"
"","3608","image-button-response","37","null","1040929","685c6ca90f751d3aae6b1794","685c6e45bee7a203a215a06b","6837453fc6c44bcd2835e557","false","false","Tree","https://kisumu-drawings.s3-us-west-1.amazonaws.com/45-012.png","10","Tree","45-012.png"
"","6888","image-button-response","38","null","1048332","685c6ca90f751d3aae6b1794","685c6e45bee7a203a215a06b","6837453fc6c44bcd2835e557","false","false","Cup","https://kisumu-drawings.s3-us-west-1.amazonaws.com/15-015.png","6","Cup","15-015.png"
"","6087","image-button-response","39","null","1054930","685c6ca90f751d3aae6b1794","685c6e45bee7a203a215a06b","6837453fc6c44bcd2835e557","false","false","Hat","https://kisumu-drawings.s3-us-west-1.amazonaws.com/83-010.png","8","House","83-010.png"
"","6839","image-button-response","40","null","1062279","685c6ca90f751d3aae6b1794","685c6e45bee7a203a215a06b","6837453fc6c44bcd2835e557","false","false","Tree","https://kisumu-drawings.s3-us-west-1.amazonaws.com/83-013.png","10","Tree","83-013.png"
"","4150","image-button-response","41","null","1066948","685c6ca90f751d3aae6b1794","685c6e45bee7a203a215a06b","6837453fc6c44bcd2835e557","false","false","Cup","https://kisumu-drawings.s3-us-west-1.amazonaws.com/76-010.png","6","Cup","76-010.png"
"","2944","image-button-response","42","null","1070399","685c6ca90f751d3aae6b1794","685c6e45bee7a203a215a06b","6837453fc6c44bcd2835e557","false","false","Cat","https://kisumu-drawings.s3-us-west-1.amazonaws.com/15-014.png","6","Cup","15-014.png"
"","5807","image-button-response","43","null","1076723","685c6ca90f751d3aae6b1794","685c6e45bee7a203a215a06b","6837453fc6c44bcd2835e557","false","false","Bird","https://kisumu-drawings.s3-us-west-1.amazonaws.com/44-010.png","0","Airplane","44-010.png"
"","7218","image-button-response","44","null","1084457","685c6ca90f751d3aae6b1794","685c6e45bee7a203a215a06b","6837453fc6c44bcd2835e557","false","false","Watch","https://kisumu-drawings.s3-us-west-1.amazonaws.com/116-007.png","10","Tree","116-007.png"
"","4140","image-button-response","45","null","1089113","685c6ca90f751d3aae6b1794","685c6e45bee7a203a215a06b","6837453fc6c44bcd2835e557","false","false","Cat","https://kisumu-drawings.s3-us-west-1.amazonaws.com/76-015.png","4","Cat","76-015.png"
"","5112","image-button-response","46","null","1094729","685c6ca90f751d3aae6b1794","685c6e45bee7a203a215a06b","6837453fc6c44bcd2835e557","false","false","Chair","https://kisumu-drawings.s3-us-west-1.amazonaws.com/44-013.png","0","Airplane","44-013.png"
"","3918","image-button-response","47","null","1099163","685c6ca90f751d3aae6b1794","685c6e45bee7a203a215a06b","6837453fc6c44bcd2835e557","false","false","Hat","https://kisumu-drawings.s3-us-west-1.amazonaws.com/117-013.png","7","Hat","117-013.png"
"","6633","image-button-response","48","null","1106315","685c6ca90f751d3aae6b1794","685c6e45bee7a203a215a06b","6837453fc6c44bcd2835e557","false","false","Car","https://kisumu-drawings.s3-us-west-1.amazonaws.com/83-009.png","3","Car","83-009.png"
"","7062","image-button-response","49","null","1113885","685c6ca90f751d3aae6b1794","685c6e45bee7a203a215a06b","6837453fc6c44bcd2835e557","false","false","House","https://kisumu-drawings.s3-us-west-1.amazonaws.com/117-014.png","8","House","117-014.png"
"","5224","image-button-response","50","null","1119625","685c6ca90f751d3aae6b1794","685c6e45bee7a203a215a06b","6837453fc6c44bcd2835e557","false","false","Bicycle","https://kisumu-drawings.s3-us-west-1.amazonaws.com/81-011.png","1","Bicycle","81-011.png"
"","3983","image-button-response","51","null","1124123","685c6ca90f751d3aae6b1794","685c6e45bee7a203a215a06b","6837453fc6c44bcd2835e557","false","false","Car","https://kisumu-drawings.s3-us-west-1.amazonaws.com/36-011.png","3","Car","36-011.png"
"","3639","image-button-response","52","null","1128278","685c6ca90f751d3aae6b1794","685c6e45bee7a203a215a06b","6837453fc6c44bcd2835e557","false","false","Cat","https://kisumu-drawings.s3-us-west-1.amazonaws.com/36-012.png","4","Cat","36-012.png"
"","3892","image-button-response","53","null","1132681","685c6ca90f751d3aae6b1794","685c6e45bee7a203a215a06b","6837453fc6c44bcd2835e557","false","false","Chair","https://kisumu-drawings.s3-us-west-1.amazonaws.com/15-009.png","6","Cup","15-009.png"
"","4652","image-button-response","54","null","1137847","685c6ca90f751d3aae6b1794","685c6e45bee7a203a215a06b","6837453fc6c44bcd2835e557","false","false","Cat","https://kisumu-drawings.s3-us-west-1.amazonaws.com/82-015.png","4","Cat","82-015.png"
"","4073","image-button-response","55","null","1142431","685c6ca90f751d3aae6b1794","685c6e45bee7a203a215a06b","6837453fc6c44bcd2835e557","false","false","Car","https://kisumu-drawings.s3-us-west-1.amazonaws.com/44-011.png","3","Car","44-011.png"
"","4101","image-button-response","56","null","1147046","685c6ca90f751d3aae6b1794","685c6e45bee7a203a215a06b","6837453fc6c44bcd2835e557","false","false","House","https://kisumu-drawings.s3-us-west-1.amazonaws.com/37-014.png","8","House","37-014.png"
"","5984","image-button-response","57","null","1153547","685c6ca90f751d3aae6b1794","685c6e45bee7a203a215a06b","6837453fc6c44bcd2835e557","false","false","Watch","https://kisumu-drawings.s3-us-west-1.amazonaws.com/82-008.png","11","Watch","82-008.png"
"","3741","image-button-response","58","null","1157804","685c6ca90f751d3aae6b1794","685c6e45bee7a203a215a06b","6837453fc6c44bcd2835e557","false","false","House","https://kisumu-drawings.s3-us-west-1.amazonaws.com/45-010.png","8","House","45-010.png"
"","6567","image-button-response","59","null","1164880","685c6ca90f751d3aae6b1794","685c6e45bee7a203a215a06b","6837453fc6c44bcd2835e557","false","false","Tree","https://kisumu-drawings.s3-us-west-1.amazonaws.com/77-012.png","10","Tree","77-012.png"
"","3119","image-button-response","60","null","1168513","685c6ca90f751d3aae6b1794","685c6e45bee7a203a215a06b","6837453fc6c44bcd2835e557","false","false","Airplane","https://kisumu-drawings.s3-us-west-1.amazonaws.com/33-005.png","10","Tree","33-005.png"
"","4823","image-button-response","61","null","1173846","685c6ca90f751d3aae6b1794","685c6e45bee7a203a215a06b","6837453fc6c44bcd2835e557","false","false","Tree","https://kisumu-drawings.s3-us-west-1.amazonaws.com/16-015.png","6","Cup","16-015.png"
"","2652","image-button-response","62","null","1177017","685c6ca90f751d3aae6b1794","685c6e45bee7a203a215a06b","6837453fc6c44bcd2835e557","false","false","Hat","https://kisumu-drawings.s3-us-west-1.amazonaws.com/36-009.png","6","Cup","36-009.png"
"","2613","image-button-response","63","null","1180146","685c6ca90f751d3aae6b1794","685c6e45bee7a203a215a06b","6837453fc6c44bcd2835e557","false","false","Watch","https://kisumu-drawings.s3-us-west-1.amazonaws.com/16-009.png","6","Cup","16-009.png"
"","3720","image-button-response","64","null","1184381","685c6ca90f751d3aae6b1794","685c6e45bee7a203a215a06b","6837453fc6c44bcd2835e557","false","false","Rabbit","https://kisumu-drawings.s3-us-west-1.amazonaws.com/117-005.png","4","Cat","117-005.png"
"","3377","image-button-response","65","null","1188278","685c6ca90f751d3aae6b1794","685c6e45bee7a203a215a06b","6837453fc6c44bcd2835e557","false","false","Cup","https://kisumu-drawings.s3-us-west-1.amazonaws.com/36-008.png","6","Cup","36-008.png"
"","3223","image-button-response","66","null","1192014","685c6ca90f751d3aae6b1794","685c6e45bee7a203a215a06b","6837453fc6c44bcd2835e557","false","false","Chair","https://kisumu-drawings.s3-us-west-1.amazonaws.com/77-010.png","6","Cup","77-010.png"
"","4231","image-button-response","67","null","1196765","685c6ca90f751d3aae6b1794","685c6e45bee7a203a215a06b","6837453fc6c44bcd2835e557","false","false","Bird","https://kisumu-drawings.s3-us-west-1.amazonaws.com/82-013.png","4","Cat","82-013.png"
"","5694","image-button-response","68","null","1202963","685c6ca90f751d3aae6b1794","685c6e45bee7a203a215a06b","6837453fc6c44bcd2835e557","false","false","Car","https://kisumu-drawings.s3-us-west-1.amazonaws.com/76-014.png","3","Car","76-014.png"
"","5537","image-button-response","69","null","1209013","685c6ca90f751d3aae6b1794","685c6e45bee7a203a215a06b","6837453fc6c44bcd2835e557","false","false","Bicycle","https://kisumu-drawings.s3-us-west-1.amazonaws.com/75-011.png","0","Airplane","75-011.png"
"","2519","image-button-response","70","null","1212047","685c6ca90f751d3aae6b1794","685c6e45bee7a203a215a06b","6837453fc6c44bcd2835e557","true","false","airplane","stimuli/catch_trials/0_airplane_catch.jpg","0","Airplane",""
"","7886","image-button-response","71","null","1220445","685c6ca90f751d3aae6b1794","685c6e45bee7a203a215a06b","6837453fc6c44bcd2835e557","false","false","Hat","https://kisumu-drawings.s3-us-west-1.amazonaws.com/15-016.png","11","Watch","15-016.png"
"","7619","image-button-response","72","null","1228583","685c6ca90f751d3aae6b1794","685c6e45bee7a203a215a06b","6837453fc6c44bcd2835e557","false","false","House","https://kisumu-drawings.s3-us-west-1.amazonaws.com/83-012.png","8","House","83-012.png"
"","6235","image-button-response","73","null","1235331","685c6ca90f751d3aae6b1794","685c6e45bee7a203a215a06b","6837453fc6c44bcd2835e557","false","false","Airplane","https://kisumu-drawings.s3-us-west-1.amazonaws.com/81-014.png","0","Airplane","81-014.png"
"","3685","image-button-response","74","null","1239530","685c6ca90f751d3aae6b1794","685c6e45bee7a203a215a06b","6837453fc6c44bcd2835e557","false","false","Hat","https://kisumu-drawings.s3-us-west-1.amazonaws.com/45-009.png","6","Cup","45-009.png"
"","6318","image-button-response","75","null","1246363","685c6ca90f751d3aae6b1794","685c6e45bee7a203a215a06b","6837453fc6c44bcd2835e557","false","false","Bicycle","https://kisumu-drawings.s3-us-west-1.amazonaws.com/43-007.png","3","Car","43-007.png"
