"view_history","rt","trial_type","trial_index","plugin_version","time_elapsed","study_id","session_id","participant_id","catch_trial","prep_trial","sketcher_category","stimulus","response","response_category","sketch_id"
"[{""page_index"":0,""viewing_time"":12136},{""page_index"":1,""viewing_time"":4063},{""page_index"":2,""viewing_time"":9140},{""page_index"":3,""viewing_time"":10126}]","35465","instructions","0","null","35479","685c6ca90f751d3aae6b1794","685c711755063f2dd310394e","68373cce499c73350b5613b4","","","","","","",""
"","13503","image-button-response","1","null","49994","685c6ca90f751d3aae6b1794","685c711755063f2dd310394e","68373cce499c73350b5613b4","false","true","car","stimuli/prep_trials/1_car_prep.png","3","Car",""
"","2438","image-button-response","2","null","52947","685c6ca90f751d3aae6b1794","685c711755063f2dd310394e","68373cce499c73350b5613b4","false","true","cat","stimuli/prep_trials/0_cat_prep.jpg","4","Cat",""
"","18297","image-button-response","3","null","71759","685c6ca90f751d3aae6b1794","685c711755063f2dd310394e","68373cce499c73350b5613b4","false","false","Chair","https://kisumu-drawings.s3-us-west-1.amazonaws.com/33-013.png","8","House","33-013.png"
"","5578","image-button-response","4","null","77854","685c6ca90f751d3aae6b1794","685c711755063f2dd310394e","68373cce499c73350b5613b4","false","false","Watch","https://kisumu-drawings.s3-us-west-1.amazonaws.com/88-005.png","11","Watch","88-005.png"
"","5445","image-button-response","5","null","83813","685c6ca90f751d3aae6b1794","685c711755063f2dd310394e","68373cce499c73350b5613b4","false","false","Airplane","https://kisumu-drawings.s3-us-west-1.amazonaws.com/50-005.png","0","Airplane","50-005.png"
"","21548","image-button-response","6","null","105870","685c6ca90f751d3aae6b1794","685c711755063f2dd310394e","68373cce499c73350b5613b4","false","false","Bird","https://kisumu-drawings.s3-us-west-1.amazonaws.com/25-008.png","9","Rabbit","25-008.png"
"","6765","image-button-response","7","null","113150","685c6ca90f751d3aae6b1794","685c711755063f2dd310394e","68373cce499c73350b5613b4","false","false","Cat","https://kisumu-drawings.s3-us-west-1.amazonaws.com/73-009.png","4","Cat","73-009.png"
"","5969","image-button-response","8","null","119636","685c6ca90f751d3aae6b1794","685c711755063f2dd310394e","68373cce499c73350b5613b4","false","false","Chair","https://kisumu-drawings.s3-us-west-1.amazonaws.com/119-013.png","5","Chair","119-013.png"
"","7156","image-button-response","9","null","127306","685c6ca90f751d3aae6b1794","685c711755063f2dd310394e","68373cce499c73350b5613b4","false","false","Airplane","https://kisumu-drawings.s3-us-west-1.amazonaws.com/18-011.png","3","Car","18-011.png"
"","6469","image-button-response","10","null","134291","685c6ca90f751d3aae6b1794","685c711755063f2dd310394e","68373cce499c73350b5613b4","false","false","Rabbit","https://kisumu-drawings.s3-us-west-1.amazonaws.com/54-016.png","4","Cat","54-016.png"
"","4672","image-button-response","11","null","139478","685c6ca90f751d3aae6b1794","685c711755063f2dd310394e","68373cce499c73350b5613b4","false","false","Bicycle","https://kisumu-drawings.s3-us-west-1.amazonaws.com/1-013.png","10","Tree","1-013.png"
"","5516","image-button-response","12","null","145510","685c6ca90f751d3aae6b1794","685c711755063f2dd310394e","68373cce499c73350b5613b4","false","false","Cup","https://kisumu-drawings.s3-us-west-1.amazonaws.com/68-006.png","6","Cup","68-006.png"
"","4109","image-button-response","13","null","150134","685c6ca90f751d3aae6b1794","685c711755063f2dd310394e","68373cce499c73350b5613b4","false","false","House","https://kisumu-drawings.s3-us-west-1.amazonaws.com/51-005.png","7","Hat","51-005.png"
"","3625","image-button-response","14","null","154275","685c6ca90f751d3aae6b1794","685c711755063f2dd310394e","68373cce499c73350b5613b4","false","false","Cup","https://kisumu-drawings.s3-us-west-1.amazonaws.com/7-012.png","8","House","7-012.png"
"","2042","image-button-response","15","null","156826","685c6ca90f751d3aae6b1794","685c711755063f2dd310394e","68373cce499c73350b5613b4","false","false","Watch","https://kisumu-drawings.s3-us-west-1.amazonaws.com/40-015.png","6","Cup","40-015.png"
"","6150","image-button-response","16","null","163478","685c6ca90f751d3aae6b1794","685c711755063f2dd310394e","68373cce499c73350b5613b4","false","false","Hat","https://kisumu-drawings.s3-us-west-1.amazonaws.com/24-016.png","6","Cup","24-016.png"
"","4749","image-button-response","17","null","168743","685c6ca90f751d3aae6b1794","685c711755063f2dd310394e","68373cce499c73350b5613b4","false","false","Car","https://kisumu-drawings.s3-us-west-1.amazonaws.com/114-012.png","3","Car","114-012.png"
"","4469","image-button-response","18","null","173728","685c6ca90f751d3aae6b1794","685c711755063f2dd310394e","68373cce499c73350b5613b4","false","false","Hat","https://kisumu-drawings.s3-us-west-1.amazonaws.com/43-006.png","7","Hat","43-006.png"
"","4360","image-button-response","19","null","178603","685c6ca90f751d3aae6b1794","685c711755063f2dd310394e","68373cce499c73350b5613b4","false","false","House","https://kisumu-drawings.s3-us-west-1.amazonaws.com/82-012.png","8","House","82-012.png"
"","6297","image-button-response","20","null","185416","685c6ca90f751d3aae6b1794","685c711755063f2dd310394e","68373cce499c73350b5613b4","false","false","Tree","https://kisumu-drawings.s3-us-west-1.amazonaws.com/36-006.png","10","Tree","36-006.png"
"","6828","image-button-response","21","null","192759","685c6ca90f751d3aae6b1794","685c711755063f2dd310394e","68373cce499c73350b5613b4","false","false","Tree","https://kisumu-drawings.s3-us-west-1.amazonaws.com/71-014.png","10","Tree","71-014.png"
"","7405","image-button-response","22","null","200666","685c6ca90f751d3aae6b1794","685c711755063f2dd310394e","68373cce499c73350b5613b4","false","false","House","https://kisumu-drawings.s3-us-west-1.amazonaws.com/20-010.png","0","Airplane","20-010.png"
"","5642","image-button-response","23","null","206822","685c6ca90f751d3aae6b1794","685c711755063f2dd310394e","68373cce499c73350b5613b4","false","false","Bird","https://kisumu-drawings.s3-us-west-1.amazonaws.com/108-011.png","2","Bird","108-011.png"
"","7313","image-button-response","24","null","214650","685c6ca90f751d3aae6b1794","685c711755063f2dd310394e","68373cce499c73350b5613b4","false","false","Watch","https://kisumu-drawings.s3-us-west-1.amazonaws.com/4-016.png","10","Tree","4-016.png"
"","5391","image-button-response","25","null","220557","685c6ca90f751d3aae6b1794","685c711755063f2dd310394e","68373cce499c73350b5613b4","false","false","Hat","https://kisumu-drawings.s3-us-west-1.amazonaws.com/90-009.png","7","Hat","90-009.png"
"","5109","image-button-response","26","null","226181","685c6ca90f751d3aae6b1794","685c711755063f2dd310394e","68373cce499c73350b5613b4","false","false","Chair","https://kisumu-drawings.s3-us-west-1.amazonaws.com/98-008.png","5","Chair","98-008.png"
"","6062","image-button-response","27","null","232759","685c6ca90f751d3aae6b1794","685c711755063f2dd310394e","68373cce499c73350b5613b4","false","false","Airplane","https://kisumu-drawings.s3-us-west-1.amazonaws.com/96-009.png","0","Airplane","96-009.png"
"","6531","image-button-response","28","null","239806","685c6ca90f751d3aae6b1794","685c711755063f2dd310394e","68373cce499c73350b5613b4","false","false","Bicycle","https://kisumu-drawings.s3-us-west-1.amazonaws.com/37-009.png","9","Rabbit","37-009.png"
"","17624","image-button-response","29","null","257947","685c6ca90f751d3aae6b1794","685c711755063f2dd310394e","68373cce499c73350b5613b4","false","false","Hat","https://kisumu-drawings.s3-us-west-1.amazonaws.com/11-005.png","9","Rabbit","11-005.png"
"","6657","image-button-response","30","null","265119","685c6ca90f751d3aae6b1794","685c711755063f2dd310394e","68373cce499c73350b5613b4","false","false","Cup","https://kisumu-drawings.s3-us-west-1.amazonaws.com/27-014.png","6","Cup","27-014.png"
"","6984","image-button-response","31","null","272618","685c6ca90f751d3aae6b1794","685c711755063f2dd310394e","68373cce499c73350b5613b4","false","false","Bird","https://kisumu-drawings.s3-us-west-1.amazonaws.com/60-014.png","2","Bird","60-014.png"
"","8172","image-button-response","32","null","281306","685c6ca90f751d3aae6b1794","685c711755063f2dd310394e","68373cce499c73350b5613b4","false","false","Car","https://kisumu-drawings.s3-us-west-1.amazonaws.com/32-011.png","3","Car","32-011.png"
"","7501","image-button-response","33","null","289323","685c6ca90f751d3aae6b1794","685c711755063f2dd310394e","68373cce499c73350b5613b4","false","false","Cat","https://kisumu-drawings.s3-us-west-1.amazonaws.com/120-015.png","2","Bird","120-015.png"
"","10890","image-button-response","34","null","300727","685c6ca90f751d3aae6b1794","685c711755063f2dd310394e","68373cce499c73350b5613b4","false","false","Rabbit","https://kisumu-drawings.s3-us-west-1.amazonaws.com/22-016.png","1","Bicycle","22-016.png"
"","9204","image-button-response","35","null","310447","685c6ca90f751d3aae6b1794","685c711755063f2dd310394e","68373cce499c73350b5613b4","false","false","Chair","https://kisumu-drawings.s3-us-west-1.amazonaws.com/14-009.png","1","Bicycle","14-009.png"
"","7312","image-button-response","36","null","318275","685c6ca90f751d3aae6b1794","685c711755063f2dd310394e","68373cce499c73350b5613b4","false","false","Car","https://kisumu-drawings.s3-us-west-1.amazonaws.com/85-005.png","3","Car","85-005.png"
"","9912","image-button-response","37","null","328704","685c6ca90f751d3aae6b1794","685c711755063f2dd310394e","68373cce499c73350b5613b4","false","false","House","https://kisumu-drawings.s3-us-west-1.amazonaws.com/102-006.png","8","House","102-006.png"
"","3514","image-button-response","38","null","332732","685c6ca90f751d3aae6b1794","685c711755063f2dd310394e","68373cce499c73350b5613b4","false","false","Rabbit","https://kisumu-drawings.s3-us-west-1.amazonaws.com/111-011.png","8","House","111-011.png"
"","3610","image-button-response","39","null","336846","685c6ca90f751d3aae6b1794","685c711755063f2dd310394e","68373cce499c73350b5613b4","false","false","Bicycle","https://kisumu-drawings.s3-us-west-1.amazonaws.com/94-012.png","1","Bicycle","94-012.png"
"","8812","image-button-response","40","null","346171","685c6ca90f751d3aae6b1794","685c711755063f2dd310394e","68373cce499c73350b5613b4","false","false","Cat","https://kisumu-drawings.s3-us-west-1.amazonaws.com/11-008.png","10","Tree","11-008.png"
"","4501","image-button-response","41","null","351182","685c6ca90f751d3aae6b1794","685c711755063f2dd310394e","68373cce499c73350b5613b4","false","false","Cat","https://kisumu-drawings.s3-us-west-1.amazonaws.com/51-016.png","8","House","51-016.png"
"","3463","image-button-response","42","null","355159","685c6ca90f751d3aae6b1794","685c711755063f2dd310394e","68373cce499c73350b5613b4","false","false","Tree","https://kisumu-drawings.s3-us-west-1.amazonaws.com/10-011.png","1","Bicycle","10-011.png"
"","3097","image-button-response","43","null","358773","685c6ca90f751d3aae6b1794","685c711755063f2dd310394e","68373cce499c73350b5613b4","false","false","Chair","https://kisumu-drawings.s3-us-west-1.amazonaws.com/62-013.png","2","Bird","62-013.png"
"","3830","image-button-response","44","null","363119","685c6ca90f751d3aae6b1794","685c711755063f2dd310394e","68373cce499c73350b5613b4","false","false","Hat","https://kisumu-drawings.s3-us-west-1.amazonaws.com/111-013.png","7","Hat","111-013.png"
"","5544","image-button-response","45","null","369180","685c6ca90f751d3aae6b1794","685c711755063f2dd310394e","68373cce499c73350b5613b4","false","false","Car","https://kisumu-drawings.s3-us-west-1.amazonaws.com/52-006.png","4","Cat","52-006.png"
"","6446","image-button-response","46","null","376139","685c6ca90f751d3aae6b1794","685c711755063f2dd310394e","68373cce499c73350b5613b4","false","false","Bird","https://kisumu-drawings.s3-us-west-1.amazonaws.com/86-014.png","2","Bird","86-014.png"
"","6093","image-button-response","47","null","382749","685c6ca90f751d3aae6b1794","685c711755063f2dd310394e","68373cce499c73350b5613b4","false","false","Bicycle","https://kisumu-drawings.s3-us-west-1.amazonaws.com/64-015.png","10","Tree","64-015.png"
"","5578","image-button-response","48","null","388843","685c6ca90f751d3aae6b1794","685c711755063f2dd310394e","68373cce499c73350b5613b4","false","false","Chair","https://kisumu-drawings.s3-us-west-1.amazonaws.com/48-007.png","8","House","48-007.png"
"","6780","image-button-response","49","null","396137","685c6ca90f751d3aae6b1794","685c711755063f2dd310394e","68373cce499c73350b5613b4","false","false","Rabbit","https://kisumu-drawings.s3-us-west-1.amazonaws.com/7-011.png","9","Rabbit","7-011.png"
"","5446","image-button-response","50","null","402097","685c6ca90f751d3aae6b1794","685c711755063f2dd310394e","68373cce499c73350b5613b4","false","false","Hat","https://kisumu-drawings.s3-us-west-1.amazonaws.com/71-006.png","4","Cat","71-006.png"
"","6262","image-button-response","51","null","408874","685c6ca90f751d3aae6b1794","685c711755063f2dd310394e","68373cce499c73350b5613b4","false","false","Watch","https://kisumu-drawings.s3-us-west-1.amazonaws.com/101-015.png","2","Bird","101-015.png"
"","4865","image-button-response","52","null","414256","685c6ca90f751d3aae6b1794","685c711755063f2dd310394e","68373cce499c73350b5613b4","false","false","Airplane","https://kisumu-drawings.s3-us-west-1.amazonaws.com/117-015.png","0","Airplane","117-015.png"
"","4324","image-button-response","53","null","419097","685c6ca90f751d3aae6b1794","685c711755063f2dd310394e","68373cce499c73350b5613b4","false","false","Cup","https://kisumu-drawings.s3-us-west-1.amazonaws.com/98-015.png","6","Cup","98-015.png"
"","9254","image-button-response","54","null","428854","685c6ca90f751d3aae6b1794","685c711755063f2dd310394e","68373cce499c73350b5613b4","false","false","Watch","https://kisumu-drawings.s3-us-west-1.amazonaws.com/49-015.png","0","Airplane","49-015.png"
"","5512","image-button-response","55","null","434882","685c6ca90f751d3aae6b1794","685c711755063f2dd310394e","68373cce499c73350b5613b4","false","false","Cup","https://kisumu-drawings.s3-us-west-1.amazonaws.com/105-011.png","6","Cup","105-011.png"
"","6745","image-button-response","56","null","442143","685c6ca90f751d3aae6b1794","685c711755063f2dd310394e","68373cce499c73350b5613b4","false","false","Bicycle","https://kisumu-drawings.s3-us-west-1.amazonaws.com/120-010.png","1","Bicycle","120-010.png"
"","9635","image-button-response","57","null","452283","685c6ca90f751d3aae6b1794","685c711755063f2dd310394e","68373cce499c73350b5613b4","false","false","Tree","https://kisumu-drawings.s3-us-west-1.amazonaws.com/115-016.png","10","Tree","115-016.png"
"","5646","image-button-response","58","null","458441","685c6ca90f751d3aae6b1794","685c711755063f2dd310394e","68373cce499c73350b5613b4","false","false","Watch","https://kisumu-drawings.s3-us-west-1.amazonaws.com/61-011.png","11","Watch","61-011.png"
"","5381","image-button-response","59","null","464337","685c6ca90f751d3aae6b1794","685c711755063f2dd310394e","68373cce499c73350b5613b4","false","false","Cat","https://kisumu-drawings.s3-us-west-1.amazonaws.com/22-005.png","4","Cat","22-005.png"
"","5146","image-button-response","60","null","469999","685c6ca90f751d3aae6b1794","685c711755063f2dd310394e","68373cce499c73350b5613b4","false","false","Rabbit","https://kisumu-drawings.s3-us-west-1.amazonaws.com/69-010.png","9","Rabbit","69-010.png"
"","4261","image-button-response","61","null","474775","685c6ca90f751d3aae6b1794","685c711755063f2dd310394e","68373cce499c73350b5613b4","false","false","House","https://kisumu-drawings.s3-us-west-1.amazonaws.com/73-013.png","8","House","73-013.png"
"","4647","image-button-response","62","null","479938","685c6ca90f751d3aae6b1794","685c711755063f2dd310394e","68373cce499c73350b5613b4","false","false","Car","https://kisumu-drawings.s3-us-west-1.amazonaws.com/77-015.png","3","Car","77-015.png"
"","4276","image-button-response","63","null","484731","685c6ca90f751d3aae6b1794","685c711755063f2dd310394e","68373cce499c73350b5613b4","false","false","House","https://kisumu-drawings.s3-us-west-1.amazonaws.com/35-011.png","8","House","35-011.png"
"","5009","image-button-response","64","null","490244","685c6ca90f751d3aae6b1794","685c711755063f2dd310394e","68373cce499c73350b5613b4","false","false","Airplane","https://kisumu-drawings.s3-us-west-1.amazonaws.com/78-008.png","0","Airplane","78-008.png"
"","5978","image-button-response","65","null","496739","685c6ca90f751d3aae6b1794","685c711755063f2dd310394e","68373cce499c73350b5613b4","false","false","Cup","https://kisumu-drawings.s3-us-west-1.amazonaws.com/48-015.png","6","Cup","48-015.png"
"","8642","image-button-response","66","null","505896","685c6ca90f751d3aae6b1794","685c711755063f2dd310394e","68373cce499c73350b5613b4","false","false","Rabbit","https://kisumu-drawings.s3-us-west-1.amazonaws.com/82-009.png","1","Bicycle","82-009.png"
"","5495","image-button-response","67","null","511906","685c6ca90f751d3aae6b1794","685c711755063f2dd310394e","68373cce499c73350b5613b4","false","false","Bird","https://kisumu-drawings.s3-us-west-1.amazonaws.com/66-013.png","2","Bird","66-013.png"
"","4730","image-button-response","68","null","517150","685c6ca90f751d3aae6b1794","685c711755063f2dd310394e","68373cce499c73350b5613b4","false","false","Bicycle","https://kisumu-drawings.s3-us-west-1.amazonaws.com/45-015.png","0","Airplane","45-015.png"
"","3562","image-button-response","69","null","521230","685c6ca90f751d3aae6b1794","685c711755063f2dd310394e","68373cce499c73350b5613b4","true","false","airplane","stimuli/catch_trials/0_airplane_catch.jpg","0","Airplane",""
"","4365","image-button-response","70","null","526108","685c6ca90f751d3aae6b1794","685c711755063f2dd310394e","68373cce499c73350b5613b4","false","false","Tree","https://kisumu-drawings.s3-us-west-1.amazonaws.com/42-011.png","10","Tree","42-011.png"
"","8843","image-button-response","71","null","535468","685c6ca90f751d3aae6b1794","685c711755063f2dd310394e","68373cce499c73350b5613b4","false","false","Car","https://kisumu-drawings.s3-us-west-1.amazonaws.com/18-009.png","7","Hat","18-009.png"
"","9226","image-button-response","72","null","545209","685c6ca90f751d3aae6b1794","685c711755063f2dd310394e","68373cce499c73350b5613b4","false","false","Cat","https://kisumu-drawings.s3-us-west-1.amazonaws.com/94-009.png","4","Cat","94-009.png"
"","7957","image-button-response","73","null","553682","685c6ca90f751d3aae6b1794","685c711755063f2dd310394e","68373cce499c73350b5613b4","false","false","Bird","https://kisumu-drawings.s3-us-west-1.amazonaws.com/4-005.png","4","Cat","4-005.png"
"","4665","image-button-response","74","null","558861","685c6ca90f751d3aae6b1794","685c711755063f2dd310394e","68373cce499c73350b5613b4","false","false","Airplane","https://kisumu-drawings.s3-us-west-1.amazonaws.com/22-012.png","6","Cup","22-012.png"
"","4542","image-button-response","75","null","563919","685c6ca90f751d3aae6b1794","685c711755063f2dd310394e","68373cce499c73350b5613b4","false","false","Tree","https://kisumu-drawings.s3-us-west-1.amazonaws.com/98-010.png","10","Tree","98-010.png"
