"view_history","rt","trial_type","trial_index","plugin_version","time_elapsed","study_id","session_id","participant_id","catch_trial","prep_trial","sketcher_category","stimulus","response","response_category","sketch_id"
"[{""page_index"":0,""viewing_time"":11196},{""page_index"":1,""viewing_time"":6250},{""page_index"":2,""viewing_time"":71297},{""page_index"":3,""viewing_time"":21521}]","110265","instructions","0","null","110281","685c6ca90f751d3aae6b1794","685c6e2932bada9c2c0b6fc9","6838555002ab10144a4ff163","","","","","","",""
"","4877","image-button-response","1","null","116172","685c6ca90f751d3aae6b1794","685c6e2932bada9c2c0b6fc9","6838555002ab10144a4ff163","false","true","car","stimuli/prep_trials/1_car_prep.png","3","Car",""
"","3222","image-button-response","2","null","119902","685c6ca90f751d3aae6b1794","685c6e2932bada9c2c0b6fc9","6838555002ab10144a4ff163","false","true","cat","stimuli/prep_trials/0_cat_prep.jpg","4","Cat",""
"","17100","image-button-response","3","null","137506","685c6ca90f751d3aae6b1794","685c6e2932bada9c2c0b6fc9","6838555002ab10144a4ff163","false","false","Cat","https://kisumu-drawings.s3-us-west-1.amazonaws.com/42-008.png","4","Cat","42-008.png"
"","8782","image-button-response","4","null","146794","685c6ca90f751d3aae6b1794","685c6e2932bada9c2c0b6fc9","6838555002ab10144a4ff163","false","false","Rabbit","https://kisumu-drawings.s3-us-west-1.amazonaws.com/100-005.png","4","Cat","100-005.png"
"","10287","image-button-response","5","null","157584","685c6ca90f751d3aae6b1794","685c6e2932bada9c2c0b6fc9","6838555002ab10144a4ff163","false","false","House","https://kisumu-drawings.s3-us-west-1.amazonaws.com/74-012.png","8","House","74-012.png"
"","10785","image-button-response","6","null","168884","685c6ca90f751d3aae6b1794","685c6e2932bada9c2c0b6fc9","6838555002ab10144a4ff163","false","false","House","https://kisumu-drawings.s3-us-west-1.amazonaws.com/33-008.png","6","Cup","33-008.png"
"","29312","image-button-response","7","null","198698","685c6ca90f751d3aae6b1794","685c6e2932bada9c2c0b6fc9","6838555002ab10144a4ff163","false","false","Airplane","https://kisumu-drawings.s3-us-west-1.amazonaws.com/53-009.png","10","Tree","53-009.png"
"","8074","image-button-response","8","null","207282","685c6ca90f751d3aae6b1794","685c6e2932bada9c2c0b6fc9","6838555002ab10144a4ff163","false","false","Rabbit","https://kisumu-drawings.s3-us-west-1.amazonaws.com/33-010.png","5","Chair","33-010.png"
"","6230","image-button-response","9","null","214013","685c6ca90f751d3aae6b1794","685c6e2932bada9c2c0b6fc9","6838555002ab10144a4ff163","false","false","Chair","https://kisumu-drawings.s3-us-west-1.amazonaws.com/100-009.png","5","Chair","100-009.png"
"","4157","image-button-response","10","null","218678","685c6ca90f751d3aae6b1794","685c6e2932bada9c2c0b6fc9","6838555002ab10144a4ff163","false","false","Airplane","https://kisumu-drawings.s3-us-west-1.amazonaws.com/110-014.png","0","Airplane","110-014.png"
"","3469","image-button-response","11","null","222663","685c6ca90f751d3aae6b1794","685c6e2932bada9c2c0b6fc9","6838555002ab10144a4ff163","false","false","Bird","https://kisumu-drawings.s3-us-west-1.amazonaws.com/11-011.png","10","Tree","11-011.png"
"","2619","image-button-response","12","null","225795","685c6ca90f751d3aae6b1794","685c6e2932bada9c2c0b6fc9","6838555002ab10144a4ff163","false","false","Watch","https://kisumu-drawings.s3-us-west-1.amazonaws.com/114-009.png","11","Watch","114-009.png"
"","10205","image-button-response","13","null","236501","685c6ca90f751d3aae6b1794","685c6e2932bada9c2c0b6fc9","6838555002ab10144a4ff163","false","false","Chair","https://kisumu-drawings.s3-us-west-1.amazonaws.com/13-012.png","11","Watch","13-012.png"
"","6887","image-button-response","14","null","243896","685c6ca90f751d3aae6b1794","685c6e2932bada9c2c0b6fc9","6838555002ab10144a4ff163","false","false","Bird","https://kisumu-drawings.s3-us-west-1.amazonaws.com/113-016.png","2","Bird","113-016.png"
"","3828","image-button-response","15","null","248236","685c6ca90f751d3aae6b1794","685c6e2932bada9c2c0b6fc9","6838555002ab10144a4ff163","false","false","Cup","https://kisumu-drawings.s3-us-west-1.amazonaws.com/100-008.png","6","Cup","100-008.png"
"","2454","image-button-response","16","null","251191","685c6ca90f751d3aae6b1794","685c6e2932bada9c2c0b6fc9","6838555002ab10144a4ff163","false","false","House","https://kisumu-drawings.s3-us-west-1.amazonaws.com/114-007.png","8","House","114-007.png"
"","7900","image-button-response","17","null","259594","685c6ca90f751d3aae6b1794","685c6e2932bada9c2c0b6fc9","6838555002ab10144a4ff163","false","false","Bicycle","https://kisumu-drawings.s3-us-west-1.amazonaws.com/97-006.png","1","Bicycle","97-006.png"
"","7945","image-button-response","18","null","268043","685c6ca90f751d3aae6b1794","685c6e2932bada9c2c0b6fc9","6838555002ab10144a4ff163","false","false","Car","https://kisumu-drawings.s3-us-west-1.amazonaws.com/11-012.png","10","Tree","11-012.png"
"","6492","image-button-response","19","null","275041","685c6ca90f751d3aae6b1794","685c6e2932bada9c2c0b6fc9","6838555002ab10144a4ff163","false","false","Bird","https://kisumu-drawings.s3-us-west-1.amazonaws.com/55-007.png","10","Tree","55-007.png"
"","5190","image-button-response","20","null","280734","685c6ca90f751d3aae6b1794","685c6e2932bada9c2c0b6fc9","6838555002ab10144a4ff163","false","false","Cup","https://kisumu-drawings.s3-us-west-1.amazonaws.com/13-014.png","5","Chair","13-014.png"
"","2634","image-button-response","21","null","283877","685c6ca90f751d3aae6b1794","685c6e2932bada9c2c0b6fc9","6838555002ab10144a4ff163","false","false","Tree","https://kisumu-drawings.s3-us-west-1.amazonaws.com/74-010.png","10","Tree","74-010.png"
"","4003","image-button-response","22","null","288395","685c6ca90f751d3aae6b1794","685c6e2932bada9c2c0b6fc9","6838555002ab10144a4ff163","false","false","Watch","https://kisumu-drawings.s3-us-west-1.amazonaws.com/99-015.png","10","Tree","99-015.png"
"","8911","image-button-response","23","null","297819","685c6ca90f751d3aae6b1794","685c6e2932bada9c2c0b6fc9","6838555002ab10144a4ff163","false","false","Cat","https://kisumu-drawings.s3-us-west-1.amazonaws.com/74-009.png","4","Cat","74-009.png"
"","4817","image-button-response","24","null","303151","685c6ca90f751d3aae6b1794","685c6e2932bada9c2c0b6fc9","6838555002ab10144a4ff163","false","false","House","https://kisumu-drawings.s3-us-west-1.amazonaws.com/42-013.png","8","House","42-013.png"
"","6409","image-button-response","25","null","310069","685c6ca90f751d3aae6b1794","685c6e2932bada9c2c0b6fc9","6838555002ab10144a4ff163","false","false","Hat","https://kisumu-drawings.s3-us-west-1.amazonaws.com/100-007.png","7","Hat","100-007.png"
"","1540","image-button-response","26","null","312123","685c6ca90f751d3aae6b1794","685c6e2932bada9c2c0b6fc9","6838555002ab10144a4ff163","true","false","airplane","stimuli/catch_trials/0_airplane_catch.jpg","0","Airplane",""
"","5504","image-button-response","27","null","318129","685c6ca90f751d3aae6b1794","685c6e2932bada9c2c0b6fc9","6838555002ab10144a4ff163","false","false","House","https://kisumu-drawings.s3-us-west-1.amazonaws.com/100-006.png","8","House","100-006.png"
"","3606","image-button-response","28","null","322244","685c6ca90f751d3aae6b1794","685c6e2932bada9c2c0b6fc9","6838555002ab10144a4ff163","false","false","Car","https://kisumu-drawings.s3-us-west-1.amazonaws.com/73-012.png","8","House","73-012.png"
"","3776","image-button-response","29","null","326531","685c6ca90f751d3aae6b1794","685c6e2932bada9c2c0b6fc9","6838555002ab10144a4ff163","false","false","Rabbit","https://kisumu-drawings.s3-us-west-1.amazonaws.com/13-007.png","10","Tree","13-007.png"
"","2781","image-button-response","30","null","329813","685c6ca90f751d3aae6b1794","685c6e2932bada9c2c0b6fc9","6838555002ab10144a4ff163","false","false","Bird","https://kisumu-drawings.s3-us-west-1.amazonaws.com/98-013.png","0","Airplane","98-013.png"
"","4051","image-button-response","31","null","334369","685c6ca90f751d3aae6b1794","685c6e2932bada9c2c0b6fc9","6838555002ab10144a4ff163","false","false","Cat","https://kisumu-drawings.s3-us-west-1.amazonaws.com/32-014.png","5","Chair","32-014.png"
"","2973","image-button-response","32","null","337845","685c6ca90f751d3aae6b1794","685c6e2932bada9c2c0b6fc9","6838555002ab10144a4ff163","false","false","Chair","https://kisumu-drawings.s3-us-west-1.amazonaws.com/74-005.png","5","Chair","74-005.png"
"","3414","image-button-response","33","null","341771","685c6ca90f751d3aae6b1794","685c6e2932bada9c2c0b6fc9","6838555002ab10144a4ff163","false","false","Car","https://kisumu-drawings.s3-us-west-1.amazonaws.com/113-015.png","3","Car","113-015.png"
"","2653","image-button-response","34","null","344932","685c6ca90f751d3aae6b1794","685c6e2932bada9c2c0b6fc9","6838555002ab10144a4ff163","false","false","Airplane","https://kisumu-drawings.s3-us-west-1.amazonaws.com/70-008.png","0","Airplane","70-008.png"
"","4976","image-button-response","35","null","350411","685c6ca90f751d3aae6b1794","685c6e2932bada9c2c0b6fc9","6838555002ab10144a4ff163","false","false","Airplane","https://kisumu-drawings.s3-us-west-1.amazonaws.com/96-009.png","8","House","96-009.png"
"","2734","image-button-response","36","null","353653","685c6ca90f751d3aae6b1794","685c6e2932bada9c2c0b6fc9","6838555002ab10144a4ff163","false","false","Car","https://kisumu-drawings.s3-us-west-1.amazonaws.com/32-011.png","3","Car","32-011.png"
"","2976","image-button-response","37","null","357131","685c6ca90f751d3aae6b1794","685c6e2932bada9c2c0b6fc9","6838555002ab10144a4ff163","false","false","Bicycle","https://kisumu-drawings.s3-us-west-1.amazonaws.com/71-013.png","3","Car","71-013.png"
"","3418","image-button-response","38","null","361056","685c6ca90f751d3aae6b1794","685c6e2932bada9c2c0b6fc9","6838555002ab10144a4ff163","false","false","Cup","https://kisumu-drawings.s3-us-west-1.amazonaws.com/74-007.png","6","Cup","74-007.png"
"","7388","image-button-response","39","null","368945","685c6ca90f751d3aae6b1794","685c6e2932bada9c2c0b6fc9","6838555002ab10144a4ff163","false","false","Rabbit","https://kisumu-drawings.s3-us-west-1.amazonaws.com/42-010.png","11","Watch","42-010.png"
"","7512","image-button-response","40","null","376974","685c6ca90f751d3aae6b1794","685c6e2932bada9c2c0b6fc9","6838555002ab10144a4ff163","false","false","Cup","https://kisumu-drawings.s3-us-west-1.amazonaws.com/114-008.png","6","Cup","114-008.png"
"","8784","image-button-response","41","null","386269","685c6ca90f751d3aae6b1794","685c6e2932bada9c2c0b6fc9","6838555002ab10144a4ff163","false","false","Cat","https://kisumu-drawings.s3-us-west-1.amazonaws.com/99-005.png","2","Bird","99-005.png"
"","5728","image-button-response","42","null","392515","685c6ca90f751d3aae6b1794","685c6e2932bada9c2c0b6fc9","6838555002ab10144a4ff163","false","false","Hat","https://kisumu-drawings.s3-us-west-1.amazonaws.com/74-011.png","6","Cup","74-011.png"
"","4342","image-button-response","43","null","397359","685c6ca90f751d3aae6b1794","685c6e2932bada9c2c0b6fc9","6838555002ab10144a4ff163","false","false","Chair","https://kisumu-drawings.s3-us-west-1.amazonaws.com/42-007.png","6","Cup","42-007.png"
"","4534","image-button-response","44","null","402402","685c6ca90f751d3aae6b1794","685c6e2932bada9c2c0b6fc9","6838555002ab10144a4ff163","false","false","Tree","https://kisumu-drawings.s3-us-west-1.amazonaws.com/13-016.png","10","Tree","13-016.png"
"","6310","image-button-response","45","null","409229","685c6ca90f751d3aae6b1794","685c6e2932bada9c2c0b6fc9","6838555002ab10144a4ff163","false","false","Cat","https://kisumu-drawings.s3-us-west-1.amazonaws.com/12-011.png","4","Cat","12-011.png"
"","9472","image-button-response","46","null","419215","685c6ca90f751d3aae6b1794","685c6e2932bada9c2c0b6fc9","6838555002ab10144a4ff163","false","false","Bicycle","https://kisumu-drawings.s3-us-west-1.amazonaws.com/112-010.png","1","Bicycle","112-010.png"
"","6502","image-button-response","47","null","426227","685c6ca90f751d3aae6b1794","685c6e2932bada9c2c0b6fc9","6838555002ab10144a4ff163","false","false","Watch","https://kisumu-drawings.s3-us-west-1.amazonaws.com/33-016.png","7","Hat","33-016.png"
"","5812","image-button-response","48","null","432546","685c6ca90f751d3aae6b1794","685c6e2932bada9c2c0b6fc9","6838555002ab10144a4ff163","false","false","Bicycle","https://kisumu-drawings.s3-us-west-1.amazonaws.com/30-006.png","8","House","30-006.png"
"","2827","image-button-response","49","null","435876","685c6ca90f751d3aae6b1794","685c6e2932bada9c2c0b6fc9","6838555002ab10144a4ff163","false","false","Tree","https://kisumu-drawings.s3-us-west-1.amazonaws.com/100-013.png","10","Tree","100-013.png"
"","5880","image-button-response","50","null","442258","685c6ca90f751d3aae6b1794","685c6e2932bada9c2c0b6fc9","6838555002ab10144a4ff163","false","false","Rabbit","https://kisumu-drawings.s3-us-west-1.amazonaws.com/74-008.png","4","Cat","74-008.png"
"","11338","image-button-response","51","null","454103","685c6ca90f751d3aae6b1794","685c6e2932bada9c2c0b6fc9","6838555002ab10144a4ff163","false","false","Airplane","https://kisumu-drawings.s3-us-west-1.amazonaws.com/8-015.png","10","Tree","8-015.png"
"","7631","image-button-response","52","null","462237","685c6ca90f751d3aae6b1794","685c6e2932bada9c2c0b6fc9","6838555002ab10144a4ff163","false","false","Bird","https://kisumu-drawings.s3-us-west-1.amazonaws.com/31-007.png","2","Bird","31-007.png"
"","8907","image-button-response","53","null","471656","685c6ca90f751d3aae6b1794","685c6e2932bada9c2c0b6fc9","6838555002ab10144a4ff163","false","false","Watch","https://kisumu-drawings.s3-us-west-1.amazonaws.com/13-005.png","7","Hat","13-005.png"
"","7652","image-button-response","54","null","479821","685c6ca90f751d3aae6b1794","685c6e2932bada9c2c0b6fc9","6838555002ab10144a4ff163","false","false","Cup","https://kisumu-drawings.s3-us-west-1.amazonaws.com/33-014.png","6","Cup","33-014.png"
"","4230","image-button-response","55","null","484553","685c6ca90f751d3aae6b1794","685c6e2932bada9c2c0b6fc9","6838555002ab10144a4ff163","false","false","Tree","https://kisumu-drawings.s3-us-west-1.amazonaws.com/42-011.png","10","Tree","42-011.png"
"","3013","image-button-response","56","null","488068","685c6ca90f751d3aae6b1794","685c6e2932bada9c2c0b6fc9","6838555002ab10144a4ff163","false","false","Bicycle","https://kisumu-drawings.s3-us-west-1.amazonaws.com/54-009.png","1","Bicycle","54-009.png"
"","3258","image-button-response","57","null","491837","685c6ca90f751d3aae6b1794","685c6e2932bada9c2c0b6fc9","6838555002ab10144a4ff163","false","false","Rabbit","https://kisumu-drawings.s3-us-west-1.amazonaws.com/114-006.png","4","Cat","114-006.png"
"","6034","image-button-response","58","null","498379","685c6ca90f751d3aae6b1794","685c6e2932bada9c2c0b6fc9","6838555002ab10144a4ff163","false","false","Watch","https://kisumu-drawings.s3-us-west-1.amazonaws.com/74-013.png","7","Hat","74-013.png"
"","7413","image-button-response","59","null","506295","685c6ca90f751d3aae6b1794","685c6e2932bada9c2c0b6fc9","6838555002ab10144a4ff163","false","false","Hat","https://kisumu-drawings.s3-us-west-1.amazonaws.com/114-016.png","7","Hat","114-016.png"
"","2904","image-button-response","60","null","509701","685c6ca90f751d3aae6b1794","685c6e2932bada9c2c0b6fc9","6838555002ab10144a4ff163","false","false","Bird","https://kisumu-drawings.s3-us-west-1.amazonaws.com/72-016.png","10","Tree","72-016.png"
"","2631","image-button-response","61","null","512849","685c6ca90f751d3aae6b1794","685c6e2932bada9c2c0b6fc9","6838555002ab10144a4ff163","false","false","Watch","https://kisumu-drawings.s3-us-west-1.amazonaws.com/42-015.png","11","Watch","42-015.png"
"","6473","image-button-response","62","null","519826","685c6ca90f751d3aae6b1794","685c6e2932bada9c2c0b6fc9","6838555002ab10144a4ff163","false","false","Cat","https://kisumu-drawings.s3-us-west-1.amazonaws.com/114-013.png","4","Cat","114-013.png"
"","5297","image-button-response","63","null","525639","685c6ca90f751d3aae6b1794","685c6e2932bada9c2c0b6fc9","6838555002ab10144a4ff163","false","false","Hat","https://kisumu-drawings.s3-us-west-1.amazonaws.com/12-013.png","7","Hat","12-013.png"
"","2800","image-button-response","64","null","528947","685c6ca90f751d3aae6b1794","685c6e2932bada9c2c0b6fc9","6838555002ab10144a4ff163","false","false","Car","https://kisumu-drawings.s3-us-west-1.amazonaws.com/100-012.png","3","Car","100-012.png"
"","2243","image-button-response","65","null","531705","685c6ca90f751d3aae6b1794","685c6e2932bada9c2c0b6fc9","6838555002ab10144a4ff163","false","false","Tree","https://kisumu-drawings.s3-us-west-1.amazonaws.com/114-005.png","10","Tree","114-005.png"
"","2189","image-button-response","66","null","534397","685c6ca90f751d3aae6b1794","685c6e2932bada9c2c0b6fc9","6838555002ab10144a4ff163","false","false","Tree","https://kisumu-drawings.s3-us-west-1.amazonaws.com/33-011.png","10","Tree","33-011.png"
"","2997","image-button-response","67","null","537895","685c6ca90f751d3aae6b1794","685c6e2932bada9c2c0b6fc9","6838555002ab10144a4ff163","false","false","House","https://kisumu-drawings.s3-us-west-1.amazonaws.com/13-015.png","5","Chair","13-015.png"
"","3984","image-button-response","68","null","542383","685c6ca90f751d3aae6b1794","685c6e2932bada9c2c0b6fc9","6838555002ab10144a4ff163","false","false","Hat","https://kisumu-drawings.s3-us-west-1.amazonaws.com/42-012.png","6","Cup","42-012.png"
"","3114","image-button-response","69","null","546013","685c6ca90f751d3aae6b1794","685c6e2932bada9c2c0b6fc9","6838555002ab10144a4ff163","false","false","Chair","https://kisumu-drawings.s3-us-west-1.amazonaws.com/32-013.png","5","Chair","32-013.png"
"","3863","image-button-response","70","null","550390","685c6ca90f751d3aae6b1794","685c6e2932bada9c2c0b6fc9","6838555002ab10144a4ff163","false","false","Bicycle","https://kisumu-drawings.s3-us-west-1.amazonaws.com/10-007.png","1","Bicycle","10-007.png"
"","2229","image-button-response","71","null","553135","685c6ca90f751d3aae6b1794","685c6e2932bada9c2c0b6fc9","6838555002ab10144a4ff163","false","false","Chair","https://kisumu-drawings.s3-us-west-1.amazonaws.com/114-010.png","5","Chair","114-010.png"
"","2708","image-button-response","72","null","556345","685c6ca90f751d3aae6b1794","685c6e2932bada9c2c0b6fc9","6838555002ab10144a4ff163","false","false","Airplane","https://kisumu-drawings.s3-us-west-1.amazonaws.com/29-016.png","10","Tree","29-016.png"
"","1725","image-button-response","73","null","558575","685c6ca90f751d3aae6b1794","685c6e2932bada9c2c0b6fc9","6838555002ab10144a4ff163","false","false","Car","https://kisumu-drawings.s3-us-west-1.amazonaws.com/41-010.png","3","Car","41-010.png"
"","2050","image-button-response","74","null","561127","685c6ca90f751d3aae6b1794","685c6e2932bada9c2c0b6fc9","6838555002ab10144a4ff163","false","false","Hat","https://kisumu-drawings.s3-us-west-1.amazonaws.com/32-015.png","5","Chair","32-015.png"
"","1914","image-button-response","75","null","563544","685c6ca90f751d3aae6b1794","685c6e2932bada9c2c0b6fc9","6838555002ab10144a4ff163","false","false","Cup","https://kisumu-drawings.s3-us-west-1.amazonaws.com/42-014.png","6","Cup","42-014.png"
