"view_history","rt","trial_type","trial_index","plugin_version","time_elapsed","study_id","session_id","participant_id","catch_trial","prep_trial","sketcher_category","stimulus","response","response_category","sketch_id"
"[{""page_index"":0,""viewing_time"":5215},{""page_index"":1,""viewing_time"":3472},{""page_index"":2,""viewing_time"":1950},{""page_index"":3,""viewing_time"":1062}]","11700","instructions","0","null","11735","685c6ca90f751d3aae6b1794","685c6e6a97507637a4667a84","6838fb79d1a854d33c6a9cb2","","","","","","",""
"","2436","image-button-response","1","null","15188","685c6ca90f751d3aae6b1794","685c6e6a97507637a4667a84","6838fb79d1a854d33c6a9cb2","false","true","car","stimuli/prep_trials/1_car_prep.png","3","Car",""
"","1674","image-button-response","2","null","17378","685c6ca90f751d3aae6b1794","685c6e6a97507637a4667a84","6838fb79d1a854d33c6a9cb2","false","true","cat","stimuli/prep_trials/0_cat_prep.jpg","4","Cat",""
"","12767","image-button-response","3","null","30655","685c6ca90f751d3aae6b1794","685c6e6a97507637a4667a84","6838fb79d1a854d33c6a9cb2","false","false","House","https://kisumu-drawings.s3-us-west-1.amazonaws.com/115-010.png","8","House","115-010.png"
"","10203","image-button-response","4","null","41374","685c6ca90f751d3aae6b1794","685c6e6a97507637a4667a84","6838fb79d1a854d33c6a9cb2","false","false","Cup","https://kisumu-drawings.s3-us-west-1.amazonaws.com/101-010.png","6","Cup","101-010.png"
"","10456","image-button-response","5","null","52347","685c6ca90f751d3aae6b1794","685c6e6a97507637a4667a84","6838fb79d1a854d33c6a9cb2","false","false","Hat","https://kisumu-drawings.s3-us-west-1.amazonaws.com/84-008.png","7","Hat","84-008.png"
"","12443","image-button-response","6","null","65297","685c6ca90f751d3aae6b1794","685c6e6a97507637a4667a84","6838fb79d1a854d33c6a9cb2","false","false","Bicycle","https://kisumu-drawings.s3-us-west-1.amazonaws.com/21-016.png","5","Chair","21-016.png"
"","7832","image-button-response","7","null","73643","685c6ca90f751d3aae6b1794","685c6e6a97507637a4667a84","6838fb79d1a854d33c6a9cb2","false","false","Rabbit","https://kisumu-drawings.s3-us-west-1.amazonaws.com/101-006.png","4","Cat","101-006.png"
"","7004","image-button-response","8","null","81160","685c6ca90f751d3aae6b1794","685c6e6a97507637a4667a84","6838fb79d1a854d33c6a9cb2","false","false","Watch","https://kisumu-drawings.s3-us-west-1.amazonaws.com/86-013.png","0","Airplane","86-013.png"
"","8531","image-button-response","9","null","90201","685c6ca90f751d3aae6b1794","685c6e6a97507637a4667a84","6838fb79d1a854d33c6a9cb2","false","false","Chair","https://kisumu-drawings.s3-us-west-1.amazonaws.com/25-009.png","5","Chair","25-009.png"
"","8392","image-button-response","10","null","99111","685c6ca90f751d3aae6b1794","685c6e6a97507637a4667a84","6838fb79d1a854d33c6a9cb2","false","false","Cup","https://kisumu-drawings.s3-us-west-1.amazonaws.com/56-011.png","6","Cup","56-011.png"
"","18117","image-button-response","11","null","117743","685c6ca90f751d3aae6b1794","685c6e6a97507637a4667a84","6838fb79d1a854d33c6a9cb2","false","false","Tree","https://kisumu-drawings.s3-us-west-1.amazonaws.com/48-006.png","11","Watch","48-006.png"
"","7816","image-button-response","12","null","126065","685c6ca90f751d3aae6b1794","685c6e6a97507637a4667a84","6838fb79d1a854d33c6a9cb2","false","false","Cat","https://kisumu-drawings.s3-us-west-1.amazonaws.com/101-011.png","4","Cat","101-011.png"
"","6837","image-button-response","13","null","133416","685c6ca90f751d3aae6b1794","685c6e6a97507637a4667a84","6838fb79d1a854d33c6a9cb2","false","false","Bird","https://kisumu-drawings.s3-us-west-1.amazonaws.com/109-013.png","2","Bird","109-013.png"
"","5688","image-button-response","14","null","139623","685c6ca90f751d3aae6b1794","685c6e6a97507637a4667a84","6838fb79d1a854d33c6a9cb2","false","false","Cup","https://kisumu-drawings.s3-us-west-1.amazonaws.com/1-015.png","9","Rabbit","1-015.png"
"","7751","image-button-response","15","null","147888","685c6ca90f751d3aae6b1794","685c6e6a97507637a4667a84","6838fb79d1a854d33c6a9cb2","false","false","House","https://kisumu-drawings.s3-us-west-1.amazonaws.com/61-008.png","8","House","61-008.png"
"","12803","image-button-response","16","null","161199","685c6ca90f751d3aae6b1794","685c6e6a97507637a4667a84","6838fb79d1a854d33c6a9cb2","false","false","Airplane","https://kisumu-drawings.s3-us-west-1.amazonaws.com/48-009.png","8","House","48-009.png"
"","6192","image-button-response","17","null","167901","685c6ca90f751d3aae6b1794","685c6e6a97507637a4667a84","6838fb79d1a854d33c6a9cb2","false","false","House","https://kisumu-drawings.s3-us-west-1.amazonaws.com/45-010.png","8","House","45-010.png"
"","5109","image-button-response","18","null","173514","685c6ca90f751d3aae6b1794","685c6e6a97507637a4667a84","6838fb79d1a854d33c6a9cb2","false","false","Chair","https://kisumu-drawings.s3-us-west-1.amazonaws.com/73-010.png","5","Chair","73-010.png"
"","4326","image-button-response","19","null","178359","685c6ca90f751d3aae6b1794","685c6e6a97507637a4667a84","6838fb79d1a854d33c6a9cb2","false","false","Airplane","https://kisumu-drawings.s3-us-west-1.amazonaws.com/61-014.png","0","Airplane","61-014.png"
"","5176","image-button-response","20","null","184043","685c6ca90f751d3aae6b1794","685c6e6a97507637a4667a84","6838fb79d1a854d33c6a9cb2","false","false","Car","https://kisumu-drawings.s3-us-west-1.amazonaws.com/80-011.png","3","Car","80-011.png"
"","4982","image-button-response","21","null","189545","685c6ca90f751d3aae6b1794","685c6e6a97507637a4667a84","6838fb79d1a854d33c6a9cb2","false","false","Airplane","https://kisumu-drawings.s3-us-west-1.amazonaws.com/101-014.png","0","Airplane","101-014.png"
"","4155","image-button-response","22","null","194216","685c6ca90f751d3aae6b1794","685c6e6a97507637a4667a84","6838fb79d1a854d33c6a9cb2","false","false","Watch","https://kisumu-drawings.s3-us-west-1.amazonaws.com/47-012.png","0","Airplane","47-012.png"
"","11248","image-button-response","23","null","205971","685c6ca90f751d3aae6b1794","685c6e6a97507637a4667a84","6838fb79d1a854d33c6a9cb2","false","false","Watch","https://kisumu-drawings.s3-us-west-1.amazonaws.com/79-007.png","0","Airplane","79-007.png"
"","16966","image-button-response","24","null","223441","685c6ca90f751d3aae6b1794","685c6e6a97507637a4667a84","6838fb79d1a854d33c6a9cb2","false","false","Watch","https://kisumu-drawings.s3-us-west-1.amazonaws.com/19-009.png","10","Tree","19-009.png"
"","6935","image-button-response","25","null","230893","685c6ca90f751d3aae6b1794","685c6e6a97507637a4667a84","6838fb79d1a854d33c6a9cb2","false","false","Rabbit","https://kisumu-drawings.s3-us-west-1.amazonaws.com/21-011.png","9","Rabbit","21-011.png"
"","13835","image-button-response","26","null","245240","685c6ca90f751d3aae6b1794","685c6e6a97507637a4667a84","6838fb79d1a854d33c6a9cb2","false","false","Car","https://kisumu-drawings.s3-us-west-1.amazonaws.com/1-011.png","9","Rabbit","1-011.png"
"","19055","image-button-response","27","null","264801","685c6ca90f751d3aae6b1794","685c6e6a97507637a4667a84","6838fb79d1a854d33c6a9cb2","false","false","Hat","https://kisumu-drawings.s3-us-west-1.amazonaws.com/61-007.png","7","Hat","61-007.png"
"","9938","image-button-response","28","null","275258","685c6ca90f751d3aae6b1794","685c6e6a97507637a4667a84","6838fb79d1a854d33c6a9cb2","false","false","Car","https://kisumu-drawings.s3-us-west-1.amazonaws.com/101-013.png","3","Car","101-013.png"
"","5797","image-button-response","29","null","281562","685c6ca90f751d3aae6b1794","685c6e6a97507637a4667a84","6838fb79d1a854d33c6a9cb2","false","false","Bird","https://kisumu-drawings.s3-us-west-1.amazonaws.com/61-006.png","2","Bird","61-006.png"
"","6225","image-button-response","30","null","288300","685c6ca90f751d3aae6b1794","685c6e6a97507637a4667a84","6838fb79d1a854d33c6a9cb2","false","false","Tree","https://kisumu-drawings.s3-us-west-1.amazonaws.com/1-005.png","6","Cup","1-005.png"
"","7872","image-button-response","31","null","296678","685c6ca90f751d3aae6b1794","685c6e6a97507637a4667a84","6838fb79d1a854d33c6a9cb2","false","false","Cat","https://kisumu-drawings.s3-us-west-1.amazonaws.com/88-013.png","4","Cat","88-013.png"
"","7724","image-button-response","32","null","304911","685c6ca90f751d3aae6b1794","685c6e6a97507637a4667a84","6838fb79d1a854d33c6a9cb2","false","false","Bird","https://kisumu-drawings.s3-us-west-1.amazonaws.com/88-015.png","9","Rabbit","88-015.png"
"","12027","image-button-response","33","null","317442","685c6ca90f751d3aae6b1794","685c6e6a97507637a4667a84","6838fb79d1a854d33c6a9cb2","false","false","Watch","https://kisumu-drawings.s3-us-west-1.amazonaws.com/120-014.png","11","Watch","120-014.png"
"","5165","image-button-response","34","null","323124","685c6ca90f751d3aae6b1794","685c6e6a97507637a4667a84","6838fb79d1a854d33c6a9cb2","false","false","Airplane","https://kisumu-drawings.s3-us-west-1.amazonaws.com/1-007.png","4","Cat","1-007.png"
"","7138","image-button-response","35","null","330772","685c6ca90f751d3aae6b1794","685c6e6a97507637a4667a84","6838fb79d1a854d33c6a9cb2","false","false","Watch","https://kisumu-drawings.s3-us-west-1.amazonaws.com/40-015.png","11","Watch","40-015.png"
"","6962","image-button-response","36","null","338244","685c6ca90f751d3aae6b1794","685c6e6a97507637a4667a84","6838fb79d1a854d33c6a9cb2","false","false","Bicycle","https://kisumu-drawings.s3-us-west-1.amazonaws.com/119-009.png","1","Bicycle","119-009.png"
"","6925","image-button-response","37","null","345690","685c6ca90f751d3aae6b1794","685c6e6a97507637a4667a84","6838fb79d1a854d33c6a9cb2","false","false","Tree","https://kisumu-drawings.s3-us-west-1.amazonaws.com/80-014.png","10","Tree","80-014.png"
"","4033","image-button-response","38","null","350240","685c6ca90f751d3aae6b1794","685c6e6a97507637a4667a84","6838fb79d1a854d33c6a9cb2","false","false","Cat","https://kisumu-drawings.s3-us-west-1.amazonaws.com/61-013.png","4","Cat","61-013.png"
"","5657","image-button-response","39","null","356415","685c6ca90f751d3aae6b1794","685c6e6a97507637a4667a84","6838fb79d1a854d33c6a9cb2","false","false","Hat","https://kisumu-drawings.s3-us-west-1.amazonaws.com/52-009.png","7","Hat","52-009.png"
"","6137","image-button-response","40","null","363058","685c6ca90f751d3aae6b1794","685c6e6a97507637a4667a84","6838fb79d1a854d33c6a9cb2","false","false","Rabbit","https://kisumu-drawings.s3-us-west-1.amazonaws.com/88-008.png","9","Rabbit","88-008.png"
"","6694","image-button-response","41","null","370265","685c6ca90f751d3aae6b1794","685c6e6a97507637a4667a84","6838fb79d1a854d33c6a9cb2","false","false","Rabbit","https://kisumu-drawings.s3-us-west-1.amazonaws.com/68-005.png","9","Rabbit","68-005.png"
"","3675","image-button-response","42","null","374454","685c6ca90f751d3aae6b1794","685c6e6a97507637a4667a84","6838fb79d1a854d33c6a9cb2","false","false","Bicycle","https://kisumu-drawings.s3-us-west-1.amazonaws.com/61-005.png","1","Bicycle","61-005.png"
"","4504","image-button-response","43","null","379466","685c6ca90f751d3aae6b1794","685c6e6a97507637a4667a84","6838fb79d1a854d33c6a9cb2","false","false","Bird","https://kisumu-drawings.s3-us-west-1.amazonaws.com/49-008.png","0","Airplane","49-008.png"
"","12173","image-button-response","44","null","392149","685c6ca90f751d3aae6b1794","685c6e6a97507637a4667a84","6838fb79d1a854d33c6a9cb2","false","false","House","https://kisumu-drawings.s3-us-west-1.amazonaws.com/13-015.png","3","Car","13-015.png"
"","6596","image-button-response","45","null","399265","685c6ca90f751d3aae6b1794","685c6e6a97507637a4667a84","6838fb79d1a854d33c6a9cb2","false","false","Tree","https://kisumu-drawings.s3-us-west-1.amazonaws.com/119-014.png","10","Tree","119-014.png"
"","3555","image-button-response","46","null","403337","685c6ca90f751d3aae6b1794","685c6e6a97507637a4667a84","6838fb79d1a854d33c6a9cb2","false","false","Airplane","https://kisumu-drawings.s3-us-west-1.amazonaws.com/88-006.png","1","Bicycle","88-006.png"
"","6979","image-button-response","47","null","410823","685c6ca90f751d3aae6b1794","685c6e6a97507637a4667a84","6838fb79d1a854d33c6a9cb2","false","false","Cat","https://kisumu-drawings.s3-us-west-1.amazonaws.com/46-010.png","4","Cat","46-010.png"
"","10838","image-button-response","48","null","422177","685c6ca90f751d3aae6b1794","685c6e6a97507637a4667a84","6838fb79d1a854d33c6a9cb2","false","false","Chair","https://kisumu-drawings.s3-us-west-1.amazonaws.com/18-014.png","6","Cup","18-014.png"
"","5101","image-button-response","49","null","427785","685c6ca90f751d3aae6b1794","685c6e6a97507637a4667a84","6838fb79d1a854d33c6a9cb2","false","false","Car","https://kisumu-drawings.s3-us-west-1.amazonaws.com/21-014.png","7","Hat","21-014.png"
"","10034","image-button-response","50","null","438334","685c6ca90f751d3aae6b1794","685c6e6a97507637a4667a84","6838fb79d1a854d33c6a9cb2","false","false","House","https://kisumu-drawings.s3-us-west-1.amazonaws.com/29-011.png","5","Chair","29-011.png"
"","8079","image-button-response","51","null","446923","685c6ca90f751d3aae6b1794","685c6e6a97507637a4667a84","6838fb79d1a854d33c6a9cb2","false","false","House","https://kisumu-drawings.s3-us-west-1.amazonaws.com/99-010.png","8","House","99-010.png"
"","5075","image-button-response","52","null","452513","685c6ca90f751d3aae6b1794","685c6e6a97507637a4667a84","6838fb79d1a854d33c6a9cb2","false","false","Cup","https://kisumu-drawings.s3-us-west-1.amazonaws.com/21-007.png","6","Cup","21-007.png"
"","5880","image-button-response","53","null","458899","685c6ca90f751d3aae6b1794","685c6e6a97507637a4667a84","6838fb79d1a854d33c6a9cb2","false","false","Bird","https://kisumu-drawings.s3-us-west-1.amazonaws.com/1-014.png","9","Rabbit","1-014.png"
"","5357","image-button-response","54","null","464773","685c6ca90f751d3aae6b1794","685c6e6a97507637a4667a84","6838fb79d1a854d33c6a9cb2","false","false","Cup","https://kisumu-drawings.s3-us-west-1.amazonaws.com/88-012.png","6","Cup","88-012.png"
"","4469","image-button-response","55","null","469748","685c6ca90f751d3aae6b1794","685c6e6a97507637a4667a84","6838fb79d1a854d33c6a9cb2","false","false","Bird","https://kisumu-drawings.s3-us-west-1.amazonaws.com/21-013.png","0","Airplane","21-013.png"
"","4871","image-button-response","56","null","475129","685c6ca90f751d3aae6b1794","685c6e6a97507637a4667a84","6838fb79d1a854d33c6a9cb2","false","false","Hat","https://kisumu-drawings.s3-us-west-1.amazonaws.com/1-016.png","9","Rabbit","1-016.png"
"","4099","image-button-response","57","null","479748","685c6ca90f751d3aae6b1794","685c6e6a97507637a4667a84","6838fb79d1a854d33c6a9cb2","false","false","Cup","https://kisumu-drawings.s3-us-west-1.amazonaws.com/61-016.png","6","Cup","61-016.png"
"","4801","image-button-response","58","null","485055","685c6ca90f751d3aae6b1794","685c6e6a97507637a4667a84","6838fb79d1a854d33c6a9cb2","false","false","Car","https://kisumu-drawings.s3-us-west-1.amazonaws.com/85-005.png","3","Car","85-005.png"
"","4768","image-button-response","59","null","490337","685c6ca90f751d3aae6b1794","685c6e6a97507637a4667a84","6838fb79d1a854d33c6a9cb2","false","false","Cat","https://kisumu-drawings.s3-us-west-1.amazonaws.com/22-005.png","4","Cat","22-005.png"
"","4723","image-button-response","60","null","495566","685c6ca90f751d3aae6b1794","685c6e6a97507637a4667a84","6838fb79d1a854d33c6a9cb2","false","false","Bicycle","https://kisumu-drawings.s3-us-west-1.amazonaws.com/49-012.png","1","Bicycle","49-012.png"
"","4095","image-button-response","61","null","500173","685c6ca90f751d3aae6b1794","685c6e6a97507637a4667a84","6838fb79d1a854d33c6a9cb2","false","false","Chair","https://kisumu-drawings.s3-us-west-1.amazonaws.com/101-009.png","5","Chair","101-009.png"
"","5617","image-button-response","62","null","506295","685c6ca90f751d3aae6b1794","685c6e6a97507637a4667a84","6838fb79d1a854d33c6a9cb2","false","false","Tree","https://kisumu-drawings.s3-us-west-1.amazonaws.com/87-009.png","5","Chair","87-009.png"
"","4787","image-button-response","63","null","511594","685c6ca90f751d3aae6b1794","685c6e6a97507637a4667a84","6838fb79d1a854d33c6a9cb2","false","false","Bicycle","https://kisumu-drawings.s3-us-west-1.amazonaws.com/88-007.png","1","Bicycle","88-007.png"
"","5695","image-button-response","64","null","517799","685c6ca90f751d3aae6b1794","685c6e6a97507637a4667a84","6838fb79d1a854d33c6a9cb2","false","false","Chair","https://kisumu-drawings.s3-us-west-1.amazonaws.com/49-005.png","8","House","49-005.png"
"","4959","image-button-response","65","null","523276","685c6ca90f751d3aae6b1794","685c6e6a97507637a4667a84","6838fb79d1a854d33c6a9cb2","false","false","Hat","https://kisumu-drawings.s3-us-west-1.amazonaws.com/115-009.png","0","Airplane","115-009.png"
"","11088","image-button-response","66","null","534867","685c6ca90f751d3aae6b1794","685c6e6a97507637a4667a84","6838fb79d1a854d33c6a9cb2","false","false","Rabbit","https://kisumu-drawings.s3-us-west-1.amazonaws.com/7-011.png","10","Tree","7-011.png"
"","6322","image-button-response","67","null","541696","685c6ca90f751d3aae6b1794","685c6e6a97507637a4667a84","6838fb79d1a854d33c6a9cb2","false","false","Chair","https://kisumu-drawings.s3-us-west-1.amazonaws.com/99-012.png","5","Chair","99-012.png"
"","1996","image-button-response","68","null","544210","685c6ca90f751d3aae6b1794","685c6e6a97507637a4667a84","6838fb79d1a854d33c6a9cb2","true","false","airplane","stimuli/catch_trials/0_airplane_catch.jpg","0","Airplane",""
"","4673","image-button-response","69","null","549393","685c6ca90f751d3aae6b1794","685c6e6a97507637a4667a84","6838fb79d1a854d33c6a9cb2","false","false","Tree","https://kisumu-drawings.s3-us-west-1.amazonaws.com/21-015.png","10","Tree","21-015.png"
"","4696","image-button-response","70","null","554604","685c6ca90f751d3aae6b1794","685c6e6a97507637a4667a84","6838fb79d1a854d33c6a9cb2","false","false","Rabbit","https://kisumu-drawings.s3-us-west-1.amazonaws.com/49-016.png","4","Cat","49-016.png"
"","5936","image-button-response","71","null","561050","685c6ca90f751d3aae6b1794","685c6e6a97507637a4667a84","6838fb79d1a854d33c6a9cb2","false","false","Bicycle","https://kisumu-drawings.s3-us-west-1.amazonaws.com/1-013.png","10","Tree","1-013.png"
"","6623","image-button-response","72","null","568184","685c6ca90f751d3aae6b1794","685c6e6a97507637a4667a84","6838fb79d1a854d33c6a9cb2","false","false","Cat","https://kisumu-drawings.s3-us-west-1.amazonaws.com/7-005.png","1","Bicycle","7-005.png"
"","6553","image-button-response","73","null","575244","685c6ca90f751d3aae6b1794","685c6e6a97507637a4667a84","6838fb79d1a854d33c6a9cb2","false","false","Airplane","https://kisumu-drawings.s3-us-west-1.amazonaws.com/40-012.png","6","Cup","40-012.png"
"","5108","image-button-response","74","null","580859","685c6ca90f751d3aae6b1794","685c6e6a97507637a4667a84","6838fb79d1a854d33c6a9cb2","false","false","Hat","https://kisumu-drawings.s3-us-west-1.amazonaws.com/21-008.png","5","Chair","21-008.png"
"","7211","image-button-response","75","null","588589","685c6ca90f751d3aae6b1794","685c6e6a97507637a4667a84","6838fb79d1a854d33c6a9cb2","false","false","Car","https://kisumu-drawings.s3-us-west-1.amazonaws.com/49-009.png","5","Chair","49-009.png"
