"view_history","rt","trial_type","trial_index","plugin_version","time_elapsed","study_id","session_id","participant_id","catch_trial","prep_trial","sketcher_category","stimulus","response","response_category","sketch_id"
"[{""page_index"":0,""viewing_time"":56713},{""page_index"":1,""viewing_time"":35787},{""page_index"":2,""viewing_time"":22381},{""page_index"":3,""viewing_time"":80405}]","195287","instructions","0","null","195321","685c6ca90f751d3aae6b1794","685c6e249c80f13482510ca3","683f262f5bff4d384c191e0e","","","","","","",""
"","16305","image-button-response","1","null","212651","685c6ca90f751d3aae6b1794","685c6e249c80f13482510ca3","683f262f5bff4d384c191e0e","false","true","car","stimuli/prep_trials/1_car_prep.png","3","Car",""
"","4471","image-button-response","2","null","217629","685c6ca90f751d3aae6b1794","685c6e249c80f13482510ca3","683f262f5bff4d384c191e0e","false","true","cat","stimuli/prep_trials/0_cat_prep.jpg","4","Cat",""
"","60731","image-button-response","3","null","278872","685c6ca90f751d3aae6b1794","685c6e249c80f13482510ca3","683f262f5bff4d384c191e0e","false","false","Airplane","https://kisumu-drawings.s3-us-west-1.amazonaws.com/55-014.png","2","Bird","55-014.png"
"","16700","image-button-response","4","null","296078","685c6ca90f751d3aae6b1794","685c6e249c80f13482510ca3","683f262f5bff4d384c191e0e","false","false","Bicycle","https://kisumu-drawings.s3-us-west-1.amazonaws.com/81-011.png","1","Bicycle","81-011.png"
"","139084","image-button-response","5","null","435674","685c6ca90f751d3aae6b1794","685c6e249c80f13482510ca3","683f262f5bff4d384c191e0e","false","false","Watch","https://kisumu-drawings.s3-us-west-1.amazonaws.com/77-013.png","0","Airplane","77-013.png"
"","55604","image-button-response","6","null","491797","685c6ca90f751d3aae6b1794","685c6e249c80f13482510ca3","683f262f5bff4d384c191e0e","false","false","Cat","https://kisumu-drawings.s3-us-west-1.amazonaws.com/16-007.png","2","Bird","16-007.png"
"","13458","image-button-response","7","null","505768","685c6ca90f751d3aae6b1794","685c6e249c80f13482510ca3","683f262f5bff4d384c191e0e","false","false","Bicycle","https://kisumu-drawings.s3-us-west-1.amazonaws.com/115-008.png","1","Bicycle","115-008.png"
"","17890","image-button-response","8","null","524167","685c6ca90f751d3aae6b1794","685c6e249c80f13482510ca3","683f262f5bff4d384c191e0e","false","false","Watch","https://kisumu-drawings.s3-us-west-1.amazonaws.com/45-013.png","9","Rabbit","45-013.png"
"","46836","image-button-response","9","null","571511","685c6ca90f751d3aae6b1794","685c6e249c80f13482510ca3","683f262f5bff4d384c191e0e","false","false","Rabbit","https://kisumu-drawings.s3-us-west-1.amazonaws.com/18-006.png","0","Airplane","18-006.png"
"","11433","image-button-response","10","null","583464","685c6ca90f751d3aae6b1794","685c6e249c80f13482510ca3","683f262f5bff4d384c191e0e","false","false","Cat","https://kisumu-drawings.s3-us-west-1.amazonaws.com/46-010.png","2","Bird","46-010.png"
"","10758","image-button-response","11","null","594735","685c6ca90f751d3aae6b1794","685c6e249c80f13482510ca3","683f262f5bff4d384c191e0e","false","false","Bird","https://kisumu-drawings.s3-us-west-1.amazonaws.com/81-007.png","2","Bird","81-007.png"
"","9957","image-button-response","12","null","605204","685c6ca90f751d3aae6b1794","685c6e249c80f13482510ca3","683f262f5bff4d384c191e0e","false","false","Airplane","https://kisumu-drawings.s3-us-west-1.amazonaws.com/73-005.png","0","Airplane","73-005.png"
"","64011","image-button-response","13","null","669725","685c6ca90f751d3aae6b1794","685c6e249c80f13482510ca3","683f262f5bff4d384c191e0e","false","false","Hat","https://kisumu-drawings.s3-us-west-1.amazonaws.com/120-007.png","11","Watch","120-007.png"
"","36771","image-button-response","14","null","707016","685c6ca90f751d3aae6b1794","685c6e249c80f13482510ca3","683f262f5bff4d384c191e0e","false","false","Chair","https://kisumu-drawings.s3-us-west-1.amazonaws.com/84-011.png","5","Chair","84-011.png"
"","26217","image-button-response","15","null","733750","685c6ca90f751d3aae6b1794","685c6e249c80f13482510ca3","683f262f5bff4d384c191e0e","false","false","Airplane","https://kisumu-drawings.s3-us-west-1.amazonaws.com/9-009.png","8","House","9-009.png"
"","16331","image-button-response","16","null","750597","685c6ca90f751d3aae6b1794","685c6e249c80f13482510ca3","683f262f5bff4d384c191e0e","false","false","Cup","https://kisumu-drawings.s3-us-west-1.amazonaws.com/84-007.png","6","Cup","84-007.png"
"","7306","image-button-response","17","null","758409","685c6ca90f751d3aae6b1794","685c6e249c80f13482510ca3","683f262f5bff4d384c191e0e","false","false","Cup","https://kisumu-drawings.s3-us-west-1.amazonaws.com/17-014.png","6","Cup","17-014.png"
"","11758","image-button-response","18","null","770678","685c6ca90f751d3aae6b1794","685c6e249c80f13482510ca3","683f262f5bff4d384c191e0e","false","false","Rabbit","https://kisumu-drawings.s3-us-west-1.amazonaws.com/47-010.png","2","Bird","47-010.png"
"","5789","image-button-response","19","null","776977","685c6ca90f751d3aae6b1794","685c6e249c80f13482510ca3","683f262f5bff4d384c191e0e","false","false","Cup","https://kisumu-drawings.s3-us-west-1.amazonaws.com/118-015.png","6","Cup","118-015.png"
"","4693","image-button-response","20","null","782182","685c6ca90f751d3aae6b1794","685c6e249c80f13482510ca3","683f262f5bff4d384c191e0e","false","false","Car","https://kisumu-drawings.s3-us-west-1.amazonaws.com/77-015.png","3","Car","77-015.png"
"","122007","image-button-response","21","null","904702","685c6ca90f751d3aae6b1794","685c6e249c80f13482510ca3","683f262f5bff4d384c191e0e","false","false","House","https://kisumu-drawings.s3-us-west-1.amazonaws.com/86-011.png","8","House","86-011.png"
"","16588","image-button-response","22","null","921799","685c6ca90f751d3aae6b1794","685c6e249c80f13482510ca3","683f262f5bff4d384c191e0e","false","false","Cat","https://kisumu-drawings.s3-us-west-1.amazonaws.com/83-006.png","9","Rabbit","83-006.png"
"","27931","image-button-response","23","null","950242","685c6ca90f751d3aae6b1794","685c6e249c80f13482510ca3","683f262f5bff4d384c191e0e","false","false","House","https://kisumu-drawings.s3-us-west-1.amazonaws.com/39-005.png","8","House","39-005.png"
"","11122","image-button-response","24","null","961875","685c6ca90f751d3aae6b1794","685c6e249c80f13482510ca3","683f262f5bff4d384c191e0e","false","false","Hat","https://kisumu-drawings.s3-us-west-1.amazonaws.com/47-015.png","2","Bird","47-015.png"
"","30841","image-button-response","25","null","993234","685c6ca90f751d3aae6b1794","685c6e249c80f13482510ca3","683f262f5bff4d384c191e0e","false","false","House","https://kisumu-drawings.s3-us-west-1.amazonaws.com/79-016.png","8","House","79-016.png"
"","46823","image-button-response","26","null","1040575","685c6ca90f751d3aae6b1794","685c6e249c80f13482510ca3","683f262f5bff4d384c191e0e","false","false","Bird","https://kisumu-drawings.s3-us-west-1.amazonaws.com/43-009.png","4","Cat","43-009.png"
"","22343","image-button-response","27","null","1063436","685c6ca90f751d3aae6b1794","685c6e249c80f13482510ca3","683f262f5bff4d384c191e0e","false","false","Watch","https://kisumu-drawings.s3-us-west-1.amazonaws.com/17-011.png","11","Watch","17-011.png"
"","37739","image-button-response","28","null","1101683","685c6ca90f751d3aae6b1794","685c6e249c80f13482510ca3","683f262f5bff4d384c191e0e","false","false","Tree","https://kisumu-drawings.s3-us-west-1.amazonaws.com/46-005.png","10","Tree","46-005.png"
"","19522","image-button-response","29","null","1121713","685c6ca90f751d3aae6b1794","685c6e249c80f13482510ca3","683f262f5bff4d384c191e0e","false","false","Rabbit","https://kisumu-drawings.s3-us-west-1.amazonaws.com/86-016.png","4","Cat","86-016.png"
"","43784","image-button-response","30","null","1166015","685c6ca90f751d3aae6b1794","685c6e249c80f13482510ca3","683f262f5bff4d384c191e0e","false","false","Bicycle","https://kisumu-drawings.s3-us-west-1.amazonaws.com/42-009.png","1","Bicycle","42-009.png"
"","18853","image-button-response","31","null","1185376","685c6ca90f751d3aae6b1794","685c6e249c80f13482510ca3","683f262f5bff4d384c191e0e","false","false","Car","https://kisumu-drawings.s3-us-west-1.amazonaws.com/15-013.png","6","Cup","15-013.png"
"","8718","image-button-response","32","null","1194602","685c6ca90f751d3aae6b1794","685c6e249c80f13482510ca3","683f262f5bff4d384c191e0e","false","false","House","https://kisumu-drawings.s3-us-west-1.amazonaws.com/47-007.png","8","House","47-007.png"
"","12495","image-button-response","33","null","1207608","685c6ca90f751d3aae6b1794","685c6e249c80f13482510ca3","683f262f5bff4d384c191e0e","false","false","Watch","https://kisumu-drawings.s3-us-west-1.amazonaws.com/38-013.png","2","Bird","38-013.png"
"","16154","image-button-response","34","null","1224270","685c6ca90f751d3aae6b1794","685c6e249c80f13482510ca3","683f262f5bff4d384c191e0e","false","false","Bicycle","https://kisumu-drawings.s3-us-west-1.amazonaws.com/13-010.png","8","House","13-010.png"
"","11745","image-button-response","35","null","1236524","685c6ca90f751d3aae6b1794","685c6e249c80f13482510ca3","683f262f5bff4d384c191e0e","false","false","Chair","https://kisumu-drawings.s3-us-west-1.amazonaws.com/38-007.png","5","Chair","38-007.png"
"","7227","image-button-response","36","null","1244260","685c6ca90f751d3aae6b1794","685c6e249c80f13482510ca3","683f262f5bff4d384c191e0e","false","false","Bird","https://kisumu-drawings.s3-us-west-1.amazonaws.com/75-005.png","0","Airplane","75-005.png"
"","4666","image-button-response","37","null","1249432","685c6ca90f751d3aae6b1794","685c6e249c80f13482510ca3","683f262f5bff4d384c191e0e","false","false","Bicycle","https://kisumu-drawings.s3-us-west-1.amazonaws.com/74-014.png","1","Bicycle","74-014.png"
"","12907","image-button-response","38","null","1262843","685c6ca90f751d3aae6b1794","685c6e249c80f13482510ca3","683f262f5bff4d384c191e0e","false","false","Rabbit","https://kisumu-drawings.s3-us-west-1.amazonaws.com/120-012.png","9","Rabbit","120-012.png"
"","7974","image-button-response","39","null","1271329","685c6ca90f751d3aae6b1794","685c6e249c80f13482510ca3","683f262f5bff4d384c191e0e","false","false","Car","https://kisumu-drawings.s3-us-west-1.amazonaws.com/117-008.png","3","Car","117-008.png"
"","7884","image-button-response","40","null","1279725","685c6ca90f751d3aae6b1794","685c6e249c80f13482510ca3","683f262f5bff4d384c191e0e","false","false","Airplane","https://kisumu-drawings.s3-us-west-1.amazonaws.com/30-005.png","0","Airplane","30-005.png"
"","6658","image-button-response","41","null","1286888","685c6ca90f751d3aae6b1794","685c6e249c80f13482510ca3","683f262f5bff4d384c191e0e","false","false","Cup","https://kisumu-drawings.s3-us-west-1.amazonaws.com/78-011.png","6","Cup","78-011.png"
"","4182","image-button-response","42","null","1291589","685c6ca90f751d3aae6b1794","685c6e249c80f13482510ca3","683f262f5bff4d384c191e0e","false","false","Chair","https://kisumu-drawings.s3-us-west-1.amazonaws.com/46-012.png","5","Chair","46-012.png"
"","5182","image-button-response","43","null","1297280","685c6ca90f751d3aae6b1794","685c6e249c80f13482510ca3","683f262f5bff4d384c191e0e","false","false","Hat","https://kisumu-drawings.s3-us-west-1.amazonaws.com/86-006.png","7","Hat","86-006.png"
"","11311","image-button-response","44","null","1309097","685c6ca90f751d3aae6b1794","685c6e249c80f13482510ca3","683f262f5bff4d384c191e0e","false","false","House","https://kisumu-drawings.s3-us-west-1.amazonaws.com/18-005.png","7","Hat","18-005.png"
"","11539","image-button-response","45","null","1321153","685c6ca90f751d3aae6b1794","685c6e249c80f13482510ca3","683f262f5bff4d384c191e0e","false","false","Bird","https://kisumu-drawings.s3-us-west-1.amazonaws.com/35-005.png","7","Hat","35-005.png"
"","5355","image-button-response","46","null","1327013","685c6ca90f751d3aae6b1794","685c6e249c80f13482510ca3","683f262f5bff4d384c191e0e","false","false","Cat","https://kisumu-drawings.s3-us-west-1.amazonaws.com/77-007.png","2","Bird","77-007.png"
"","5151","image-button-response","47","null","1332681","685c6ca90f751d3aae6b1794","685c6e249c80f13482510ca3","683f262f5bff4d384c191e0e","false","false","Chair","https://kisumu-drawings.s3-us-west-1.amazonaws.com/79-010.png","5","Chair","79-010.png"
"","3922","image-button-response","48","null","1337111","685c6ca90f751d3aae6b1794","685c6e249c80f13482510ca3","683f262f5bff4d384c191e0e","false","false","Bird","https://kisumu-drawings.s3-us-west-1.amazonaws.com/14-013.png","7","Hat","14-013.png"
"","7409","image-button-response","49","null","1345026","685c6ca90f751d3aae6b1794","685c6e249c80f13482510ca3","683f262f5bff4d384c191e0e","false","false","Rabbit","https://kisumu-drawings.s3-us-west-1.amazonaws.com/79-014.png","4","Cat","79-014.png"
"","9588","image-button-response","50","null","1355125","685c6ca90f751d3aae6b1794","685c6e249c80f13482510ca3","683f262f5bff4d384c191e0e","false","false","Airplane","https://kisumu-drawings.s3-us-west-1.amazonaws.com/113-014.png","0","Airplane","113-014.png"
"","6126","image-button-response","51","null","1361760","685c6ca90f751d3aae6b1794","685c6e249c80f13482510ca3","683f262f5bff4d384c191e0e","false","false","Tree","https://kisumu-drawings.s3-us-west-1.amazonaws.com/18-016.png","6","Cup","18-016.png"
"","14920","image-button-response","52","null","1377187","685c6ca90f751d3aae6b1794","685c6e249c80f13482510ca3","683f262f5bff4d384c191e0e","false","false","Cat","https://kisumu-drawings.s3-us-west-1.amazonaws.com/38-006.png","4","Cat","38-006.png"
"","12426","image-button-response","53","null","1390131","685c6ca90f751d3aae6b1794","685c6e249c80f13482510ca3","683f262f5bff4d384c191e0e","false","false","Car","https://kisumu-drawings.s3-us-west-1.amazonaws.com/36-011.png","8","House","36-011.png"
"","7700","image-button-response","54","null","1398337","685c6ca90f751d3aae6b1794","685c6e249c80f13482510ca3","683f262f5bff4d384c191e0e","false","false","Airplane","https://kisumu-drawings.s3-us-west-1.amazonaws.com/100-014.png","5","Chair","100-014.png"
"","8028","image-button-response","55","null","1406868","685c6ca90f751d3aae6b1794","685c6e249c80f13482510ca3","683f262f5bff4d384c191e0e","false","false","Bicycle","https://kisumu-drawings.s3-us-west-1.amazonaws.com/33-006.png","2","Bird","33-006.png"
"","6609","image-button-response","56","null","1413987","685c6ca90f751d3aae6b1794","685c6e249c80f13482510ca3","683f262f5bff4d384c191e0e","false","false","Tree","https://kisumu-drawings.s3-us-west-1.amazonaws.com/39-013.png","10","Tree","39-013.png"
"","5719","image-button-response","57","null","1420211","685c6ca90f751d3aae6b1794","685c6e249c80f13482510ca3","683f262f5bff4d384c191e0e","false","false","Watch","https://kisumu-drawings.s3-us-west-1.amazonaws.com/83-005.png","11","Watch","83-005.png"
"","3441","image-button-response","58","null","1424159","685c6ca90f751d3aae6b1794","685c6e249c80f13482510ca3","683f262f5bff4d384c191e0e","false","false","Car","https://kisumu-drawings.s3-us-west-1.amazonaws.com/84-013.png","3","Car","84-013.png"
"","3237","image-button-response","59","null","1427910","685c6ca90f751d3aae6b1794","685c6e249c80f13482510ca3","683f262f5bff4d384c191e0e","false","false","Cup","https://kisumu-drawings.s3-us-west-1.amazonaws.com/46-013.png","6","Cup","46-013.png"
"","5037","image-button-response","60","null","1433451","685c6ca90f751d3aae6b1794","685c6e249c80f13482510ca3","683f262f5bff4d384c191e0e","false","false","Chair","https://kisumu-drawings.s3-us-west-1.amazonaws.com/118-006.png","5","Chair","118-006.png"
"","4846","image-button-response","61","null","1438803","685c6ca90f751d3aae6b1794","685c6e249c80f13482510ca3","683f262f5bff4d384c191e0e","false","false","Car","https://kisumu-drawings.s3-us-west-1.amazonaws.com/44-011.png","3","Car","44-011.png"
"","3307","image-button-response","62","null","1442626","685c6ca90f751d3aae6b1794","685c6e249c80f13482510ca3","683f262f5bff4d384c191e0e","false","false","House","https://kisumu-drawings.s3-us-west-1.amazonaws.com/120-011.png","8","House","120-011.png"
"","3733","image-button-response","63","null","1446862","685c6ca90f751d3aae6b1794","685c6e249c80f13482510ca3","683f262f5bff4d384c191e0e","false","false","Hat","https://kisumu-drawings.s3-us-west-1.amazonaws.com/78-013.png","1","Bicycle","78-013.png"
"","37428","image-button-response","64","null","1484796","685c6ca90f751d3aae6b1794","685c6e249c80f13482510ca3","683f262f5bff4d384c191e0e","false","false","Bird","https://kisumu-drawings.s3-us-west-1.amazonaws.com/116-010.png","8","House","116-010.png"
"","9547","image-button-response","65","null","1494857","685c6ca90f751d3aae6b1794","685c6e249c80f13482510ca3","683f262f5bff4d384c191e0e","false","false","Rabbit","https://kisumu-drawings.s3-us-west-1.amazonaws.com/38-009.png","4","Cat","38-009.png"
"","5708","image-button-response","66","null","1501078","685c6ca90f751d3aae6b1794","685c6e249c80f13482510ca3","683f262f5bff4d384c191e0e","false","false","Tree","https://kisumu-drawings.s3-us-west-1.amazonaws.com/84-005.png","10","Tree","84-005.png"
"","3180","image-button-response","67","null","1504765","685c6ca90f751d3aae6b1794","685c6e249c80f13482510ca3","683f262f5bff4d384c191e0e","false","false","Tree","https://kisumu-drawings.s3-us-west-1.amazonaws.com/78-016.png","10","Tree","78-016.png"
"","3752","image-button-response","68","null","1509026","685c6ca90f751d3aae6b1794","685c6e249c80f13482510ca3","683f262f5bff4d384c191e0e","false","false","Hat","https://kisumu-drawings.s3-us-west-1.amazonaws.com/17-015.png","3","Car","17-015.png"
"","2781","image-button-response","69","null","1512312","685c6ca90f751d3aae6b1794","685c6e249c80f13482510ca3","683f262f5bff4d384c191e0e","false","false","Hat","https://kisumu-drawings.s3-us-west-1.amazonaws.com/38-011.png","8","House","38-011.png"
"","4378","image-button-response","70","null","1517196","685c6ca90f751d3aae6b1794","685c6e249c80f13482510ca3","683f262f5bff4d384c191e0e","true","false","airplane","stimuli/catch_trials/0_airplane_catch.jpg","0","Airplane",""
"","5362","image-button-response","71","null","1523068","685c6ca90f751d3aae6b1794","685c6e249c80f13482510ca3","683f262f5bff4d384c191e0e","false","false","Watch","https://kisumu-drawings.s3-us-west-1.amazonaws.com/117-007.png","11","Watch","117-007.png"
"","4740","image-button-response","72","null","1528312","685c6ca90f751d3aae6b1794","685c6e249c80f13482510ca3","683f262f5bff4d384c191e0e","false","false","Cup","https://kisumu-drawings.s3-us-west-1.amazonaws.com/38-010.png","6","Cup","38-010.png"
"","7161","image-button-response","73","null","1535987","685c6ca90f751d3aae6b1794","685c6e249c80f13482510ca3","683f262f5bff4d384c191e0e","false","false","Cat","https://kisumu-drawings.s3-us-west-1.amazonaws.com/118-005.png","4","Cat","118-005.png"
"","5449","image-button-response","74","null","1541944","685c6ca90f751d3aae6b1794","685c6e249c80f13482510ca3","683f262f5bff4d384c191e0e","false","false","Tree","https://kisumu-drawings.s3-us-west-1.amazonaws.com/118-013.png","10","Tree","118-013.png"
"","4547","image-button-response","75","null","1546998","685c6ca90f751d3aae6b1794","685c6e249c80f13482510ca3","683f262f5bff4d384c191e0e","false","false","Chair","https://kisumu-drawings.s3-us-west-1.amazonaws.com/17-008.png","5","Chair","17-008.png"
