"view_history","rt","trial_type","trial_index","plugin_version","time_elapsed","study_id","session_id","participant_id","catch_trial","prep_trial","sketcher_category","stimulus","response","response_category","sketch_id"
"[{""page_index"":0,""viewing_time"":10962},{""page_index"":1,""viewing_time"":12974},{""page_index"":2,""viewing_time"":1098},{""page_index"":3,""viewing_time"":1747}]","26781","instructions","0","null","26791","685c6ca90f751d3aae6b1794","685c6e2e5da70af74fc6f181","68479b714636d80fbaaac694","","","","","","",""
"","3277","image-button-response","1","null","31079","685c6ca90f751d3aae6b1794","685c6e2e5da70af74fc6f181","68479b714636d80fbaaac694","false","true","car","stimuli/prep_trials/1_car_prep.png","3","Car",""
"","2183","image-button-response","2","null","33774","685c6ca90f751d3aae6b1794","685c6e2e5da70af74fc6f181","68479b714636d80fbaaac694","false","true","cat","stimuli/prep_trials/0_cat_prep.jpg","4","Cat",""
"","13418","image-button-response","3","null","47702","685c6ca90f751d3aae6b1794","685c6e2e5da70af74fc6f181","68479b714636d80fbaaac694","false","false","Bicycle","https://kisumu-drawings.s3-us-west-1.amazonaws.com/84-009.png","1","Bicycle","84-009.png"
"","42386","image-button-response","4","null","90597","685c6ca90f751d3aae6b1794","685c6e2e5da70af74fc6f181","68479b714636d80fbaaac694","false","false","Watch","https://kisumu-drawings.s3-us-west-1.amazonaws.com/19-009.png","10","Tree","19-009.png"
"","25872","image-button-response","5","null","116990","685c6ca90f751d3aae6b1794","685c6e2e5da70af74fc6f181","68479b714636d80fbaaac694","false","false","Tree","https://kisumu-drawings.s3-us-west-1.amazonaws.com/3-015.png","10","Tree","3-015.png"
"","14167","image-button-response","6","null","131669","685c6ca90f751d3aae6b1794","685c6e2e5da70af74fc6f181","68479b714636d80fbaaac694","false","false","Chair","https://kisumu-drawings.s3-us-west-1.amazonaws.com/31-010.png","5","Chair","31-010.png"
"","20761","image-button-response","7","null","152941","685c6ca90f751d3aae6b1794","685c6e2e5da70af74fc6f181","68479b714636d80fbaaac694","false","false","Hat","https://kisumu-drawings.s3-us-west-1.amazonaws.com/27-015.png","6","Cup","27-015.png"
"","21237","image-button-response","8","null","174686","685c6ca90f751d3aae6b1794","685c6e2e5da70af74fc6f181","68479b714636d80fbaaac694","false","false","Chair","https://kisumu-drawings.s3-us-west-1.amazonaws.com/116-013.png","5","Chair","116-013.png"
"","12439","image-button-response","9","null","187636","685c6ca90f751d3aae6b1794","685c6e2e5da70af74fc6f181","68479b714636d80fbaaac694","false","false","Cup","https://kisumu-drawings.s3-us-west-1.amazonaws.com/47-014.png","6","Cup","47-014.png"
"","9403","image-button-response","10","null","197560","685c6ca90f751d3aae6b1794","685c6e2e5da70af74fc6f181","68479b714636d80fbaaac694","false","false","Cup","https://kisumu-drawings.s3-us-west-1.amazonaws.com/105-011.png","6","Cup","105-011.png"
"","22417","image-button-response","11","null","220488","685c6ca90f751d3aae6b1794","685c6e2e5da70af74fc6f181","68479b714636d80fbaaac694","false","false","Rabbit","https://kisumu-drawings.s3-us-west-1.amazonaws.com/9-014.png","8","House","9-014.png"
"","27515","image-button-response","12","null","248519","685c6ca90f751d3aae6b1794","685c6e2e5da70af74fc6f181","68479b714636d80fbaaac694","false","false","Bird","https://kisumu-drawings.s3-us-west-1.amazonaws.com/29-006.png","2","Bird","29-006.png"
"","12027","image-button-response","13","null","261069","685c6ca90f751d3aae6b1794","685c6e2e5da70af74fc6f181","68479b714636d80fbaaac694","false","false","Airplane","https://kisumu-drawings.s3-us-west-1.amazonaws.com/59-011.png","0","Airplane","59-011.png"
"","19528","image-button-response","14","null","281119","685c6ca90f751d3aae6b1794","685c6e2e5da70af74fc6f181","68479b714636d80fbaaac694","false","false","Bird","https://kisumu-drawings.s3-us-west-1.amazonaws.com/111-007.png","2","Bird","111-007.png"
"","21619","image-button-response","15","null","303256","685c6ca90f751d3aae6b1794","685c6e2e5da70af74fc6f181","68479b714636d80fbaaac694","false","false","Airplane","https://kisumu-drawings.s3-us-west-1.amazonaws.com/26-006.png","3","Car","26-006.png"
"","19003","image-button-response","16","null","322778","685c6ca90f751d3aae6b1794","685c6e2e5da70af74fc6f181","68479b714636d80fbaaac694","false","false","House","https://kisumu-drawings.s3-us-west-1.amazonaws.com/55-016.png","8","House","55-016.png"
"","8921","image-button-response","17","null","332211","685c6ca90f751d3aae6b1794","685c6e2e5da70af74fc6f181","68479b714636d80fbaaac694","false","false","House","https://kisumu-drawings.s3-us-west-1.amazonaws.com/116-015.png","8","House","116-015.png"
"","11090","image-button-response","18","null","343807","685c6ca90f751d3aae6b1794","685c6e2e5da70af74fc6f181","68479b714636d80fbaaac694","false","false","Watch","https://kisumu-drawings.s3-us-west-1.amazonaws.com/88-005.png","11","Watch","88-005.png"
"","23907","image-button-response","19","null","368225","685c6ca90f751d3aae6b1794","685c6e2e5da70af74fc6f181","68479b714636d80fbaaac694","false","false","Chair","https://kisumu-drawings.s3-us-west-1.amazonaws.com/65-012.png","8","House","65-012.png"
"","40074","image-button-response","20","null","408822","685c6ca90f751d3aae6b1794","685c6e2e5da70af74fc6f181","68479b714636d80fbaaac694","false","false","Bicycle","https://kisumu-drawings.s3-us-west-1.amazonaws.com/6-016.png","0","Airplane","6-016.png"
"","13162","image-button-response","21","null","422505","685c6ca90f751d3aae6b1794","685c6e2e5da70af74fc6f181","68479b714636d80fbaaac694","false","false","Cup","https://kisumu-drawings.s3-us-west-1.amazonaws.com/68-006.png","6","Cup","68-006.png"
"","15737","image-button-response","22","null","438753","685c6ca90f751d3aae6b1794","685c6e2e5da70af74fc6f181","68479b714636d80fbaaac694","false","false","Car","https://kisumu-drawings.s3-us-west-1.amazonaws.com/67-005.png","3","Car","67-005.png"
"","11689","image-button-response","23","null","450957","685c6ca90f751d3aae6b1794","685c6e2e5da70af74fc6f181","68479b714636d80fbaaac694","false","false","Bicycle","https://kisumu-drawings.s3-us-west-1.amazonaws.com/108-016.png","1","Bicycle","108-016.png"
"","47581","image-button-response","24","null","499045","685c6ca90f751d3aae6b1794","685c6e2e5da70af74fc6f181","68479b714636d80fbaaac694","false","false","Rabbit","https://kisumu-drawings.s3-us-west-1.amazonaws.com/116-016.png","9","Rabbit","116-016.png"
"","25948","image-button-response","25","null","525511","685c6ca90f751d3aae6b1794","685c6e2e5da70af74fc6f181","68479b714636d80fbaaac694","false","false","Bird","https://kisumu-drawings.s3-us-west-1.amazonaws.com/1-014.png","4","Cat","1-014.png"
"","23327","image-button-response","26","null","549355","685c6ca90f751d3aae6b1794","685c6e2e5da70af74fc6f181","68479b714636d80fbaaac694","false","false","Watch","https://kisumu-drawings.s3-us-west-1.amazonaws.com/101-015.png","11","Watch","101-015.png"
"","9127","image-button-response","27","null","558993","685c6ca90f751d3aae6b1794","685c6e2e5da70af74fc6f181","68479b714636d80fbaaac694","false","false","Chair","https://kisumu-drawings.s3-us-west-1.amazonaws.com/97-009.png","5","Chair","97-009.png"
"","18960","image-button-response","28","null","578461","685c6ca90f751d3aae6b1794","685c6e2e5da70af74fc6f181","68479b714636d80fbaaac694","false","false","House","https://kisumu-drawings.s3-us-west-1.amazonaws.com/37-014.png","8","House","37-014.png"
"","11444","image-button-response","29","null","590412","685c6ca90f751d3aae6b1794","685c6e2e5da70af74fc6f181","68479b714636d80fbaaac694","false","false","Bird","https://kisumu-drawings.s3-us-west-1.amazonaws.com/92-012.png","2","Bird","92-012.png"
"","11045","image-button-response","30","null","601967","685c6ca90f751d3aae6b1794","685c6e2e5da70af74fc6f181","68479b714636d80fbaaac694","false","false","Hat","https://kisumu-drawings.s3-us-west-1.amazonaws.com/105-015.png","6","Cup","105-015.png"
"","11023","image-button-response","31","null","613503","685c6ca90f751d3aae6b1794","685c6e2e5da70af74fc6f181","68479b714636d80fbaaac694","false","false","Tree","https://kisumu-drawings.s3-us-west-1.amazonaws.com/84-005.png","10","Tree","84-005.png"
"","22908","image-button-response","32","null","636933","685c6ca90f751d3aae6b1794","685c6e2e5da70af74fc6f181","68479b714636d80fbaaac694","false","false","Airplane","https://kisumu-drawings.s3-us-west-1.amazonaws.com/74-015.png","0","Airplane","74-015.png"
"","5542","image-button-response","33","null","642983","685c6ca90f751d3aae6b1794","685c6e2e5da70af74fc6f181","68479b714636d80fbaaac694","false","false","Tree","https://kisumu-drawings.s3-us-west-1.amazonaws.com/27-012.png","10","Tree","27-012.png"
"","12074","image-button-response","34","null","655561","685c6ca90f751d3aae6b1794","685c6e2e5da70af74fc6f181","68479b714636d80fbaaac694","false","false","Chair","https://kisumu-drawings.s3-us-west-1.amazonaws.com/60-011.png","5","Chair","60-011.png"
"","23280","image-button-response","35","null","679354","685c6ca90f751d3aae6b1794","685c6e2e5da70af74fc6f181","68479b714636d80fbaaac694","false","false","Watch","https://kisumu-drawings.s3-us-west-1.amazonaws.com/29-012.png","11","Watch","29-012.png"
"","32195","image-button-response","36","null","712056","685c6ca90f751d3aae6b1794","685c6e2e5da70af74fc6f181","68479b714636d80fbaaac694","false","false","Bicycle","https://kisumu-drawings.s3-us-west-1.amazonaws.com/52-005.png","1","Bicycle","52-005.png"
"","10814","image-button-response","37","null","723377","685c6ca90f751d3aae6b1794","685c6e2e5da70af74fc6f181","68479b714636d80fbaaac694","false","false","House","https://kisumu-drawings.s3-us-west-1.amazonaws.com/81-015.png","8","House","81-015.png"
"","11743","image-button-response","38","null","735634","685c6ca90f751d3aae6b1794","685c6e2e5da70af74fc6f181","68479b714636d80fbaaac694","false","false","Cup","https://kisumu-drawings.s3-us-west-1.amazonaws.com/1-015.png","4","Cat","1-015.png"
"","44130","image-button-response","39","null","780271","685c6ca90f751d3aae6b1794","685c6e2e5da70af74fc6f181","68479b714636d80fbaaac694","false","false","Car","https://kisumu-drawings.s3-us-west-1.amazonaws.com/19-015.png","5","Chair","19-015.png"
"","27777","image-button-response","40","null","808558","685c6ca90f751d3aae6b1794","685c6e2e5da70af74fc6f181","68479b714636d80fbaaac694","false","false","Car","https://kisumu-drawings.s3-us-west-1.amazonaws.com/119-010.png","3","Car","119-010.png"
"","34653","image-button-response","41","null","843726","685c6ca90f751d3aae6b1794","685c6e2e5da70af74fc6f181","68479b714636d80fbaaac694","false","false","Bird","https://kisumu-drawings.s3-us-west-1.amazonaws.com/75-005.png","0","Airplane","75-005.png"
"","24310","image-button-response","42","null","868542","685c6ca90f751d3aae6b1794","685c6e2e5da70af74fc6f181","68479b714636d80fbaaac694","false","false","Bicycle","https://kisumu-drawings.s3-us-west-1.amazonaws.com/68-009.png","1","Bicycle","68-009.png"
"","16407","image-button-response","43","null","885456","685c6ca90f751d3aae6b1794","685c6e2e5da70af74fc6f181","68479b714636d80fbaaac694","false","false","Rabbit","https://kisumu-drawings.s3-us-west-1.amazonaws.com/54-016.png","4","Cat","54-016.png"
"","14105","image-button-response","44","null","900079","685c6ca90f751d3aae6b1794","685c6e2e5da70af74fc6f181","68479b714636d80fbaaac694","false","false","Cat","https://kisumu-drawings.s3-us-west-1.amazonaws.com/72-014.png","9","Rabbit","72-014.png"
"","9115","image-button-response","45","null","909700","685c6ca90f751d3aae6b1794","685c6e2e5da70af74fc6f181","68479b714636d80fbaaac694","false","false","Cat","https://kisumu-drawings.s3-us-west-1.amazonaws.com/53-007.png","4","Cat","53-007.png"
"","13981","image-button-response","46","null","924200","685c6ca90f751d3aae6b1794","685c6e2e5da70af74fc6f181","68479b714636d80fbaaac694","false","false","Cup","https://kisumu-drawings.s3-us-west-1.amazonaws.com/35-010.png","6","Cup","35-010.png"
"","11734","image-button-response","47","null","936452","685c6ca90f751d3aae6b1794","685c6e2e5da70af74fc6f181","68479b714636d80fbaaac694","false","false","Bird","https://kisumu-drawings.s3-us-west-1.amazonaws.com/43-009.png","9","Rabbit","43-009.png"
"","7198","image-button-response","48","null","944157","685c6ca90f751d3aae6b1794","685c6e2e5da70af74fc6f181","68479b714636d80fbaaac694","false","false","Hat","https://kisumu-drawings.s3-us-west-1.amazonaws.com/61-007.png","7","Hat","61-007.png"
"","19650","image-button-response","49","null","964311","685c6ca90f751d3aae6b1794","685c6e2e5da70af74fc6f181","68479b714636d80fbaaac694","false","false","Hat","https://kisumu-drawings.s3-us-west-1.amazonaws.com/45-009.png","6","Cup","45-009.png"
"","15401","image-button-response","50","null","980231","685c6ca90f751d3aae6b1794","685c6e2e5da70af74fc6f181","68479b714636d80fbaaac694","false","false","Cat","https://kisumu-drawings.s3-us-west-1.amazonaws.com/118-005.png","4","Cat","118-005.png"
"","13748","image-button-response","51","null","994499","685c6ca90f751d3aae6b1794","685c6e2e5da70af74fc6f181","68479b714636d80fbaaac694","false","false","Rabbit","https://kisumu-drawings.s3-us-west-1.amazonaws.com/29-013.png","7","Hat","29-013.png"
"","9775","image-button-response","52","null","1004781","685c6ca90f751d3aae6b1794","685c6e2e5da70af74fc6f181","68479b714636d80fbaaac694","false","false","Cup","https://kisumu-drawings.s3-us-west-1.amazonaws.com/83-011.png","6","Cup","83-011.png"
"","10259","image-button-response","53","null","1015550","685c6ca90f751d3aae6b1794","685c6e2e5da70af74fc6f181","68479b714636d80fbaaac694","false","false","Tree","https://kisumu-drawings.s3-us-west-1.amazonaws.com/116-006.png","10","Tree","116-006.png"
"","29776","image-button-response","54","null","1045837","685c6ca90f751d3aae6b1794","685c6e2e5da70af74fc6f181","68479b714636d80fbaaac694","false","false","Rabbit","https://kisumu-drawings.s3-us-west-1.amazonaws.com/70-006.png","9","Rabbit","70-006.png"
"","81231","image-button-response","55","null","1127577","685c6ca90f751d3aae6b1794","685c6e2e5da70af74fc6f181","68479b714636d80fbaaac694","false","false","Hat","https://kisumu-drawings.s3-us-west-1.amazonaws.com/6-005.png","8","House","6-005.png"
"","5583","image-button-response","56","null","1133670","685c6ca90f751d3aae6b1794","685c6e2e5da70af74fc6f181","68479b714636d80fbaaac694","true","false","airplane","stimuli/catch_trials/0_airplane_catch.jpg","0","Airplane",""
"","20401","image-button-response","57","null","1154587","685c6ca90f751d3aae6b1794","685c6e2e5da70af74fc6f181","68479b714636d80fbaaac694","false","false","Cat","https://kisumu-drawings.s3-us-west-1.amazonaws.com/23-006.png","9","Rabbit","23-006.png"
"","17997","image-button-response","58","null","1173092","685c6ca90f751d3aae6b1794","685c6e2e5da70af74fc6f181","68479b714636d80fbaaac694","false","false","Rabbit","https://kisumu-drawings.s3-us-west-1.amazonaws.com/87-013.png","2","Bird","87-013.png"
"","8676","image-button-response","59","null","1182281","685c6ca90f751d3aae6b1794","685c6e2e5da70af74fc6f181","68479b714636d80fbaaac694","false","false","Airplane","https://kisumu-drawings.s3-us-west-1.amazonaws.com/108-014.png","0","Airplane","108-014.png"
"","10830","image-button-response","60","null","1193620","685c6ca90f751d3aae6b1794","685c6e2e5da70af74fc6f181","68479b714636d80fbaaac694","false","false","Tree","https://kisumu-drawings.s3-us-west-1.amazonaws.com/68-015.png","10","Tree","68-015.png"
"","15002","image-button-response","61","null","1209127","685c6ca90f751d3aae6b1794","685c6e2e5da70af74fc6f181","68479b714636d80fbaaac694","false","false","Watch","https://kisumu-drawings.s3-us-west-1.amazonaws.com/72-007.png","0","Airplane","72-007.png"
"","13504","image-button-response","62","null","1223144","685c6ca90f751d3aae6b1794","685c6e2e5da70af74fc6f181","68479b714636d80fbaaac694","false","false","Hat","https://kisumu-drawings.s3-us-west-1.amazonaws.com/87-011.png","5","Chair","87-011.png"
"","9719","image-button-response","63","null","1233367","685c6ca90f751d3aae6b1794","685c6e2e5da70af74fc6f181","68479b714636d80fbaaac694","false","false","Car","https://kisumu-drawings.s3-us-west-1.amazonaws.com/43-016.png","3","Car","43-016.png"
"","15448","image-button-response","64","null","1249324","685c6ca90f751d3aae6b1794","685c6e2e5da70af74fc6f181","68479b714636d80fbaaac694","false","false","House","https://kisumu-drawings.s3-us-west-1.amazonaws.com/2-008.png","8","House","2-008.png"
"","31839","image-button-response","65","null","1281675","685c6ca90f751d3aae6b1794","685c6e2e5da70af74fc6f181","68479b714636d80fbaaac694","false","false","Cat","https://kisumu-drawings.s3-us-west-1.amazonaws.com/88-013.png","4","Cat","88-013.png"
"","29589","image-button-response","66","null","1311768","685c6ca90f751d3aae6b1794","685c6e2e5da70af74fc6f181","68479b714636d80fbaaac694","false","false","Chair","https://kisumu-drawings.s3-us-west-1.amazonaws.com/18-014.png","6","Cup","18-014.png"
"","13028","image-button-response","67","null","1325308","685c6ca90f751d3aae6b1794","685c6e2e5da70af74fc6f181","68479b714636d80fbaaac694","false","false","Airplane","https://kisumu-drawings.s3-us-west-1.amazonaws.com/86-009.png","0","Airplane","86-009.png"
"","11418","image-button-response","68","null","1337242","685c6ca90f751d3aae6b1794","685c6e2e5da70af74fc6f181","68479b714636d80fbaaac694","false","false","Watch","https://kisumu-drawings.s3-us-west-1.amazonaws.com/48-012.png","0","Airplane","48-012.png"
"","25521","image-button-response","69","null","1363270","685c6ca90f751d3aae6b1794","685c6e2e5da70af74fc6f181","68479b714636d80fbaaac694","false","false","Airplane","https://kisumu-drawings.s3-us-west-1.amazonaws.com/7-009.png","7","Hat","7-009.png"
"","19794","image-button-response","70","null","1383569","685c6ca90f751d3aae6b1794","685c6e2e5da70af74fc6f181","68479b714636d80fbaaac694","false","false","Cat","https://kisumu-drawings.s3-us-west-1.amazonaws.com/10-008.png","9","Rabbit","10-008.png"
"","29913","image-button-response","71","null","1413996","685c6ca90f751d3aae6b1794","685c6e2e5da70af74fc6f181","68479b714636d80fbaaac694","false","false","Car","https://kisumu-drawings.s3-us-west-1.amazonaws.com/94-014.png","3","Car","94-014.png"
"","13263","image-button-response","72","null","1427764","685c6ca90f751d3aae6b1794","685c6e2e5da70af74fc6f181","68479b714636d80fbaaac694","false","false","Bicycle","https://kisumu-drawings.s3-us-west-1.amazonaws.com/23-016.png","0","Airplane","23-016.png"
"","8292","image-button-response","73","null","1436564","685c6ca90f751d3aae6b1794","685c6e2e5da70af74fc6f181","68479b714636d80fbaaac694","false","false","Car","https://kisumu-drawings.s3-us-west-1.amazonaws.com/26-007.png","3","Car","26-007.png"
"","17634","image-button-response","74","null","1454702","685c6ca90f751d3aae6b1794","685c6e2e5da70af74fc6f181","68479b714636d80fbaaac694","false","false","House","https://kisumu-drawings.s3-us-west-1.amazonaws.com/78-012.png","8","House","78-012.png"
"","8499","image-button-response","75","null","1463711","685c6ca90f751d3aae6b1794","685c6e2e5da70af74fc6f181","68479b714636d80fbaaac694","false","false","Tree","https://kisumu-drawings.s3-us-west-1.amazonaws.com/50-009.png","10","Tree","50-009.png"
