"view_history","rt","trial_type","trial_index","plugin_version","time_elapsed","study_id","session_id","participant_id","catch_trial","prep_trial","sketcher_category","stimulus","response","response_category","sketch_id"
"[{""page_index"":0,""viewing_time"":23252},{""page_index"":1,""viewing_time"":7503},{""page_index"":2,""viewing_time"":11408},{""page_index"":3,""viewing_time"":25968}]","68132","instructions","0","null","68155","685c6ca90f751d3aae6b1794","685c704a3ad222bee344b0bf","6849b4f01f764670ab73b0ee","","","","","","",""
"","5193","image-button-response","1","null","74355","685c6ca90f751d3aae6b1794","685c704a3ad222bee344b0bf","6849b4f01f764670ab73b0ee","false","true","car","stimuli/prep_trials/1_car_prep.png","3","Car",""
"","4886","image-button-response","2","null","79746","685c6ca90f751d3aae6b1794","685c704a3ad222bee344b0bf","6849b4f01f764670ab73b0ee","false","true","cat","stimuli/prep_trials/0_cat_prep.jpg","4","Cat",""
"","25120","image-button-response","3","null","105370","685c6ca90f751d3aae6b1794","685c704a3ad222bee344b0bf","6849b4f01f764670ab73b0ee","false","false","Bird","https://kisumu-drawings.s3-us-west-1.amazonaws.com/52-007.png","5","Chair","52-007.png"
"","23095","image-button-response","4","null","128969","685c6ca90f751d3aae6b1794","685c704a3ad222bee344b0bf","6849b4f01f764670ab73b0ee","false","false","Bicycle","https://kisumu-drawings.s3-us-west-1.amazonaws.com/85-006.png","1","Bicycle","85-006.png"
"","5729","image-button-response","5","null","135209","685c6ca90f751d3aae6b1794","685c704a3ad222bee344b0bf","6849b4f01f764670ab73b0ee","false","false","Cup","https://kisumu-drawings.s3-us-west-1.amazonaws.com/59-015.png","6","Cup","59-015.png"
"","2471","image-button-response","6","null","138185","685c6ca90f751d3aae6b1794","685c704a3ad222bee344b0bf","6849b4f01f764670ab73b0ee","true","false","airplane","stimuli/catch_trials/0_airplane_catch.jpg","0","Airplane",""
"","22984","image-button-response","7","null","161674","685c6ca90f751d3aae6b1794","685c704a3ad222bee344b0bf","6849b4f01f764670ab73b0ee","false","false","Watch","https://kisumu-drawings.s3-us-west-1.amazonaws.com/87-010.png","11","Watch","87-010.png"
"","7232","image-button-response","8","null","169409","685c6ca90f751d3aae6b1794","685c704a3ad222bee344b0bf","6849b4f01f764670ab73b0ee","false","false","Bird","https://kisumu-drawings.s3-us-west-1.amazonaws.com/73-008.png","2","Bird","73-008.png"
"","12527","image-button-response","9","null","182441","685c6ca90f751d3aae6b1794","685c704a3ad222bee344b0bf","6849b4f01f764670ab73b0ee","false","false","Bicycle","https://kisumu-drawings.s3-us-west-1.amazonaws.com/107-015.png","1","Bicycle","107-015.png"
"","7688","image-button-response","10","null","190633","685c6ca90f751d3aae6b1794","685c704a3ad222bee344b0bf","6849b4f01f764670ab73b0ee","false","false","Tree","https://kisumu-drawings.s3-us-west-1.amazonaws.com/101-007.png","10","Tree","101-007.png"
"","14297","image-button-response","11","null","205434","685c6ca90f751d3aae6b1794","685c704a3ad222bee344b0bf","6849b4f01f764670ab73b0ee","false","false","Rabbit","https://kisumu-drawings.s3-us-west-1.amazonaws.com/80-016.png","9","Rabbit","80-016.png"
"","10336","image-button-response","12","null","216273","685c6ca90f751d3aae6b1794","685c704a3ad222bee344b0bf","6849b4f01f764670ab73b0ee","false","false","House","https://kisumu-drawings.s3-us-west-1.amazonaws.com/57-015.png","8","House","57-015.png"
"","7952","image-button-response","13","null","224729","685c6ca90f751d3aae6b1794","685c704a3ad222bee344b0bf","6849b4f01f764670ab73b0ee","false","false","Tree","https://kisumu-drawings.s3-us-west-1.amazonaws.com/88-009.png","10","Tree","88-009.png"
"","22136","image-button-response","14","null","247369","685c6ca90f751d3aae6b1794","685c704a3ad222bee344b0bf","6849b4f01f764670ab73b0ee","false","false","Chair","https://kisumu-drawings.s3-us-west-1.amazonaws.com/47-013.png","5","Chair","47-013.png"
"","11080","image-button-response","15","null","258953","685c6ca90f751d3aae6b1794","685c704a3ad222bee344b0bf","6849b4f01f764670ab73b0ee","false","false","Car","https://kisumu-drawings.s3-us-west-1.amazonaws.com/86-007.png","3","Car","86-007.png"
"","9962","image-button-response","16","null","269417","685c6ca90f751d3aae6b1794","685c704a3ad222bee344b0bf","6849b4f01f764670ab73b0ee","false","false","Watch","https://kisumu-drawings.s3-us-west-1.amazonaws.com/80-015.png","11","Watch","80-015.png"
"","28864","image-button-response","17","null","298785","685c6ca90f751d3aae6b1794","685c704a3ad222bee344b0bf","6849b4f01f764670ab73b0ee","false","false","Rabbit","https://kisumu-drawings.s3-us-west-1.amazonaws.com/19-007.png","10","Tree","19-007.png"
"","40720","image-button-response","18","null","340008","685c6ca90f751d3aae6b1794","685c704a3ad222bee344b0bf","6849b4f01f764670ab73b0ee","false","false","Airplane","https://kisumu-drawings.s3-us-west-1.amazonaws.com/29-016.png","0","Airplane","29-016.png"
"","28322","image-button-response","19","null","368833","685c6ca90f751d3aae6b1794","685c704a3ad222bee344b0bf","6849b4f01f764670ab73b0ee","false","false","Hat","https://kisumu-drawings.s3-us-west-1.amazonaws.com/20-006.png","7","Hat","20-006.png"
"","14968","image-button-response","20","null","384304","685c6ca90f751d3aae6b1794","685c704a3ad222bee344b0bf","6849b4f01f764670ab73b0ee","false","false","Cup","https://kisumu-drawings.s3-us-west-1.amazonaws.com/88-012.png","6","Cup","88-012.png"
"","25264","image-button-response","21","null","410072","685c6ca90f751d3aae6b1794","685c704a3ad222bee344b0bf","6849b4f01f764670ab73b0ee","false","false","Watch","https://kisumu-drawings.s3-us-west-1.amazonaws.com/1-006.png","11","Watch","1-006.png"
"","14753","image-button-response","22","null","425329","685c6ca90f751d3aae6b1794","685c704a3ad222bee344b0bf","6849b4f01f764670ab73b0ee","false","false","Tree","https://kisumu-drawings.s3-us-west-1.amazonaws.com/40-014.png","10","Tree","40-014.png"
"","39257","image-button-response","23","null","465089","685c6ca90f751d3aae6b1794","685c704a3ad222bee344b0bf","6849b4f01f764670ab73b0ee","false","false","Cup","https://kisumu-drawings.s3-us-west-1.amazonaws.com/11-014.png","10","Tree","11-014.png"
"","18104","image-button-response","24","null","483696","685c6ca90f751d3aae6b1794","685c704a3ad222bee344b0bf","6849b4f01f764670ab73b0ee","false","false","Bird","https://kisumu-drawings.s3-us-west-1.amazonaws.com/89-012.png","0","Airplane","89-012.png"
"","6624","image-button-response","25","null","490824","685c6ca90f751d3aae6b1794","685c704a3ad222bee344b0bf","6849b4f01f764670ab73b0ee","false","false","Cat","https://kisumu-drawings.s3-us-west-1.amazonaws.com/98-009.png","4","Cat","98-009.png"
"","9088","image-button-response","26","null","500416","685c6ca90f751d3aae6b1794","685c704a3ad222bee344b0bf","6849b4f01f764670ab73b0ee","false","false","House","https://kisumu-drawings.s3-us-west-1.amazonaws.com/89-015.png","8","House","89-015.png"
"","6104","image-button-response","27","null","507024","685c6ca90f751d3aae6b1794","685c704a3ad222bee344b0bf","6849b4f01f764670ab73b0ee","false","false","Tree","https://kisumu-drawings.s3-us-west-1.amazonaws.com/49-014.png","10","Tree","49-014.png"
"","15281","image-button-response","28","null","522808","685c6ca90f751d3aae6b1794","685c704a3ad222bee344b0bf","6849b4f01f764670ab73b0ee","false","false","Cat","https://kisumu-drawings.s3-us-west-1.amazonaws.com/26-010.png","4","Cat","26-010.png"
"","14408","image-button-response","29","null","537720","685c6ca90f751d3aae6b1794","685c704a3ad222bee344b0bf","6849b4f01f764670ab73b0ee","false","false","Bicycle","https://kisumu-drawings.s3-us-west-1.amazonaws.com/12-007.png","1","Bicycle","12-007.png"
"","22722","image-button-response","30","null","560944","685c6ca90f751d3aae6b1794","685c704a3ad222bee344b0bf","6849b4f01f764670ab73b0ee","false","false","Airplane","https://kisumu-drawings.s3-us-west-1.amazonaws.com/57-014.png","3","Car","57-014.png"
"","7928","image-button-response","31","null","569376","685c6ca90f751d3aae6b1794","685c704a3ad222bee344b0bf","6849b4f01f764670ab73b0ee","false","false","Car","https://kisumu-drawings.s3-us-west-1.amazonaws.com/120-008.png","3","Car","120-008.png"
"","6729","image-button-response","32","null","576608","685c6ca90f751d3aae6b1794","685c704a3ad222bee344b0bf","6849b4f01f764670ab73b0ee","false","false","House","https://kisumu-drawings.s3-us-west-1.amazonaws.com/67-009.png","8","House","67-009.png"
"","24896","image-button-response","33","null","602007","685c6ca90f751d3aae6b1794","685c704a3ad222bee344b0bf","6849b4f01f764670ab73b0ee","false","false","Rabbit","https://kisumu-drawings.s3-us-west-1.amazonaws.com/48-014.png","10","Tree","48-014.png"
"","10497","image-button-response","34","null","613008","685c6ca90f751d3aae6b1794","685c704a3ad222bee344b0bf","6849b4f01f764670ab73b0ee","false","false","House","https://kisumu-drawings.s3-us-west-1.amazonaws.com/19-006.png","10","Tree","19-006.png"
"","7128","image-button-response","35","null","620640","685c6ca90f751d3aae6b1794","685c704a3ad222bee344b0bf","6849b4f01f764670ab73b0ee","false","false","Hat","https://kisumu-drawings.s3-us-west-1.amazonaws.com/99-007.png","7","Hat","99-007.png"
"","24361","image-button-response","36","null","645504","685c6ca90f751d3aae6b1794","685c704a3ad222bee344b0bf","6849b4f01f764670ab73b0ee","false","false","Airplane","https://kisumu-drawings.s3-us-west-1.amazonaws.com/9-009.png","5","Chair","9-009.png"
"","11776","image-button-response","37","null","657784","685c6ca90f751d3aae6b1794","685c704a3ad222bee344b0bf","6849b4f01f764670ab73b0ee","false","false","Rabbit","https://kisumu-drawings.s3-us-west-1.amazonaws.com/95-016.png","9","Rabbit","95-016.png"
"","30321","image-button-response","38","null","688608","685c6ca90f751d3aae6b1794","685c704a3ad222bee344b0bf","6849b4f01f764670ab73b0ee","false","false","Watch","https://kisumu-drawings.s3-us-west-1.amazonaws.com/21-009.png","5","Chair","21-009.png"
"","8169","image-button-response","39","null","697281","685c6ca90f751d3aae6b1794","685c704a3ad222bee344b0bf","6849b4f01f764670ab73b0ee","false","false","Chair","https://kisumu-drawings.s3-us-west-1.amazonaws.com/108-007.png","5","Chair","108-007.png"
"","24031","image-button-response","40","null","721815","685c6ca90f751d3aae6b1794","685c704a3ad222bee344b0bf","6849b4f01f764670ab73b0ee","false","false","Cup","https://kisumu-drawings.s3-us-west-1.amazonaws.com/39-011.png","10","Tree","39-011.png"
"","13842","image-button-response","41","null","736160","685c6ca90f751d3aae6b1794","685c704a3ad222bee344b0bf","6849b4f01f764670ab73b0ee","false","false","Tree","https://kisumu-drawings.s3-us-west-1.amazonaws.com/18-016.png","7","Hat","18-016.png"
"","9344","image-button-response","42","null","746007","685c6ca90f751d3aae6b1794","685c704a3ad222bee344b0bf","6849b4f01f764670ab73b0ee","false","false","Airplane","https://kisumu-drawings.s3-us-west-1.amazonaws.com/64-016.png","0","Airplane","64-016.png"
"","10985","image-button-response","43","null","757495","685c6ca90f751d3aae6b1794","685c704a3ad222bee344b0bf","6849b4f01f764670ab73b0ee","false","false","Airplane","https://kisumu-drawings.s3-us-west-1.amazonaws.com/117-015.png","0","Airplane","117-015.png"
"","7977","image-button-response","44","null","765975","685c6ca90f751d3aae6b1794","685c704a3ad222bee344b0bf","6849b4f01f764670ab73b0ee","false","false","Hat","https://kisumu-drawings.s3-us-west-1.amazonaws.com/30-012.png","7","Hat","30-012.png"
"","32232","image-button-response","45","null","798711","685c6ca90f751d3aae6b1794","685c704a3ad222bee344b0bf","6849b4f01f764670ab73b0ee","false","false","Watch","https://kisumu-drawings.s3-us-west-1.amazonaws.com/48-012.png","4","Cat","48-012.png"
"","16201","image-button-response","46","null","815415","685c6ca90f751d3aae6b1794","685c704a3ad222bee344b0bf","6849b4f01f764670ab73b0ee","false","false","Cat","https://kisumu-drawings.s3-us-west-1.amazonaws.com/2-015.png","4","Cat","2-015.png"
"","17112","image-button-response","47","null","833031","685c6ca90f751d3aae6b1794","685c704a3ad222bee344b0bf","6849b4f01f764670ab73b0ee","false","false","Car","https://kisumu-drawings.s3-us-west-1.amazonaws.com/15-013.png","6","Cup","15-013.png"
"","15601","image-button-response","48","null","849135","685c6ca90f751d3aae6b1794","685c704a3ad222bee344b0bf","6849b4f01f764670ab73b0ee","false","false","House","https://kisumu-drawings.s3-us-west-1.amazonaws.com/35-011.png","8","House","35-011.png"
"","41416","image-button-response","49","null","891055","685c6ca90f751d3aae6b1794","685c704a3ad222bee344b0bf","6849b4f01f764670ab73b0ee","false","false","Car","https://kisumu-drawings.s3-us-west-1.amazonaws.com/71-009.png","3","Car","71-009.png"
"","10120","image-button-response","50","null","901678","685c6ca90f751d3aae6b1794","685c704a3ad222bee344b0bf","6849b4f01f764670ab73b0ee","false","false","Car","https://kisumu-drawings.s3-us-west-1.amazonaws.com/52-006.png","3","Car","52-006.png"
"","6530","image-button-response","51","null","908711","685c6ca90f751d3aae6b1794","685c704a3ad222bee344b0bf","6849b4f01f764670ab73b0ee","false","false","Bicycle","https://kisumu-drawings.s3-us-west-1.amazonaws.com/80-010.png","1","Bicycle","80-010.png"
"","8337","image-button-response","52","null","917551","685c6ca90f751d3aae6b1794","685c704a3ad222bee344b0bf","6849b4f01f764670ab73b0ee","false","false","Cat","https://kisumu-drawings.s3-us-west-1.amazonaws.com/67-013.png","4","Cat","67-013.png"
"","19449","image-button-response","53","null","937504","685c6ca90f751d3aae6b1794","685c704a3ad222bee344b0bf","6849b4f01f764670ab73b0ee","false","false","Chair","https://kisumu-drawings.s3-us-west-1.amazonaws.com/18-014.png","6","Cup","18-014.png"
"","5454","image-button-response","54","null","943463","685c6ca90f751d3aae6b1794","685c704a3ad222bee344b0bf","6849b4f01f764670ab73b0ee","false","false","Car","https://kisumu-drawings.s3-us-west-1.amazonaws.com/38-005.png","3","Car","38-005.png"
"","3417","image-button-response","55","null","947383","685c6ca90f751d3aae6b1794","685c704a3ad222bee344b0bf","6849b4f01f764670ab73b0ee","false","false","Tree","https://kisumu-drawings.s3-us-west-1.amazonaws.com/61-010.png","10","Tree","61-010.png"
"","4544","image-button-response","56","null","952431","685c6ca90f751d3aae6b1794","685c704a3ad222bee344b0bf","6849b4f01f764670ab73b0ee","false","false","Hat","https://kisumu-drawings.s3-us-west-1.amazonaws.com/65-014.png","7","Hat","65-014.png"
"","6401","image-button-response","57","null","959335","685c6ca90f751d3aae6b1794","685c704a3ad222bee344b0bf","6849b4f01f764670ab73b0ee","false","false","Hat","https://kisumu-drawings.s3-us-west-1.amazonaws.com/104-010.png","7","Hat","104-010.png"
"","16776","image-button-response","58","null","976615","685c6ca90f751d3aae6b1794","685c704a3ad222bee344b0bf","6849b4f01f764670ab73b0ee","false","false","Rabbit","https://kisumu-drawings.s3-us-west-1.amazonaws.com/37-015.png","2","Bird","37-015.png"
"","7577","image-button-response","59","null","984694","685c6ca90f751d3aae6b1794","685c704a3ad222bee344b0bf","6849b4f01f764670ab73b0ee","false","false","Chair","https://kisumu-drawings.s3-us-west-1.amazonaws.com/71-011.png","5","Chair","71-011.png"
"","10728","image-button-response","60","null","995926","685c6ca90f751d3aae6b1794","685c704a3ad222bee344b0bf","6849b4f01f764670ab73b0ee","false","false","Airplane","https://kisumu-drawings.s3-us-west-1.amazonaws.com/91-016.png","0","Airplane","91-016.png"
"","14098","image-button-response","61","null","1010527","685c6ca90f751d3aae6b1794","685c704a3ad222bee344b0bf","6849b4f01f764670ab73b0ee","false","false","Bicycle","https://kisumu-drawings.s3-us-west-1.amazonaws.com/44-007.png","1","Bicycle","44-007.png"
"","29392","image-button-response","62","null","1040423","685c6ca90f751d3aae6b1794","685c704a3ad222bee344b0bf","6849b4f01f764670ab73b0ee","false","false","Rabbit","https://kisumu-drawings.s3-us-west-1.amazonaws.com/116-016.png","2","Bird","116-016.png"
"","7951","image-button-response","63","null","1048878","685c6ca90f751d3aae6b1794","685c704a3ad222bee344b0bf","6849b4f01f764670ab73b0ee","false","false","Bird","https://kisumu-drawings.s3-us-west-1.amazonaws.com/27-007.png","6","Cup","27-007.png"
"","11336","image-button-response","64","null","1060718","685c6ca90f751d3aae6b1794","685c704a3ad222bee344b0bf","6849b4f01f764670ab73b0ee","false","false","Hat","https://kisumu-drawings.s3-us-west-1.amazonaws.com/60-005.png","3","Car","60-005.png"
"","5018","image-button-response","65","null","1066239","685c6ca90f751d3aae6b1794","685c704a3ad222bee344b0bf","6849b4f01f764670ab73b0ee","false","false","Bird","https://kisumu-drawings.s3-us-west-1.amazonaws.com/106-015.png","2","Bird","106-015.png"
"","8535","image-button-response","66","null","1075279","685c6ca90f751d3aae6b1794","685c704a3ad222bee344b0bf","6849b4f01f764670ab73b0ee","false","false","Bicycle","https://kisumu-drawings.s3-us-west-1.amazonaws.com/21-016.png","5","Chair","21-016.png"
"","7753","image-button-response","67","null","1083535","685c6ca90f751d3aae6b1794","685c704a3ad222bee344b0bf","6849b4f01f764670ab73b0ee","false","false","Chair","https://kisumu-drawings.s3-us-west-1.amazonaws.com/81-012.png","5","Chair","81-012.png"
"","7705","image-button-response","68","null","1091742","685c6ca90f751d3aae6b1794","685c704a3ad222bee344b0bf","6849b4f01f764670ab73b0ee","false","false","House","https://kisumu-drawings.s3-us-west-1.amazonaws.com/118-011.png","8","House","118-011.png"
"","18970","image-button-response","69","null","1111215","685c6ca90f751d3aae6b1794","685c704a3ad222bee344b0bf","6849b4f01f764670ab73b0ee","false","false","Chair","https://kisumu-drawings.s3-us-west-1.amazonaws.com/32-013.png","9","Rabbit","32-013.png"
"","5727","image-button-response","70","null","1117446","685c6ca90f751d3aae6b1794","685c704a3ad222bee344b0bf","6849b4f01f764670ab73b0ee","false","false","Cup","https://kisumu-drawings.s3-us-west-1.amazonaws.com/104-008.png","6","Cup","104-008.png"
"","7441","image-button-response","71","null","1125390","685c6ca90f751d3aae6b1794","685c704a3ad222bee344b0bf","6849b4f01f764670ab73b0ee","false","false","Cat","https://kisumu-drawings.s3-us-west-1.amazonaws.com/101-011.png","4","Cat","101-011.png"
"","9168","image-button-response","72","null","1135062","685c6ca90f751d3aae6b1794","685c704a3ad222bee344b0bf","6849b4f01f764670ab73b0ee","false","false","Bird","https://kisumu-drawings.s3-us-west-1.amazonaws.com/17-007.png","2","Bird","17-007.png"
"","5689","image-button-response","73","null","1141254","685c6ca90f751d3aae6b1794","685c704a3ad222bee344b0bf","6849b4f01f764670ab73b0ee","false","false","Cup","https://kisumu-drawings.s3-us-west-1.amazonaws.com/67-011.png","6","Cup","67-011.png"
"","5119","image-button-response","74","null","1146878","685c6ca90f751d3aae6b1794","685c704a3ad222bee344b0bf","6849b4f01f764670ab73b0ee","false","false","Cat","https://kisumu-drawings.s3-us-west-1.amazonaws.com/58-009.png","4","Cat","58-009.png"
"","5455","image-button-response","75","null","1152838","685c6ca90f751d3aae6b1794","685c704a3ad222bee344b0bf","6849b4f01f764670ab73b0ee","false","false","Watch","https://kisumu-drawings.s3-us-west-1.amazonaws.com/119-015.png","11","Watch","119-015.png"
