"view_history","rt","trial_type","trial_index","plugin_version","time_elapsed","study_id","session_id","participant_id","catch_trial","prep_trial","sketcher_category","stimulus","response","response_category","sketch_id"
"[{""page_index"":0,""viewing_time"":69017},{""page_index"":1,""viewing_time"":8753},{""page_index"":2,""viewing_time"":21973},{""page_index"":3,""viewing_time"":11805}]","111547","instructions","0","null","111571","685c6ca90f751d3aae6b1794","685c6f388fbcd696a74bee93","6849fb64f9dac52b426c9aad","","","","","","",""
"","4732","image-button-response","1","null","117327","685c6ca90f751d3aae6b1794","685c6f388fbcd696a74bee93","6849fb64f9dac52b426c9aad","false","true","car","stimuli/prep_trials/1_car_prep.png","3","Car",""
"","5862","image-button-response","2","null","123694","685c6ca90f751d3aae6b1794","685c6f388fbcd696a74bee93","6849fb64f9dac52b426c9aad","false","true","cat","stimuli/prep_trials/0_cat_prep.jpg","4","Cat",""
"","84856","image-button-response","3","null","209059","685c6ca90f751d3aae6b1794","685c6f388fbcd696a74bee93","6849fb64f9dac52b426c9aad","false","false","Chair","https://kisumu-drawings.s3-us-west-1.amazonaws.com/1-008.png","10","Tree","1-008.png"
"","24522","image-button-response","4","null","234090","685c6ca90f751d3aae6b1794","685c6f388fbcd696a74bee93","6849fb64f9dac52b426c9aad","false","false","House","https://kisumu-drawings.s3-us-west-1.amazonaws.com/21-010.png","8","House","21-010.png"
"","10979","image-button-response","5","null","245585","685c6ca90f751d3aae6b1794","685c6f388fbcd696a74bee93","6849fb64f9dac52b426c9aad","false","false","Tree","https://kisumu-drawings.s3-us-west-1.amazonaws.com/79-006.png","10","Tree","79-006.png"
"","11660","image-button-response","6","null","257756","685c6ca90f751d3aae6b1794","685c6f388fbcd696a74bee93","6849fb64f9dac52b426c9aad","false","false","Bicycle","https://kisumu-drawings.s3-us-west-1.amazonaws.com/120-010.png","0","Airplane","120-010.png"
"","11455","image-button-response","7","null","269729","685c6ca90f751d3aae6b1794","685c6f388fbcd696a74bee93","6849fb64f9dac52b426c9aad","false","false","Cat","https://kisumu-drawings.s3-us-west-1.amazonaws.com/101-011.png","9","Rabbit","101-011.png"
"","25429","image-button-response","8","null","295668","685c6ca90f751d3aae6b1794","685c6f388fbcd696a74bee93","6849fb64f9dac52b426c9aad","false","false","Cup","https://kisumu-drawings.s3-us-west-1.amazonaws.com/1-015.png","9","Rabbit","1-015.png"
"","16576","image-button-response","9","null","312753","685c6ca90f751d3aae6b1794","685c6f388fbcd696a74bee93","6849fb64f9dac52b426c9aad","false","false","Bicycle","https://kisumu-drawings.s3-us-west-1.amazonaws.com/48-010.png","3","Car","48-010.png"
"","10153","image-button-response","10","null","323416","685c6ca90f751d3aae6b1794","685c6f388fbcd696a74bee93","6849fb64f9dac52b426c9aad","false","false","Car","https://kisumu-drawings.s3-us-west-1.amazonaws.com/48-005.png","3","Car","48-005.png"
"","22946","image-button-response","11","null","346866","685c6ca90f751d3aae6b1794","685c6f388fbcd696a74bee93","6849fb64f9dac52b426c9aad","false","false","Airplane","https://kisumu-drawings.s3-us-west-1.amazonaws.com/39-008.png","10","Tree","39-008.png"
"","51811","image-button-response","12","null","399188","685c6ca90f751d3aae6b1794","685c6f388fbcd696a74bee93","6849fb64f9dac52b426c9aad","false","false","Hat","https://kisumu-drawings.s3-us-west-1.amazonaws.com/19-005.png","3","Car","19-005.png"
"","24468","image-button-response","13","null","424163","685c6ca90f751d3aae6b1794","685c6f388fbcd696a74bee93","6849fb64f9dac52b426c9aad","false","false","Rabbit","https://kisumu-drawings.s3-us-west-1.amazonaws.com/119-008.png","9","Rabbit","119-008.png"
"","12381","image-button-response","14","null","437061","685c6ca90f751d3aae6b1794","685c6f388fbcd696a74bee93","6849fb64f9dac52b426c9aad","false","false","Airplane","https://kisumu-drawings.s3-us-west-1.amazonaws.com/47-016.png","8","House","47-016.png"
"","6848","image-button-response","15","null","444423","685c6ca90f751d3aae6b1794","685c6f388fbcd696a74bee93","6849fb64f9dac52b426c9aad","false","false","Cat","https://kisumu-drawings.s3-us-west-1.amazonaws.com/61-013.png","4","Cat","61-013.png"
"","19794","image-button-response","16","null","464731","685c6ca90f751d3aae6b1794","685c6f388fbcd696a74bee93","6849fb64f9dac52b426c9aad","false","false","Tree","https://kisumu-drawings.s3-us-west-1.amazonaws.com/19-008.png","10","Tree","19-008.png"
"","11892","image-button-response","17","null","477141","685c6ca90f751d3aae6b1794","685c6f388fbcd696a74bee93","6849fb64f9dac52b426c9aad","false","false","Hat","https://kisumu-drawings.s3-us-west-1.amazonaws.com/61-007.png","0","Airplane","61-007.png"
"","8642","image-button-response","18","null","486287","685c6ca90f751d3aae6b1794","685c6f388fbcd696a74bee93","6849fb64f9dac52b426c9aad","false","false","Chair","https://kisumu-drawings.s3-us-west-1.amazonaws.com/88-014.png","5","Chair","88-014.png"
"","17354","image-button-response","19","null","504146","685c6ca90f751d3aae6b1794","685c6f388fbcd696a74bee93","6849fb64f9dac52b426c9aad","false","false","Hat","https://kisumu-drawings.s3-us-west-1.amazonaws.com/40-013.png","8","House","40-013.png"
"","13059","image-button-response","20","null","517710","685c6ca90f751d3aae6b1794","685c6f388fbcd696a74bee93","6849fb64f9dac52b426c9aad","false","false","Car","https://kisumu-drawings.s3-us-west-1.amazonaws.com/40-005.png","3","Car","40-005.png"
"","16964","image-button-response","21","null","535189","685c6ca90f751d3aae6b1794","685c6f388fbcd696a74bee93","6849fb64f9dac52b426c9aad","false","false","Cat","https://kisumu-drawings.s3-us-west-1.amazonaws.com/87-006.png","4","Cat","87-006.png"
"","8780","image-button-response","22","null","544478","685c6ca90f751d3aae6b1794","685c6f388fbcd696a74bee93","6849fb64f9dac52b426c9aad","false","false","Chair","https://kisumu-drawings.s3-us-west-1.amazonaws.com/101-009.png","5","Chair","101-009.png"
"","6334","image-button-response","23","null","551320","685c6ca90f751d3aae6b1794","685c6f388fbcd696a74bee93","6849fb64f9dac52b426c9aad","false","false","Airplane","https://kisumu-drawings.s3-us-west-1.amazonaws.com/87-005.png","0","Airplane","87-005.png"
"","3151","image-button-response","24","null","554991","685c6ca90f751d3aae6b1794","685c6f388fbcd696a74bee93","6849fb64f9dac52b426c9aad","true","false","airplane","stimuli/catch_trials/0_airplane_catch.jpg","0","Airplane",""
"","10631","image-button-response","25","null","566134","685c6ca90f751d3aae6b1794","685c6f388fbcd696a74bee93","6849fb64f9dac52b426c9aad","false","false","Cup","https://kisumu-drawings.s3-us-west-1.amazonaws.com/61-016.png","6","Cup","61-016.png"
"","11110","image-button-response","26","null","577751","685c6ca90f751d3aae6b1794","685c6f388fbcd696a74bee93","6849fb64f9dac52b426c9aad","false","false","Bird","https://kisumu-drawings.s3-us-west-1.amazonaws.com/101-012.png","3","Car","101-012.png"
"","12507","image-button-response","27","null","590763","685c6ca90f751d3aae6b1794","685c6f388fbcd696a74bee93","6849fb64f9dac52b426c9aad","false","false","Car","https://kisumu-drawings.s3-us-west-1.amazonaws.com/101-013.png","3","Car","101-013.png"
"","8684","image-button-response","28","null","599954","685c6ca90f751d3aae6b1794","685c6f388fbcd696a74bee93","6849fb64f9dac52b426c9aad","false","false","Bird","https://kisumu-drawings.s3-us-west-1.amazonaws.com/48-008.png","8","House","48-008.png"
"","13453","image-button-response","29","null","613913","685c6ca90f751d3aae6b1794","685c6f388fbcd696a74bee93","6849fb64f9dac52b426c9aad","false","false","Watch","https://kisumu-drawings.s3-us-west-1.amazonaws.com/78-014.png","5","Chair","78-014.png"
"","8812","image-button-response","30","null","623241","685c6ca90f751d3aae6b1794","685c6f388fbcd696a74bee93","6849fb64f9dac52b426c9aad","false","false","Rabbit","https://kisumu-drawings.s3-us-west-1.amazonaws.com/61-009.png","9","Rabbit","61-009.png"
"","10470","image-button-response","31","null","634223","685c6ca90f751d3aae6b1794","685c6f388fbcd696a74bee93","6849fb64f9dac52b426c9aad","false","false","House","https://kisumu-drawings.s3-us-west-1.amazonaws.com/1-009.png","4","Cat","1-009.png"
"","8732","image-button-response","32","null","643465","685c6ca90f751d3aae6b1794","685c6f388fbcd696a74bee93","6849fb64f9dac52b426c9aad","false","false","Tree","https://kisumu-drawings.s3-us-west-1.amazonaws.com/120-013.png","10","Tree","120-013.png"
"","6304","image-button-response","33","null","650274","685c6ca90f751d3aae6b1794","685c6f388fbcd696a74bee93","6849fb64f9dac52b426c9aad","false","false","Bicycle","https://kisumu-drawings.s3-us-west-1.amazonaws.com/19-014.png","5","Chair","19-014.png"
"","13534","image-button-response","34","null","664319","685c6ca90f751d3aae6b1794","685c6f388fbcd696a74bee93","6849fb64f9dac52b426c9aad","false","false","Cat","https://kisumu-drawings.s3-us-west-1.amazonaws.com/49-010.png","9","Rabbit","49-010.png"
"","10040","image-button-response","35","null","674863","685c6ca90f751d3aae6b1794","685c6f388fbcd696a74bee93","6849fb64f9dac52b426c9aad","false","false","Bird","https://kisumu-drawings.s3-us-west-1.amazonaws.com/40-007.png","5","Chair","40-007.png"
"","11473","image-button-response","36","null","686844","685c6ca90f751d3aae6b1794","685c6f388fbcd696a74bee93","6849fb64f9dac52b426c9aad","false","false","Watch","https://kisumu-drawings.s3-us-west-1.amazonaws.com/47-012.png","0","Airplane","47-012.png"
"","30322","image-button-response","37","null","717676","685c6ca90f751d3aae6b1794","685c6f388fbcd696a74bee93","6849fb64f9dac52b426c9aad","false","false","Hat","https://kisumu-drawings.s3-us-west-1.amazonaws.com/49-006.png","8","House","49-006.png"
"","14835","image-button-response","38","null","733018","685c6ca90f751d3aae6b1794","685c6f388fbcd696a74bee93","6849fb64f9dac52b426c9aad","false","false","Hat","https://kisumu-drawings.s3-us-west-1.amazonaws.com/88-011.png","8","House","88-011.png"
"","5943","image-button-response","39","null","739480","685c6ca90f751d3aae6b1794","685c6f388fbcd696a74bee93","6849fb64f9dac52b426c9aad","false","false","Airplane","https://kisumu-drawings.s3-us-west-1.amazonaws.com/80-009.png","0","Airplane","80-009.png"
"","8458","image-button-response","40","null","748445","685c6ca90f751d3aae6b1794","685c6f388fbcd696a74bee93","6849fb64f9dac52b426c9aad","false","false","House","https://kisumu-drawings.s3-us-west-1.amazonaws.com/61-008.png","8","House","61-008.png"
"","8130","image-button-response","41","null","757087","685c6ca90f751d3aae6b1794","685c6f388fbcd696a74bee93","6849fb64f9dac52b426c9aad","false","false","Tree","https://kisumu-drawings.s3-us-west-1.amazonaws.com/40-014.png","10","Tree","40-014.png"
"","12355","image-button-response","42","null","769947","685c6ca90f751d3aae6b1794","685c6f388fbcd696a74bee93","6849fb64f9dac52b426c9aad","false","false","Cup","https://kisumu-drawings.s3-us-west-1.amazonaws.com/49-013.png","6","Cup","49-013.png"
"","12620","image-button-response","43","null","783079","685c6ca90f751d3aae6b1794","685c6f388fbcd696a74bee93","6849fb64f9dac52b426c9aad","false","false","Bicycle","https://kisumu-drawings.s3-us-west-1.amazonaws.com/80-010.png","1","Bicycle","80-010.png"
"","8754","image-button-response","44","null","792342","685c6ca90f751d3aae6b1794","685c6f388fbcd696a74bee93","6849fb64f9dac52b426c9aad","false","false","Bicycle","https://kisumu-drawings.s3-us-west-1.amazonaws.com/40-006.png","1","Bicycle","40-006.png"
"","13996","image-button-response","45","null","806847","685c6ca90f751d3aae6b1794","685c6f388fbcd696a74bee93","6849fb64f9dac52b426c9aad","false","false","Hat","https://kisumu-drawings.s3-us-west-1.amazonaws.com/101-008.png","8","House","101-008.png"
"","11950","image-button-response","46","null","819304","685c6ca90f751d3aae6b1794","685c6f388fbcd696a74bee93","6849fb64f9dac52b426c9aad","false","false","Bicycle","https://kisumu-drawings.s3-us-west-1.amazonaws.com/87-015.png","0","Airplane","87-015.png"
"","11917","image-button-response","47","null","831725","685c6ca90f751d3aae6b1794","685c6f388fbcd696a74bee93","6849fb64f9dac52b426c9aad","false","false","Cup","https://kisumu-drawings.s3-us-west-1.amazonaws.com/101-010.png","6","Cup","101-010.png"
"","11257","image-button-response","48","null","843491","685c6ca90f751d3aae6b1794","685c6f388fbcd696a74bee93","6849fb64f9dac52b426c9aad","false","false","Chair","https://kisumu-drawings.s3-us-west-1.amazonaws.com/49-005.png","8","House","49-005.png"
"","15429","image-button-response","49","null","859432","685c6ca90f751d3aae6b1794","685c6f388fbcd696a74bee93","6849fb64f9dac52b426c9aad","false","false","Watch","https://kisumu-drawings.s3-us-west-1.amazonaws.com/39-014.png","11","Watch","39-014.png"
"","6629","image-button-response","50","null","866566","685c6ca90f751d3aae6b1794","685c6f388fbcd696a74bee93","6849fb64f9dac52b426c9aad","false","false","Watch","https://kisumu-drawings.s3-us-west-1.amazonaws.com/118-014.png","11","Watch","118-014.png"
"","21906","image-button-response","51","null","888992","685c6ca90f751d3aae6b1794","685c6f388fbcd696a74bee93","6849fb64f9dac52b426c9aad","false","false","Car","https://kisumu-drawings.s3-us-west-1.amazonaws.com/19-015.png","5","Chair","19-015.png"
"","127514","image-button-response","52","null","1017017","685c6ca90f751d3aae6b1794","685c6f388fbcd696a74bee93","6849fb64f9dac52b426c9aad","false","false","Watch","https://kisumu-drawings.s3-us-west-1.amazonaws.com/18-008.png","8","House","18-008.png"
"","23377","image-button-response","53","null","1040901","685c6ca90f751d3aae6b1794","685c6f388fbcd696a74bee93","6849fb64f9dac52b426c9aad","false","false","Rabbit","https://kisumu-drawings.s3-us-west-1.amazonaws.com/40-016.png","2","Bird","40-016.png"
"","7627","image-button-response","54","null","1049037","685c6ca90f751d3aae6b1794","685c6f388fbcd696a74bee93","6849fb64f9dac52b426c9aad","false","false","Bird","https://kisumu-drawings.s3-us-west-1.amazonaws.com/87-016.png","0","Airplane","87-016.png"
"","7778","image-button-response","55","null","1057328","685c6ca90f751d3aae6b1794","685c6f388fbcd696a74bee93","6849fb64f9dac52b426c9aad","false","false","Tree","https://kisumu-drawings.s3-us-west-1.amazonaws.com/47-011.png","10","Tree","47-011.png"
"","6446","image-button-response","56","null","1064279","685c6ca90f751d3aae6b1794","685c6f388fbcd696a74bee93","6849fb64f9dac52b426c9aad","false","false","Cat","https://kisumu-drawings.s3-us-west-1.amazonaws.com/1-012.png","10","Tree","1-012.png"
"","7230","image-button-response","57","null","1072012","685c6ca90f751d3aae6b1794","685c6f388fbcd696a74bee93","6849fb64f9dac52b426c9aad","false","false","Cat","https://kisumu-drawings.s3-us-west-1.amazonaws.com/21-005.png","4","Cat","21-005.png"
"","6564","image-button-response","58","null","1079092","685c6ca90f751d3aae6b1794","685c6f388fbcd696a74bee93","6849fb64f9dac52b426c9aad","false","false","Airplane","https://kisumu-drawings.s3-us-west-1.amazonaws.com/19-013.png","5","Chair","19-013.png"
"","5286","image-button-response","59","null","1084885","685c6ca90f751d3aae6b1794","685c6f388fbcd696a74bee93","6849fb64f9dac52b426c9aad","false","false","Chair","https://kisumu-drawings.s3-us-west-1.amazonaws.com/61-015.png","5","Chair","61-015.png"
"","8399","image-button-response","60","null","1093791","685c6ca90f751d3aae6b1794","685c6f388fbcd696a74bee93","6849fb64f9dac52b426c9aad","false","false","Rabbit","https://kisumu-drawings.s3-us-west-1.amazonaws.com/87-013.png","9","Rabbit","87-013.png"
"","8893","image-button-response","61","null","1103191","685c6ca90f751d3aae6b1794","685c6f388fbcd696a74bee93","6849fb64f9dac52b426c9aad","false","false","Bird","https://kisumu-drawings.s3-us-west-1.amazonaws.com/80-008.png","2","Bird","80-008.png"
"","4728","image-button-response","62","null","1108423","685c6ca90f751d3aae6b1794","685c6f388fbcd696a74bee93","6849fb64f9dac52b426c9aad","false","false","Rabbit","https://kisumu-drawings.s3-us-west-1.amazonaws.com/1-010.png","10","Tree","1-010.png"
"","13355","image-button-response","63","null","1122283","685c6ca90f751d3aae6b1794","685c6f388fbcd696a74bee93","6849fb64f9dac52b426c9aad","false","false","Bird","https://kisumu-drawings.s3-us-west-1.amazonaws.com/19-012.png","10","Tree","19-012.png"
"","17098","image-button-response","64","null","1139886","685c6ca90f751d3aae6b1794","685c6f388fbcd696a74bee93","6849fb64f9dac52b426c9aad","false","false","Airplane","https://kisumu-drawings.s3-us-west-1.amazonaws.com/119-012.png","0","Airplane","119-012.png"
"","6493","image-button-response","65","null","1146894","685c6ca90f751d3aae6b1794","685c6f388fbcd696a74bee93","6849fb64f9dac52b426c9aad","false","false","House","https://kisumu-drawings.s3-us-west-1.amazonaws.com/101-005.png","8","House","101-005.png"
"","7087","image-button-response","66","null","1154496","685c6ca90f751d3aae6b1794","685c6f388fbcd696a74bee93","6849fb64f9dac52b426c9aad","false","false","Car","https://kisumu-drawings.s3-us-west-1.amazonaws.com/88-016.png","3","Car","88-016.png"
"","12001","image-button-response","67","null","1167005","685c6ca90f751d3aae6b1794","685c6f388fbcd696a74bee93","6849fb64f9dac52b426c9aad","false","false","Cup","https://kisumu-drawings.s3-us-west-1.amazonaws.com/21-007.png","6","Cup","21-007.png"
"","7332","image-button-response","68","null","1174843","685c6ca90f751d3aae6b1794","685c6f388fbcd696a74bee93","6849fb64f9dac52b426c9aad","false","false","House","https://kisumu-drawings.s3-us-west-1.amazonaws.com/49-007.png","8","House","49-007.png"
"","3046","image-button-response","69","null","1178396","685c6ca90f751d3aae6b1794","685c6f388fbcd696a74bee93","6849fb64f9dac52b426c9aad","false","false","Car","https://kisumu-drawings.s3-us-west-1.amazonaws.com/61-012.png","3","Car","61-012.png"
"","5303","image-button-response","70","null","1184203","685c6ca90f751d3aae6b1794","685c6f388fbcd696a74bee93","6849fb64f9dac52b426c9aad","false","false","Tree","https://kisumu-drawings.s3-us-west-1.amazonaws.com/86-012.png","10","Tree","86-012.png"
"","7371","image-button-response","71","null","1192080","685c6ca90f751d3aae6b1794","685c6f388fbcd696a74bee93","6849fb64f9dac52b426c9aad","false","false","Watch","https://kisumu-drawings.s3-us-west-1.amazonaws.com/84-006.png","11","Watch","84-006.png"
"","7552","image-button-response","72","null","1200147","685c6ca90f751d3aae6b1794","685c6f388fbcd696a74bee93","6849fb64f9dac52b426c9aad","false","false","House","https://kisumu-drawings.s3-us-west-1.amazonaws.com/88-010.png","8","House","88-010.png"
"","12283","image-button-response","73","null","1212951","685c6ca90f751d3aae6b1794","685c6f388fbcd696a74bee93","6849fb64f9dac52b426c9aad","false","false","Rabbit","https://kisumu-drawings.s3-us-west-1.amazonaws.com/49-016.png","4","Cat","49-016.png"
"","13031","image-button-response","74","null","1226497","685c6ca90f751d3aae6b1794","685c6f388fbcd696a74bee93","6849fb64f9dac52b426c9aad","false","false","Chair","https://kisumu-drawings.s3-us-west-1.amazonaws.com/21-006.png","5","Chair","21-006.png"
"","7276","image-button-response","75","null","1234286","685c6ca90f751d3aae6b1794","685c6f388fbcd696a74bee93","6849fb64f9dac52b426c9aad","false","false","Cup","https://kisumu-drawings.s3-us-west-1.amazonaws.com/87-014.png","6","Cup","87-014.png"
