"view_history","rt","trial_type","trial_index","plugin_version","time_elapsed","study_id","session_id","participant_id","catch_trial","prep_trial","sketcher_category","stimulus","response","response_category","sketch_id"
"[{""page_index"":0,""viewing_time"":78678},{""page_index"":1,""viewing_time"":15264},{""page_index"":2,""viewing_time"":15432},{""page_index"":3,""viewing_time"":33576}]","142950","instructions","0","null","142961","685c6ca90f751d3aae6b1794","685c6e300ff8771a740f1966","684a1efd831ce4b95c2e756c","","","","","","",""
"","5219","image-button-response","1","null","149209","685c6ca90f751d3aae6b1794","685c6e300ff8771a740f1966","684a1efd831ce4b95c2e756c","false","true","car","stimuli/prep_trials/1_car_prep.png","3","Car",""
"","2652","image-button-response","2","null","152368","685c6ca90f751d3aae6b1794","685c6e300ff8771a740f1966","684a1efd831ce4b95c2e756c","false","true","cat","stimuli/prep_trials/0_cat_prep.jpg","4","Cat",""
"","6701","image-button-response","3","null","159584","685c6ca90f751d3aae6b1794","685c6e300ff8771a740f1966","684a1efd831ce4b95c2e756c","false","false","House","https://kisumu-drawings.s3-us-west-1.amazonaws.com/72-012.png","8","House","72-012.png"
"","18551","image-button-response","4","null","178656","685c6ca90f751d3aae6b1794","685c6e300ff8771a740f1966","684a1efd831ce4b95c2e756c","false","false","Cat","https://kisumu-drawings.s3-us-west-1.amazonaws.com/49-010.png","2","Bird","49-010.png"
"","5822","image-button-response","5","null","184992","685c6ca90f751d3aae6b1794","685c6e300ff8771a740f1966","684a1efd831ce4b95c2e756c","false","false","Hat","https://kisumu-drawings.s3-us-west-1.amazonaws.com/68-013.png","7","Hat","68-013.png"
"","7230","image-button-response","6","null","192736","685c6ca90f751d3aae6b1794","685c6e300ff8771a740f1966","684a1efd831ce4b95c2e756c","false","false","House","https://kisumu-drawings.s3-us-west-1.amazonaws.com/55-016.png","7","Hat","55-016.png"
"","19957","image-button-response","7","null","213200","685c6ca90f751d3aae6b1794","685c6e300ff8771a740f1966","684a1efd831ce4b95c2e756c","false","false","Watch","https://kisumu-drawings.s3-us-west-1.amazonaws.com/40-015.png","9","Rabbit","40-015.png"
"","11876","image-button-response","8","null","225584","685c6ca90f751d3aae6b1794","685c6e300ff8771a740f1966","684a1efd831ce4b95c2e756c","false","false","Cat","https://kisumu-drawings.s3-us-west-1.amazonaws.com/101-011.png","4","Cat","101-011.png"
"","6194","image-button-response","9","null","232288","685c6ca90f751d3aae6b1794","685c6e300ff8771a740f1966","684a1efd831ce4b95c2e756c","false","false","Airplane","https://kisumu-drawings.s3-us-west-1.amazonaws.com/87-005.png","0","Airplane","87-005.png"
"","9614","image-button-response","10","null","242416","685c6ca90f751d3aae6b1794","685c6e300ff8771a740f1966","684a1efd831ce4b95c2e756c","false","false","Cat","https://kisumu-drawings.s3-us-west-1.amazonaws.com/16-007.png","6","Cup","16-007.png"
"","5782","image-button-response","11","null","248719","685c6ca90f751d3aae6b1794","685c6e300ff8771a740f1966","684a1efd831ce4b95c2e756c","false","false","Tree","https://kisumu-drawings.s3-us-west-1.amazonaws.com/80-014.png","10","Tree","80-014.png"
"","7634","image-button-response","12","null","256864","685c6ca90f751d3aae6b1794","685c6e300ff8771a740f1966","684a1efd831ce4b95c2e756c","false","false","Hat","https://kisumu-drawings.s3-us-west-1.amazonaws.com/1-016.png","8","House","1-016.png"
"","5907","image-button-response","13","null","263288","685c6ca90f751d3aae6b1794","685c6e300ff8771a740f1966","684a1efd831ce4b95c2e756c","false","false","Chair","https://kisumu-drawings.s3-us-west-1.amazonaws.com/105-014.png","5","Chair","105-014.png"
"","5993","image-button-response","14","null","269792","685c6ca90f751d3aae6b1794","685c6e300ff8771a740f1966","684a1efd831ce4b95c2e756c","false","false","Cat","https://kisumu-drawings.s3-us-west-1.amazonaws.com/30-009.png","9","Rabbit","30-009.png"
"","5461","image-button-response","15","null","275760","685c6ca90f751d3aae6b1794","685c6e300ff8771a740f1966","684a1efd831ce4b95c2e756c","false","false","Hat","https://kisumu-drawings.s3-us-west-1.amazonaws.com/110-015.png","7","Hat","110-015.png"
"","4543","image-button-response","16","null","280824","685c6ca90f751d3aae6b1794","685c6e300ff8771a740f1966","684a1efd831ce4b95c2e756c","false","false","Chair","https://kisumu-drawings.s3-us-west-1.amazonaws.com/55-013.png","8","House","55-013.png"
"","3527","image-button-response","17","null","284863","685c6ca90f751d3aae6b1794","685c6e300ff8771a740f1966","684a1efd831ce4b95c2e756c","false","false","Bicycle","https://kisumu-drawings.s3-us-west-1.amazonaws.com/88-007.png","1","Bicycle","88-007.png"
"","2297","image-button-response","18","null","287680","685c6ca90f751d3aae6b1794","685c6e300ff8771a740f1966","684a1efd831ce4b95c2e756c","false","false","Bicycle","https://kisumu-drawings.s3-us-west-1.amazonaws.com/49-012.png","1","Bicycle","49-012.png"
"","2764","image-button-response","19","null","290960","685c6ca90f751d3aae6b1794","685c6e300ff8771a740f1966","684a1efd831ce4b95c2e756c","false","false","Cup","https://kisumu-drawings.s3-us-west-1.amazonaws.com/55-015.png","6","Cup","55-015.png"
"","14834","image-button-response","20","null","306304","685c6ca90f751d3aae6b1794","685c6e300ff8771a740f1966","684a1efd831ce4b95c2e756c","false","false","Rabbit","https://kisumu-drawings.s3-us-west-1.amazonaws.com/88-008.png","9","Rabbit","88-008.png"
"","7696","image-button-response","21","null","314511","685c6ca90f751d3aae6b1794","685c6e300ff8771a740f1966","684a1efd831ce4b95c2e756c","false","false","Chair","https://kisumu-drawings.s3-us-west-1.amazonaws.com/20-013.png","5","Chair","20-013.png"
"","14604","image-button-response","22","null","329631","685c6ca90f751d3aae6b1794","685c6e300ff8771a740f1966","684a1efd831ce4b95c2e756c","false","false","Watch","https://kisumu-drawings.s3-us-west-1.amazonaws.com/19-009.png","11","Watch","19-009.png"
"","5154","image-button-response","23","null","335295","685c6ca90f751d3aae6b1794","685c6e300ff8771a740f1966","684a1efd831ce4b95c2e756c","false","false","Airplane","https://kisumu-drawings.s3-us-west-1.amazonaws.com/21-012.png","0","Airplane","21-012.png"
"","3942","image-button-response","24","null","339744","685c6ca90f751d3aae6b1794","685c6e300ff8771a740f1966","684a1efd831ce4b95c2e756c","false","false","Hat","https://kisumu-drawings.s3-us-west-1.amazonaws.com/41-016.png","9","Rabbit","41-016.png"
"","3626","image-button-response","25","null","343887","685c6ca90f751d3aae6b1794","685c6e300ff8771a740f1966","684a1efd831ce4b95c2e756c","false","false","Chair","https://kisumu-drawings.s3-us-west-1.amazonaws.com/61-015.png","5","Chair","61-015.png"
"","7646","image-button-response","26","null","352039","685c6ca90f751d3aae6b1794","685c6e300ff8771a740f1966","684a1efd831ce4b95c2e756c","false","false","Chair","https://kisumu-drawings.s3-us-west-1.amazonaws.com/21-006.png","5","Chair","21-006.png"
"","8026","image-button-response","27","null","360575","685c6ca90f751d3aae6b1794","685c6e300ff8771a740f1966","684a1efd831ce4b95c2e756c","false","false","Bird","https://kisumu-drawings.s3-us-west-1.amazonaws.com/88-015.png","9","Rabbit","88-015.png"
"","9354","image-button-response","28","null","370447","685c6ca90f751d3aae6b1794","685c6e300ff8771a740f1966","684a1efd831ce4b95c2e756c","false","false","Rabbit","https://kisumu-drawings.s3-us-west-1.amazonaws.com/17-009.png","4","Cat","17-009.png"
"","5090","image-button-response","29","null","376039","685c6ca90f751d3aae6b1794","685c6e300ff8771a740f1966","684a1efd831ce4b95c2e756c","false","false","Cup","https://kisumu-drawings.s3-us-west-1.amazonaws.com/21-007.png","6","Cup","21-007.png"
"","7214","image-button-response","30","null","383767","685c6ca90f751d3aae6b1794","685c6e300ff8771a740f1966","684a1efd831ce4b95c2e756c","false","false","Bicycle","https://kisumu-drawings.s3-us-west-1.amazonaws.com/21-016.png","2","Bird","21-016.png"
"","5974","image-button-response","31","null","390247","685c6ca90f751d3aae6b1794","685c6e300ff8771a740f1966","684a1efd831ce4b95c2e756c","false","false","Bird","https://kisumu-drawings.s3-us-west-1.amazonaws.com/61-006.png","2","Bird","61-006.png"
"","5029","image-button-response","32","null","395783","685c6ca90f751d3aae6b1794","685c6e300ff8771a740f1966","684a1efd831ce4b95c2e756c","false","false","Watch","https://kisumu-drawings.s3-us-west-1.amazonaws.com/86-013.png","0","Airplane","86-013.png"
"","2267","image-button-response","33","null","398559","685c6ca90f751d3aae6b1794","685c6e300ff8771a740f1966","684a1efd831ce4b95c2e756c","false","false","Airplane","https://kisumu-drawings.s3-us-west-1.amazonaws.com/101-014.png","0","Airplane","101-014.png"
"","6576","image-button-response","34","null","405639","685c6ca90f751d3aae6b1794","685c6e300ff8771a740f1966","684a1efd831ce4b95c2e756c","false","false","House","https://kisumu-drawings.s3-us-west-1.amazonaws.com/14-016.png","11","Watch","14-016.png"
"","6737","image-button-response","35","null","412887","685c6ca90f751d3aae6b1794","685c6e300ff8771a740f1966","684a1efd831ce4b95c2e756c","false","false","Watch","https://kisumu-drawings.s3-us-west-1.amazonaws.com/47-012.png","0","Airplane","47-012.png"
"","2032","image-button-response","36","null","415431","685c6ca90f751d3aae6b1794","685c6e300ff8771a740f1966","684a1efd831ce4b95c2e756c","false","false","House","https://kisumu-drawings.s3-us-west-1.amazonaws.com/105-016.png","8","House","105-016.png"
"","4194","image-button-response","37","null","420143","685c6ca90f751d3aae6b1794","685c6e300ff8771a740f1966","684a1efd831ce4b95c2e756c","false","false","Bicycle","https://kisumu-drawings.s3-us-west-1.amazonaws.com/20-015.png","9","Rabbit","20-015.png"
"","5719","image-button-response","38","null","426367","685c6ca90f751d3aae6b1794","685c6e300ff8771a740f1966","684a1efd831ce4b95c2e756c","false","false","Cat","https://kisumu-drawings.s3-us-west-1.amazonaws.com/61-013.png","4","Cat","61-013.png"
"","6162","image-button-response","39","null","433039","685c6ca90f751d3aae6b1794","685c6e300ff8771a740f1966","684a1efd831ce4b95c2e756c","false","false","Cat","https://kisumu-drawings.s3-us-west-1.amazonaws.com/88-013.png","4","Cat","88-013.png"
"","2665","image-button-response","40","null","436215","685c6ca90f751d3aae6b1794","685c6e300ff8771a740f1966","684a1efd831ce4b95c2e756c","false","false","Car","https://kisumu-drawings.s3-us-west-1.amazonaws.com/21-014.png","11","Watch","21-014.png"
"","2785","image-button-response","41","null","439511","685c6ca90f751d3aae6b1794","685c6e300ff8771a740f1966","684a1efd831ce4b95c2e756c","false","false","Hat","https://kisumu-drawings.s3-us-west-1.amazonaws.com/99-007.png","7","Hat","99-007.png"
"","2610","image-button-response","42","null","442631","685c6ca90f751d3aae6b1794","685c6e300ff8771a740f1966","684a1efd831ce4b95c2e756c","false","false","Car","https://kisumu-drawings.s3-us-west-1.amazonaws.com/101-013.png","3","Car","101-013.png"
"","2103","image-button-response","43","null","445247","685c6ca90f751d3aae6b1794","685c6e300ff8771a740f1966","684a1efd831ce4b95c2e756c","false","false","Cup","https://kisumu-drawings.s3-us-west-1.amazonaws.com/101-010.png","6","Cup","101-010.png"
"","3513","image-button-response","44","null","449279","685c6ca90f751d3aae6b1794","685c6e300ff8771a740f1966","684a1efd831ce4b95c2e756c","false","false","Hat","https://kisumu-drawings.s3-us-west-1.amazonaws.com/21-008.png","7","Hat","21-008.png"
"","4805","image-button-response","45","null","454599","685c6ca90f751d3aae6b1794","685c6e300ff8771a740f1966","684a1efd831ce4b95c2e756c","false","false","Car","https://kisumu-drawings.s3-us-west-1.amazonaws.com/87-008.png","3","Car","87-008.png"
"","2881","image-button-response","46","null","457991","685c6ca90f751d3aae6b1794","685c6e300ff8771a740f1966","684a1efd831ce4b95c2e756c","false","false","Car","https://kisumu-drawings.s3-us-west-1.amazonaws.com/79-008.png","3","Car","79-008.png"
"","5338","image-button-response","47","null","463839","685c6ca90f751d3aae6b1794","685c6e300ff8771a740f1966","684a1efd831ce4b95c2e756c","false","false","Cup","https://kisumu-drawings.s3-us-west-1.amazonaws.com/11-014.png","10","Tree","11-014.png"
"","4013","image-button-response","48","null","468359","685c6ca90f751d3aae6b1794","685c6e300ff8771a740f1966","684a1efd831ce4b95c2e756c","false","false","Tree","https://kisumu-drawings.s3-us-west-1.amazonaws.com/1-005.png","11","Watch","1-005.png"
"","6399","image-button-response","49","null","475271","685c6ca90f751d3aae6b1794","685c6e300ff8771a740f1966","684a1efd831ce4b95c2e756c","false","false","Car","https://kisumu-drawings.s3-us-west-1.amazonaws.com/1-011.png","9","Rabbit","1-011.png"
"","5502","image-button-response","50","null","481287","685c6ca90f751d3aae6b1794","685c6e300ff8771a740f1966","684a1efd831ce4b95c2e756c","false","false","Bird","https://kisumu-drawings.s3-us-west-1.amazonaws.com/21-013.png","0","Airplane","21-013.png"
"","3628","image-button-response","51","null","485423","685c6ca90f751d3aae6b1794","685c6e300ff8771a740f1966","684a1efd831ce4b95c2e756c","false","false","Tree","https://kisumu-drawings.s3-us-west-1.amazonaws.com/119-014.png","10","Tree","119-014.png"
"","3346","image-button-response","52","null","489279","685c6ca90f751d3aae6b1794","685c6e300ff8771a740f1966","684a1efd831ce4b95c2e756c","false","false","Rabbit","https://kisumu-drawings.s3-us-west-1.amazonaws.com/68-005.png","9","Rabbit","68-005.png"
"","3466","image-button-response","53","null","493255","685c6ca90f751d3aae6b1794","685c6e300ff8771a740f1966","684a1efd831ce4b95c2e756c","false","false","Rabbit","https://kisumu-drawings.s3-us-west-1.amazonaws.com/101-006.png","4","Cat","101-006.png"
"","3544","image-button-response","54","null","497311","685c6ca90f751d3aae6b1794","685c6e300ff8771a740f1966","684a1efd831ce4b95c2e756c","false","false","Watch","https://kisumu-drawings.s3-us-west-1.amazonaws.com/79-007.png","0","Airplane","79-007.png"
"","3067","image-button-response","55","null","500895","685c6ca90f751d3aae6b1794","685c6e300ff8771a740f1966","684a1efd831ce4b95c2e756c","false","false","Airplane","https://kisumu-drawings.s3-us-west-1.amazonaws.com/49-011.png","2","Bird","49-011.png"
"","2476","image-button-response","56","null","503887","685c6ca90f751d3aae6b1794","685c6e300ff8771a740f1966","684a1efd831ce4b95c2e756c","false","false","Cup","https://kisumu-drawings.s3-us-west-1.amazonaws.com/88-012.png","6","Cup","88-012.png"
"","2116","image-button-response","57","null","506519","685c6ca90f751d3aae6b1794","685c6e300ff8771a740f1966","684a1efd831ce4b95c2e756c","false","false","Airplane","https://kisumu-drawings.s3-us-west-1.amazonaws.com/61-014.png","0","Airplane","61-014.png"
"","7442","image-button-response","58","null","514471","685c6ca90f751d3aae6b1794","685c6e300ff8771a740f1966","684a1efd831ce4b95c2e756c","false","false","Tree","https://kisumu-drawings.s3-us-west-1.amazonaws.com/21-015.png","10","Tree","21-015.png"
"","9311","image-button-response","59","null","524287","685c6ca90f751d3aae6b1794","685c6e300ff8771a740f1966","684a1efd831ce4b95c2e756c","false","false","Rabbit","https://kisumu-drawings.s3-us-west-1.amazonaws.com/42-010.png","4","Cat","42-010.png"
"","7335","image-button-response","60","null","532127","685c6ca90f751d3aae6b1794","685c6e300ff8771a740f1966","684a1efd831ce4b95c2e756c","false","false","House","https://kisumu-drawings.s3-us-west-1.amazonaws.com/97-011.png","8","House","97-011.png"
"","5847","image-button-response","61","null","538495","685c6ca90f751d3aae6b1794","685c6e300ff8771a740f1966","684a1efd831ce4b95c2e756c","false","false","Chair","https://kisumu-drawings.s3-us-west-1.amazonaws.com/89-007.png","5","Chair","89-007.png"
"","2387","image-button-response","62","null","541399","685c6ca90f751d3aae6b1794","685c6e300ff8771a740f1966","684a1efd831ce4b95c2e756c","false","false","Bicycle","https://kisumu-drawings.s3-us-west-1.amazonaws.com/61-005.png","1","Bicycle","61-005.png"
"","3009","image-button-response","63","null","544919","685c6ca90f751d3aae6b1794","685c6e300ff8771a740f1966","684a1efd831ce4b95c2e756c","false","false","Bird","https://kisumu-drawings.s3-us-west-1.amazonaws.com/1-014.png","2","Bird","1-014.png"
"","3398","image-button-response","64","null","548823","685c6ca90f751d3aae6b1794","685c6e300ff8771a740f1966","684a1efd831ce4b95c2e756c","false","false","Watch","https://kisumu-drawings.s3-us-west-1.amazonaws.com/120-014.png","6","Cup","120-014.png"
"","2488","image-button-response","65","null","551831","685c6ca90f751d3aae6b1794","685c6e300ff8771a740f1966","684a1efd831ce4b95c2e756c","false","false","Tree","https://kisumu-drawings.s3-us-west-1.amazonaws.com/88-009.png","10","Tree","88-009.png"
"","2540","image-button-response","66","null","554879","685c6ca90f751d3aae6b1794","685c6e300ff8771a740f1966","684a1efd831ce4b95c2e756c","false","false","Bird","https://kisumu-drawings.s3-us-west-1.amazonaws.com/49-008.png","2","Bird","49-008.png"
"","2791","image-button-response","67","null","558183","685c6ca90f751d3aae6b1794","685c6e300ff8771a740f1966","684a1efd831ce4b95c2e756c","false","false","Tree","https://kisumu-drawings.s3-us-west-1.amazonaws.com/49-014.png","10","Tree","49-014.png"
"","2942","image-button-response","68","null","561631","685c6ca90f751d3aae6b1794","685c6e300ff8771a740f1966","684a1efd831ce4b95c2e756c","false","false","Car","https://kisumu-drawings.s3-us-west-1.amazonaws.com/49-009.png","3","Car","49-009.png"
"","3084","image-button-response","69","null","565231","685c6ca90f751d3aae6b1794","685c6e300ff8771a740f1966","684a1efd831ce4b95c2e756c","true","false","airplane","stimuli/catch_trials/0_airplane_catch.jpg","0","Airplane",""
"","6469","image-button-response","70","null","572207","685c6ca90f751d3aae6b1794","685c6e300ff8771a740f1966","684a1efd831ce4b95c2e756c","false","false","Bird","https://kisumu-drawings.s3-us-west-1.amazonaws.com/114-015.png","2","Bird","114-015.png"
"","2498","image-button-response","71","null","575215","685c6ca90f751d3aae6b1794","685c6e300ff8771a740f1966","684a1efd831ce4b95c2e756c","false","false","Cup","https://kisumu-drawings.s3-us-west-1.amazonaws.com/61-016.png","6","Cup","61-016.png"
"","6726","image-button-response","72","null","582455","685c6ca90f751d3aae6b1794","685c6e300ff8771a740f1966","684a1efd831ce4b95c2e756c","false","false","Airplane","https://kisumu-drawings.s3-us-west-1.amazonaws.com/18-011.png","10","Tree","18-011.png"
"","5747","image-button-response","73","null","588711","685c6ca90f751d3aae6b1794","685c6e300ff8771a740f1966","684a1efd831ce4b95c2e756c","false","false","House","https://kisumu-drawings.s3-us-west-1.amazonaws.com/37-014.png","8","House","37-014.png"
"","2159","image-button-response","74","null","591383","685c6ca90f751d3aae6b1794","685c6e300ff8771a740f1966","684a1efd831ce4b95c2e756c","false","false","Bicycle","https://kisumu-drawings.s3-us-west-1.amazonaws.com/119-009.png","1","Bicycle","119-009.png"
"","3425","image-button-response","75","null","595318","685c6ca90f751d3aae6b1794","685c6e300ff8771a740f1966","684a1efd831ce4b95c2e756c","false","false","Rabbit","https://kisumu-drawings.s3-us-west-1.amazonaws.com/21-011.png","9","Rabbit","21-011.png"
