"view_history","rt","trial_type","trial_index","plugin_version","time_elapsed","study_id","session_id","participant_id","catch_trial","prep_trial","sketcher_category","stimulus","response","response_category","sketch_id"
"[{""page_index"":0,""viewing_time"":17046},{""page_index"":1,""viewing_time"":9290},{""page_index"":2,""viewing_time"":9993},{""page_index"":3,""viewing_time"":37518}]","73847","instructions","0","null","73867","685c6ca90f751d3aae6b1794","685c6de559fb91d3582e0864","684a4cd240bb53a21a20dafc","","","","","","",""
"","6527","image-button-response","1","null","81415","685c6ca90f751d3aae6b1794","685c6de559fb91d3582e0864","684a4cd240bb53a21a20dafc","false","true","car","stimuli/prep_trials/1_car_prep.png","3","Car",""
"","3894","image-button-response","2","null","85825","685c6ca90f751d3aae6b1794","685c6de559fb91d3582e0864","684a4cd240bb53a21a20dafc","false","true","cat","stimuli/prep_trials/0_cat_prep.jpg","4","Cat",""
"","9768","image-button-response","3","null","96100","685c6ca90f751d3aae6b1794","685c6de559fb91d3582e0864","684a4cd240bb53a21a20dafc","false","false","Watch","https://kisumu-drawings.s3-us-west-1.amazonaws.com/78-014.png","11","Watch","78-014.png"
"","8321","image-button-response","4","null","104935","685c6ca90f751d3aae6b1794","685c6de559fb91d3582e0864","684a4cd240bb53a21a20dafc","false","false","Watch","https://kisumu-drawings.s3-us-west-1.amazonaws.com/46-011.png","11","Watch","46-011.png"
"","14718","image-button-response","5","null","120166","685c6ca90f751d3aae6b1794","685c6de559fb91d3582e0864","684a4cd240bb53a21a20dafc","false","false","Chair","https://kisumu-drawings.s3-us-west-1.amazonaws.com/1-008.png","9","Rabbit","1-008.png"
"","21884","image-button-response","6","null","142565","685c6ca90f751d3aae6b1794","685c6de559fb91d3582e0864","684a4cd240bb53a21a20dafc","false","false","Hat","https://kisumu-drawings.s3-us-west-1.amazonaws.com/49-006.png","7","Hat","49-006.png"
"","11051","image-button-response","7","null","154132","685c6ca90f751d3aae6b1794","685c6de559fb91d3582e0864","684a4cd240bb53a21a20dafc","false","false","Bicycle","https://kisumu-drawings.s3-us-west-1.amazonaws.com/120-010.png","1","Bicycle","120-010.png"
"","11584","image-button-response","8","null","166233","685c6ca90f751d3aae6b1794","685c6de559fb91d3582e0864","684a4cd240bb53a21a20dafc","false","false","Rabbit","https://kisumu-drawings.s3-us-west-1.amazonaws.com/119-008.png","9","Rabbit","119-008.png"
"","8167","image-button-response","9","null","174915","685c6ca90f751d3aae6b1794","685c6de559fb91d3582e0864","684a4cd240bb53a21a20dafc","false","false","Cup","https://kisumu-drawings.s3-us-west-1.amazonaws.com/80-006.png","6","Cup","80-006.png"
"","6250","image-button-response","10","null","181683","685c6ca90f751d3aae6b1794","685c6de559fb91d3582e0864","684a4cd240bb53a21a20dafc","false","false","Cup","https://kisumu-drawings.s3-us-west-1.amazonaws.com/87-014.png","6","Cup","87-014.png"
"","5337","image-button-response","11","null","187534","685c6ca90f751d3aae6b1794","685c6de559fb91d3582e0864","684a4cd240bb53a21a20dafc","false","false","Chair","https://kisumu-drawings.s3-us-west-1.amazonaws.com/88-014.png","5","Chair","88-014.png"
"","6552","image-button-response","12","null","194601","685c6ca90f751d3aae6b1794","685c6de559fb91d3582e0864","684a4cd240bb53a21a20dafc","false","false","House","https://kisumu-drawings.s3-us-west-1.amazonaws.com/48-013.png","7","Hat","48-013.png"
"","11922","image-button-response","13","null","207037","685c6ca90f751d3aae6b1794","685c6de559fb91d3582e0864","684a4cd240bb53a21a20dafc","false","false","Rabbit","https://kisumu-drawings.s3-us-west-1.amazonaws.com/80-016.png","9","Rabbit","80-016.png"
"","15219","image-button-response","14","null","222768","685c6ca90f751d3aae6b1794","685c6de559fb91d3582e0864","684a4cd240bb53a21a20dafc","false","false","Hat","https://kisumu-drawings.s3-us-west-1.amazonaws.com/88-011.png","7","Hat","88-011.png"
"","18765","image-button-response","15","null","242050","685c6ca90f751d3aae6b1794","685c6de559fb91d3582e0864","684a4cd240bb53a21a20dafc","false","false","House","https://kisumu-drawings.s3-us-west-1.amazonaws.com/1-009.png","9","Rabbit","1-009.png"
"","7435","image-button-response","16","null","250000","685c6ca90f751d3aae6b1794","685c6de559fb91d3582e0864","684a4cd240bb53a21a20dafc","false","false","Airplane","https://kisumu-drawings.s3-us-west-1.amazonaws.com/87-005.png","0","Airplane","87-005.png"
"","8535","image-button-response","17","null","259051","685c6ca90f751d3aae6b1794","685c6de559fb91d3582e0864","684a4cd240bb53a21a20dafc","false","false","Watch","https://kisumu-drawings.s3-us-west-1.amazonaws.com/118-014.png","11","Watch","118-014.png"
"","25348","image-button-response","18","null","284917","685c6ca90f751d3aae6b1794","685c6de559fb91d3582e0864","684a4cd240bb53a21a20dafc","false","false","Bird","https://kisumu-drawings.s3-us-west-1.amazonaws.com/40-007.png","9","Rabbit","40-007.png"
"","8606","image-button-response","19","null","294035","685c6ca90f751d3aae6b1794","685c6de559fb91d3582e0864","684a4cd240bb53a21a20dafc","false","false","Car","https://kisumu-drawings.s3-us-west-1.amazonaws.com/40-005.png","3","Car","40-005.png"
"","9519","image-button-response","20","null","304069","685c6ca90f751d3aae6b1794","685c6de559fb91d3582e0864","684a4cd240bb53a21a20dafc","false","false","Bird","https://kisumu-drawings.s3-us-west-1.amazonaws.com/101-012.png","2","Bird","101-012.png"
"","8067","image-button-response","21","null","312651","685c6ca90f751d3aae6b1794","685c6de559fb91d3582e0864","684a4cd240bb53a21a20dafc","false","false","Chair","https://kisumu-drawings.s3-us-west-1.amazonaws.com/61-015.png","5","Chair","61-015.png"
"","9269","image-button-response","22","null","322434","685c6ca90f751d3aae6b1794","685c6de559fb91d3582e0864","684a4cd240bb53a21a20dafc","false","false","Cat","https://kisumu-drawings.s3-us-west-1.amazonaws.com/49-010.png","4","Cat","49-010.png"
"","9123","image-button-response","23","null","332068","685c6ca90f751d3aae6b1794","685c6de559fb91d3582e0864","684a4cd240bb53a21a20dafc","false","false","Airplane","https://kisumu-drawings.s3-us-west-1.amazonaws.com/80-009.png","0","Airplane","80-009.png"
"","11917","image-button-response","24","null","344501","685c6ca90f751d3aae6b1794","685c6de559fb91d3582e0864","684a4cd240bb53a21a20dafc","false","false","Rabbit","https://kisumu-drawings.s3-us-west-1.amazonaws.com/40-016.png","9","Rabbit","40-016.png"
"","6500","image-button-response","25","null","351516","685c6ca90f751d3aae6b1794","685c6de559fb91d3582e0864","684a4cd240bb53a21a20dafc","false","false","House","https://kisumu-drawings.s3-us-west-1.amazonaws.com/21-010.png","0","Airplane","21-010.png"
"","2319","image-button-response","26","null","354352","685c6ca90f751d3aae6b1794","685c6de559fb91d3582e0864","684a4cd240bb53a21a20dafc","true","false","airplane","stimuli/catch_trials/0_airplane_catch.jpg","0","Airplane",""
"","11222","image-button-response","27","null","366089","685c6ca90f751d3aae6b1794","685c6de559fb91d3582e0864","684a4cd240bb53a21a20dafc","false","false","Cup","https://kisumu-drawings.s3-us-west-1.amazonaws.com/1-015.png","9","Rabbit","1-015.png"
"","8935","image-button-response","28","null","375535","685c6ca90f751d3aae6b1794","685c6de559fb91d3582e0864","684a4cd240bb53a21a20dafc","false","false","Hat","https://kisumu-drawings.s3-us-west-1.amazonaws.com/40-013.png","7","Hat","40-013.png"
"","9651","image-button-response","29","null","385702","685c6ca90f751d3aae6b1794","685c6de559fb91d3582e0864","684a4cd240bb53a21a20dafc","false","false","Airplane","https://kisumu-drawings.s3-us-west-1.amazonaws.com/39-008.png","10","Tree","39-008.png"
"","6018","image-button-response","30","null","392235","685c6ca90f751d3aae6b1794","685c6de559fb91d3582e0864","684a4cd240bb53a21a20dafc","false","false","Tree","https://kisumu-drawings.s3-us-west-1.amazonaws.com/86-012.png","10","Tree","86-012.png"
"","6629","image-button-response","31","null","399368","685c6ca90f751d3aae6b1794","685c6de559fb91d3582e0864","684a4cd240bb53a21a20dafc","false","false","Airplane","https://kisumu-drawings.s3-us-west-1.amazonaws.com/19-013.png","5","Chair","19-013.png"
"","7116","image-button-response","32","null","406999","685c6ca90f751d3aae6b1794","685c6de559fb91d3582e0864","684a4cd240bb53a21a20dafc","false","false","Cat","https://kisumu-drawings.s3-us-west-1.amazonaws.com/87-006.png","4","Cat","87-006.png"
"","6169","image-button-response","33","null","413685","685c6ca90f751d3aae6b1794","685c6de559fb91d3582e0864","684a4cd240bb53a21a20dafc","false","false","Bird","https://kisumu-drawings.s3-us-west-1.amazonaws.com/19-012.png","10","Tree","19-012.png"
"","17803","image-button-response","34","null","432004","685c6ca90f751d3aae6b1794","685c6de559fb91d3582e0864","684a4cd240bb53a21a20dafc","false","false","Bicycle","https://kisumu-drawings.s3-us-west-1.amazonaws.com/48-010.png","3","Car","48-010.png"
"","9969","image-button-response","35","null","442484","685c6ca90f751d3aae6b1794","685c6de559fb91d3582e0864","684a4cd240bb53a21a20dafc","false","false","Airplane","https://kisumu-drawings.s3-us-west-1.amazonaws.com/47-016.png","0","Airplane","47-016.png"
"","6368","image-button-response","36","null","449369","685c6ca90f751d3aae6b1794","685c6de559fb91d3582e0864","684a4cd240bb53a21a20dafc","false","false","Chair","https://kisumu-drawings.s3-us-west-1.amazonaws.com/101-009.png","5","Chair","101-009.png"
"","6801","image-button-response","37","null","456685","685c6ca90f751d3aae6b1794","685c6de559fb91d3582e0864","684a4cd240bb53a21a20dafc","false","false","Watch","https://kisumu-drawings.s3-us-west-1.amazonaws.com/18-008.png","7","Hat","18-008.png"
"","7134","image-button-response","38","null","464335","685c6ca90f751d3aae6b1794","685c6de559fb91d3582e0864","684a4cd240bb53a21a20dafc","false","false","House","https://kisumu-drawings.s3-us-west-1.amazonaws.com/88-010.png","8","House","88-010.png"
"","3466","image-button-response","39","null","468318","685c6ca90f751d3aae6b1794","685c6de559fb91d3582e0864","684a4cd240bb53a21a20dafc","false","false","Hat","https://kisumu-drawings.s3-us-west-1.amazonaws.com/101-008.png","7","Hat","101-008.png"
"","3301","image-button-response","40","null","472135","685c6ca90f751d3aae6b1794","685c6de559fb91d3582e0864","684a4cd240bb53a21a20dafc","false","false","Cat","https://kisumu-drawings.s3-us-west-1.amazonaws.com/21-005.png","4","Cat","21-005.png"
"","3309","image-button-response","41","null","475959","685c6ca90f751d3aae6b1794","685c6de559fb91d3582e0864","684a4cd240bb53a21a20dafc","false","false","Car","https://kisumu-drawings.s3-us-west-1.amazonaws.com/61-012.png","3","Car","61-012.png"
"","5268","image-button-response","42","null","481735","685c6ca90f751d3aae6b1794","685c6de559fb91d3582e0864","684a4cd240bb53a21a20dafc","false","false","Bicycle","https://kisumu-drawings.s3-us-west-1.amazonaws.com/87-015.png","1","Bicycle","87-015.png"
"","4417","image-button-response","43","null","486669","685c6ca90f751d3aae6b1794","685c6de559fb91d3582e0864","684a4cd240bb53a21a20dafc","false","false","Tree","https://kisumu-drawings.s3-us-west-1.amazonaws.com/79-006.png","10","Tree","79-006.png"
"","4959","image-button-response","44","null","492144","685c6ca90f751d3aae6b1794","685c6de559fb91d3582e0864","684a4cd240bb53a21a20dafc","false","false","Car","https://kisumu-drawings.s3-us-west-1.amazonaws.com/48-005.png","3","Car","48-005.png"
"","4183","image-button-response","45","null","496836","685c6ca90f751d3aae6b1794","685c6de559fb91d3582e0864","684a4cd240bb53a21a20dafc","false","false","Bird","https://kisumu-drawings.s3-us-west-1.amazonaws.com/87-016.png","0","Airplane","87-016.png"
"","7091","image-button-response","46","null","504443","685c6ca90f751d3aae6b1794","685c6de559fb91d3582e0864","684a4cd240bb53a21a20dafc","false","false","Rabbit","https://kisumu-drawings.s3-us-west-1.amazonaws.com/48-014.png","5","Chair","48-014.png"
"","7374","image-button-response","47","null","512321","685c6ca90f751d3aae6b1794","685c6de559fb91d3582e0864","684a4cd240bb53a21a20dafc","false","false","Chair","https://kisumu-drawings.s3-us-west-1.amazonaws.com/21-006.png","5","Chair","21-006.png"
"","8749","image-button-response","48","null","521585","685c6ca90f751d3aae6b1794","685c6de559fb91d3582e0864","684a4cd240bb53a21a20dafc","false","false","Rabbit","https://kisumu-drawings.s3-us-west-1.amazonaws.com/87-013.png","4","Cat","87-013.png"
"","3037","image-button-response","49","null","525137","685c6ca90f751d3aae6b1794","685c6de559fb91d3582e0864","684a4cd240bb53a21a20dafc","false","false","House","https://kisumu-drawings.s3-us-west-1.amazonaws.com/80-005.png","4","Cat","80-005.png"
"","7917","image-button-response","50","null","533570","685c6ca90f751d3aae6b1794","685c6de559fb91d3582e0864","684a4cd240bb53a21a20dafc","false","false","Bicycle","https://kisumu-drawings.s3-us-west-1.amazonaws.com/19-014.png","5","Chair","19-014.png"
"","7267","image-button-response","51","null","541352","685c6ca90f751d3aae6b1794","685c6de559fb91d3582e0864","684a4cd240bb53a21a20dafc","false","false","Cat","https://kisumu-drawings.s3-us-west-1.amazonaws.com/80-012.png","4","Cat","80-012.png"
"","6275","image-button-response","52","null","548135","685c6ca90f751d3aae6b1794","685c6de559fb91d3582e0864","684a4cd240bb53a21a20dafc","false","false","Cup","https://kisumu-drawings.s3-us-west-1.amazonaws.com/40-010.png","6","Cup","40-010.png"
"","8139","image-button-response","53","null","556789","685c6ca90f751d3aae6b1794","685c6de559fb91d3582e0864","684a4cd240bb53a21a20dafc","false","false","Car","https://kisumu-drawings.s3-us-west-1.amazonaws.com/119-010.png","3","Car","119-010.png"
"","7966","image-button-response","54","null","565269","685c6ca90f751d3aae6b1794","685c6de559fb91d3582e0864","684a4cd240bb53a21a20dafc","false","false","Cat","https://kisumu-drawings.s3-us-west-1.amazonaws.com/101-011.png","4","Cat","101-011.png"
"","11401","image-button-response","55","null","577186","685c6ca90f751d3aae6b1794","685c6de559fb91d3582e0864","684a4cd240bb53a21a20dafc","false","false","Chair","https://kisumu-drawings.s3-us-west-1.amazonaws.com/49-005.png","7","Hat","49-005.png"
"","11152","image-button-response","56","null","588853","685c6ca90f751d3aae6b1794","685c6de559fb91d3582e0864","684a4cd240bb53a21a20dafc","false","false","House","https://kisumu-drawings.s3-us-west-1.amazonaws.com/119-016.png","8","House","119-016.png"
"","10406","image-button-response","57","null","599777","685c6ca90f751d3aae6b1794","685c6de559fb91d3582e0864","684a4cd240bb53a21a20dafc","false","false","Rabbit","https://kisumu-drawings.s3-us-west-1.amazonaws.com/19-007.png","10","Tree","19-007.png"
"","9017","image-button-response","58","null","609302","685c6ca90f751d3aae6b1794","685c6de559fb91d3582e0864","684a4cd240bb53a21a20dafc","false","false","Tree","https://kisumu-drawings.s3-us-west-1.amazonaws.com/40-014.png","10","Tree","40-014.png"
"","16480","image-button-response","59","null","626288","685c6ca90f751d3aae6b1794","685c6de559fb91d3582e0864","684a4cd240bb53a21a20dafc","false","false","Watch","https://kisumu-drawings.s3-us-west-1.amazonaws.com/39-014.png","8","House","39-014.png"
"","8330","image-button-response","60","null","635133","685c6ca90f751d3aae6b1794","685c6de559fb91d3582e0864","684a4cd240bb53a21a20dafc","false","false","Tree","https://kisumu-drawings.s3-us-west-1.amazonaws.com/47-011.png","10","Tree","47-011.png"
"","6995","image-button-response","61","null","642637","685c6ca90f751d3aae6b1794","685c6de559fb91d3582e0864","684a4cd240bb53a21a20dafc","false","false","Cup","https://kisumu-drawings.s3-us-west-1.amazonaws.com/49-013.png","6","Cup","49-013.png"
"","8768","image-button-response","62","null","651919","685c6ca90f751d3aae6b1794","685c6de559fb91d3582e0864","684a4cd240bb53a21a20dafc","false","false","Hat","https://kisumu-drawings.s3-us-west-1.amazonaws.com/80-007.png","3","Car","80-007.png"
"","7534","image-button-response","63","null","659970","685c6ca90f751d3aae6b1794","685c6de559fb91d3582e0864","684a4cd240bb53a21a20dafc","false","false","Bird","https://kisumu-drawings.s3-us-west-1.amazonaws.com/48-008.png","10","Tree","48-008.png"
"","6667","image-button-response","64","null","667153","685c6ca90f751d3aae6b1794","685c6de559fb91d3582e0864","684a4cd240bb53a21a20dafc","false","false","Tree","https://kisumu-drawings.s3-us-west-1.amazonaws.com/120-013.png","10","Tree","120-013.png"
"","5102","image-button-response","65","null","672770","685c6ca90f751d3aae6b1794","685c6de559fb91d3582e0864","684a4cd240bb53a21a20dafc","false","false","Bicycle","https://kisumu-drawings.s3-us-west-1.amazonaws.com/80-010.png","1","Bicycle","80-010.png"
"","4651","image-button-response","66","null","677937","685c6ca90f751d3aae6b1794","685c6de559fb91d3582e0864","684a4cd240bb53a21a20dafc","false","false","Tree","https://kisumu-drawings.s3-us-west-1.amazonaws.com/19-008.png","10","Tree","19-008.png"
"","4231","image-button-response","67","null","682677","685c6ca90f751d3aae6b1794","685c6de559fb91d3582e0864","684a4cd240bb53a21a20dafc","false","false","Bird","https://kisumu-drawings.s3-us-west-1.amazonaws.com/80-008.png","2","Bird","80-008.png"
"","6224","image-button-response","68","null","689411","685c6ca90f751d3aae6b1794","685c6de559fb91d3582e0864","684a4cd240bb53a21a20dafc","false","false","Cup","https://kisumu-drawings.s3-us-west-1.amazonaws.com/119-006.png","6","Cup","119-006.png"
"","11851","image-button-response","69","null","701770","685c6ca90f751d3aae6b1794","685c6de559fb91d3582e0864","684a4cd240bb53a21a20dafc","false","false","Car","https://kisumu-drawings.s3-us-west-1.amazonaws.com/19-015.png","5","Chair","19-015.png"
"","17400","image-button-response","70","null","719687","685c6ca90f751d3aae6b1794","685c6de559fb91d3582e0864","684a4cd240bb53a21a20dafc","false","false","Bicycle","https://kisumu-drawings.s3-us-west-1.amazonaws.com/40-006.png","3","Car","40-006.png"
"","6568","image-button-response","71","null","726770","685c6ca90f751d3aae6b1794","685c6de559fb91d3582e0864","684a4cd240bb53a21a20dafc","false","false","Airplane","https://kisumu-drawings.s3-us-west-1.amazonaws.com/120-005.png","3","Car","120-005.png"
"","5418","image-button-response","72","null","732705","685c6ca90f751d3aae6b1794","685c6de559fb91d3582e0864","684a4cd240bb53a21a20dafc","false","false","Watch","https://kisumu-drawings.s3-us-west-1.amazonaws.com/84-006.png","11","Watch","84-006.png"
"","5084","image-button-response","73","null","738304","685c6ca90f751d3aae6b1794","685c6de559fb91d3582e0864","684a4cd240bb53a21a20dafc","false","false","Hat","https://kisumu-drawings.s3-us-west-1.amazonaws.com/19-005.png","10","Tree","19-005.png"
"","3200","image-button-response","74","null","742021","685c6ca90f751d3aae6b1794","685c6de559fb91d3582e0864","684a4cd240bb53a21a20dafc","false","false","Cat","https://kisumu-drawings.s3-us-west-1.amazonaws.com/1-012.png","4","Cat","1-012.png"
"","3935","image-button-response","75","null","746471","685c6ca90f751d3aae6b1794","685c6de559fb91d3582e0864","684a4cd240bb53a21a20dafc","false","false","Car","https://kisumu-drawings.s3-us-west-1.amazonaws.com/88-016.png","3","Car","88-016.png"
