"view_history","rt","trial_type","trial_index","plugin_version","time_elapsed","study_id","session_id","participant_id","catch_trial","prep_trial","sketcher_category","stimulus","response","response_category","sketch_id"
"[{""page_index"":0,""viewing_time"":25401},{""page_index"":1,""viewing_time"":7902},{""page_index"":2,""viewing_time"":8881},{""page_index"":3,""viewing_time"":14448}]","56633","instructions","0","null","56735","685c6ca90f751d3aae6b1794","685c6e706b7df0898b6f7038","684f775be907689bdef198ec","","","","","","",""
"","7220","image-button-response","1","null","64967","685c6ca90f751d3aae6b1794","685c6e706b7df0898b6f7038","684f775be907689bdef198ec","false","true","car","stimuli/prep_trials/1_car_prep.png","3","Car",""
"","5911","image-button-response","2","null","71390","685c6ca90f751d3aae6b1794","685c6e706b7df0898b6f7038","684f775be907689bdef198ec","false","true","cat","stimuli/prep_trials/0_cat_prep.jpg","4","Cat",""
"","9596","image-button-response","3","null","81495","685c6ca90f751d3aae6b1794","685c6e706b7df0898b6f7038","684f775be907689bdef198ec","false","false","Tree","https://kisumu-drawings.s3-us-west-1.amazonaws.com/88-009.png","10","Tree","88-009.png"
"","8820","image-button-response","4","null","90823","685c6ca90f751d3aae6b1794","685c6e706b7df0898b6f7038","684f775be907689bdef198ec","false","false","Bicycle","https://kisumu-drawings.s3-us-west-1.amazonaws.com/96-014.png","0","Airplane","96-014.png"
"","12060","image-button-response","5","null","103391","685c6ca90f751d3aae6b1794","685c6e706b7df0898b6f7038","684f775be907689bdef198ec","false","false","Watch","https://kisumu-drawings.s3-us-west-1.amazonaws.com/119-015.png","11","Watch","119-015.png"
"","9188","image-button-response","6","null","113085","685c6ca90f751d3aae6b1794","685c6e706b7df0898b6f7038","684f775be907689bdef198ec","false","false","Airplane","https://kisumu-drawings.s3-us-west-1.amazonaws.com/79-012.png","0","Airplane","79-012.png"
"","12354","image-button-response","7","null","125957","685c6ca90f751d3aae6b1794","685c6e706b7df0898b6f7038","684f775be907689bdef198ec","false","false","Cup","https://kisumu-drawings.s3-us-west-1.amazonaws.com/73-015.png","6","Cup","73-015.png"
"","7029","image-button-response","8","null","133495","685c6ca90f751d3aae6b1794","685c6e706b7df0898b6f7038","684f775be907689bdef198ec","false","false","Tree","https://kisumu-drawings.s3-us-west-1.amazonaws.com/101-007.png","10","Tree","101-007.png"
"","12379","image-button-response","9","null","146390","685c6ca90f751d3aae6b1794","685c6e706b7df0898b6f7038","684f775be907689bdef198ec","false","false","Hat","https://kisumu-drawings.s3-us-west-1.amazonaws.com/95-005.png","7","Hat","95-005.png"
"","11030","image-button-response","10","null","157933","685c6ca90f751d3aae6b1794","685c6e706b7df0898b6f7038","684f775be907689bdef198ec","false","false","Airplane","https://kisumu-drawings.s3-us-west-1.amazonaws.com/44-008.png","0","Airplane","44-008.png"
"","26947","image-button-response","11","null","185399","685c6ca90f751d3aae6b1794","685c6e706b7df0898b6f7038","684f775be907689bdef198ec","false","false","Cat","https://kisumu-drawings.s3-us-west-1.amazonaws.com/45-006.png","10","Tree","45-006.png"
"","26393","image-button-response","12","null","212302","685c6ca90f751d3aae6b1794","685c6e706b7df0898b6f7038","684f775be907689bdef198ec","false","false","Tree","https://kisumu-drawings.s3-us-west-1.amazonaws.com/15-007.png","10","Tree","15-007.png"
"","8054","image-button-response","13","null","220877","685c6ca90f751d3aae6b1794","685c6e706b7df0898b6f7038","684f775be907689bdef198ec","false","false","Tree","https://kisumu-drawings.s3-us-west-1.amazonaws.com/61-010.png","10","Tree","61-010.png"
"","11951","image-button-response","14","null","233341","685c6ca90f751d3aae6b1794","685c6e706b7df0898b6f7038","684f775be907689bdef198ec","false","false","Cat","https://kisumu-drawings.s3-us-west-1.amazonaws.com/62-011.png","9","Rabbit","62-011.png"
"","2223","image-button-response","15","null","236077","685c6ca90f751d3aae6b1794","685c6e706b7df0898b6f7038","684f775be907689bdef198ec","true","false","airplane","stimuli/catch_trials/0_airplane_catch.jpg","0","Airplane",""
"","10399","image-button-response","16","null","246989","685c6ca90f751d3aae6b1794","685c6e706b7df0898b6f7038","684f775be907689bdef198ec","false","false","House","https://kisumu-drawings.s3-us-west-1.amazonaws.com/32-006.png","8","House","32-006.png"
"","12310","image-button-response","17","null","259805","685c6ca90f751d3aae6b1794","685c6e706b7df0898b6f7038","684f775be907689bdef198ec","false","false","Chair","https://kisumu-drawings.s3-us-west-1.amazonaws.com/4-009.png","5","Chair","4-009.png"
"","17567","image-button-response","18","null","277886","685c6ca90f751d3aae6b1794","685c6e706b7df0898b6f7038","684f775be907689bdef198ec","false","false","Cup","https://kisumu-drawings.s3-us-west-1.amazonaws.com/22-015.png","7","Hat","22-015.png"
"","11164","image-button-response","19","null","289564","685c6ca90f751d3aae6b1794","685c6e706b7df0898b6f7038","684f775be907689bdef198ec","false","false","Watch","https://kisumu-drawings.s3-us-west-1.amazonaws.com/1-006.png","11","Watch","1-006.png"
"","23012","image-button-response","20","null","313086","685c6ca90f751d3aae6b1794","685c6e706b7df0898b6f7038","684f775be907689bdef198ec","false","false","Hat","https://kisumu-drawings.s3-us-west-1.amazonaws.com/22-008.png","11","Watch","22-008.png"
"","6731","image-button-response","21","null","320325","685c6ca90f751d3aae6b1794","685c6e706b7df0898b6f7038","684f775be907689bdef198ec","false","false","Cat","https://kisumu-drawings.s3-us-west-1.amazonaws.com/97-015.png","9","Rabbit","97-015.png"
"","11610","image-button-response","22","null","332452","685c6ca90f751d3aae6b1794","685c6e706b7df0898b6f7038","684f775be907689bdef198ec","false","false","Bicycle","https://kisumu-drawings.s3-us-west-1.amazonaws.com/115-008.png","1","Bicycle","115-008.png"
"","7492","image-button-response","23","null","340461","685c6ca90f751d3aae6b1794","685c6e706b7df0898b6f7038","684f775be907689bdef198ec","false","false","Tree","https://kisumu-drawings.s3-us-west-1.amazonaws.com/49-014.png","10","Tree","49-014.png"
"","19730","image-button-response","24","null","360709","685c6ca90f751d3aae6b1794","685c6e706b7df0898b6f7038","684f775be907689bdef198ec","false","false","Cat","https://kisumu-drawings.s3-us-west-1.amazonaws.com/18-010.png","10","Tree","18-010.png"
"","15064","image-button-response","25","null","376292","685c6ca90f751d3aae6b1794","685c6e706b7df0898b6f7038","684f775be907689bdef198ec","false","false","Rabbit","https://kisumu-drawings.s3-us-west-1.amazonaws.com/87-013.png","9","Rabbit","87-013.png"
"","8172","image-button-response","26","null","384980","685c6ca90f751d3aae6b1794","685c6e706b7df0898b6f7038","684f775be907689bdef198ec","false","false","Tree","https://kisumu-drawings.s3-us-west-1.amazonaws.com/35-015.png","10","Tree","35-015.png"
"","13261","image-button-response","27","null","398756","685c6ca90f751d3aae6b1794","685c6e706b7df0898b6f7038","684f775be907689bdef198ec","false","false","Watch","https://kisumu-drawings.s3-us-west-1.amazonaws.com/48-012.png","10","Tree","48-012.png"
"","21792","image-button-response","28","null","421068","685c6ca90f751d3aae6b1794","685c6e706b7df0898b6f7038","684f775be907689bdef198ec","false","false","Car","https://kisumu-drawings.s3-us-west-1.amazonaws.com/33-009.png","8","House","33-009.png"
"","10924","image-button-response","29","null","432499","685c6ca90f751d3aae6b1794","685c6e706b7df0898b6f7038","684f775be907689bdef198ec","false","false","Bicycle","https://kisumu-drawings.s3-us-west-1.amazonaws.com/32-009.png","2","Bird","32-009.png"
"","15145","image-button-response","30","null","448156","685c6ca90f751d3aae6b1794","685c6e706b7df0898b6f7038","684f775be907689bdef198ec","false","false","Bird","https://kisumu-drawings.s3-us-west-1.amazonaws.com/36-016.png","2","Bird","36-016.png"
"","6296","image-button-response","31","null","454963","685c6ca90f751d3aae6b1794","685c6e706b7df0898b6f7038","684f775be907689bdef198ec","false","false","Bird","https://kisumu-drawings.s3-us-west-1.amazonaws.com/55-007.png","2","Bird","55-007.png"
"","22157","image-button-response","32","null","477636","685c6ca90f751d3aae6b1794","685c6e706b7df0898b6f7038","684f775be907689bdef198ec","false","false","Hat","https://kisumu-drawings.s3-us-west-1.amazonaws.com/114-016.png","7","Hat","114-016.png"
"","9948","image-button-response","33","null","488099","685c6ca90f751d3aae6b1794","685c6e706b7df0898b6f7038","684f775be907689bdef198ec","false","false","Cup","https://kisumu-drawings.s3-us-west-1.amazonaws.com/94-005.png","6","Cup","94-005.png"
"","9877","image-button-response","34","null","498483","685c6ca90f751d3aae6b1794","685c6e706b7df0898b6f7038","684f775be907689bdef198ec","false","false","Chair","https://kisumu-drawings.s3-us-west-1.amazonaws.com/67-010.png","5","Chair","67-010.png"
"","8814","image-button-response","35","null","507803","685c6ca90f751d3aae6b1794","685c6e706b7df0898b6f7038","684f775be907689bdef198ec","false","false","Car","https://kisumu-drawings.s3-us-west-1.amazonaws.com/106-016.png","3","Car","106-016.png"
"","8286","image-button-response","36","null","516596","685c6ca90f751d3aae6b1794","685c6e706b7df0898b6f7038","684f775be907689bdef198ec","false","false","Cat","https://kisumu-drawings.s3-us-west-1.amazonaws.com/116-012.png","9","Rabbit","116-012.png"
"","12086","image-button-response","37","null","529188","685c6ca90f751d3aae6b1794","685c6e706b7df0898b6f7038","684f775be907689bdef198ec","false","false","House","https://kisumu-drawings.s3-us-west-1.amazonaws.com/71-008.png","8","House","71-008.png"
"","10777","image-button-response","38","null","540474","685c6ca90f751d3aae6b1794","685c6e706b7df0898b6f7038","684f775be907689bdef198ec","false","false","Bird","https://kisumu-drawings.s3-us-west-1.amazonaws.com/63-011.png","2","Bird","63-011.png"
"","17354","image-button-response","39","null","558349","685c6ca90f751d3aae6b1794","685c6e706b7df0898b6f7038","684f775be907689bdef198ec","false","false","Hat","https://kisumu-drawings.s3-us-west-1.amazonaws.com/16-013.png","6","Cup","16-013.png"
"","9093","image-button-response","40","null","567954","685c6ca90f751d3aae6b1794","685c6e706b7df0898b6f7038","684f775be907689bdef198ec","false","false","Cup","https://kisumu-drawings.s3-us-west-1.amazonaws.com/52-008.png","6","Cup","52-008.png"
"","7164","image-button-response","41","null","575626","685c6ca90f751d3aae6b1794","685c6e706b7df0898b6f7038","684f775be907689bdef198ec","false","false","Airplane","https://kisumu-drawings.s3-us-west-1.amazonaws.com/40-012.png","0","Airplane","40-012.png"
"","14009","image-button-response","42","null","590147","685c6ca90f751d3aae6b1794","685c6e706b7df0898b6f7038","684f775be907689bdef198ec","false","false","Bird","https://kisumu-drawings.s3-us-west-1.amazonaws.com/18-013.png","10","Tree","18-013.png"
"","7415","image-button-response","43","null","598082","685c6ca90f751d3aae6b1794","685c6e706b7df0898b6f7038","684f775be907689bdef198ec","false","false","House","https://kisumu-drawings.s3-us-west-1.amazonaws.com/55-016.png","8","House","55-016.png"
"","8102","image-button-response","44","null","606690","685c6ca90f751d3aae6b1794","685c6e706b7df0898b6f7038","684f775be907689bdef198ec","false","false","Chair","https://kisumu-drawings.s3-us-west-1.amazonaws.com/28-009.png","5","Chair","28-009.png"
"","9675","image-button-response","45","null","616874","685c6ca90f751d3aae6b1794","685c6e706b7df0898b6f7038","684f775be907689bdef198ec","false","false","Bicycle","https://kisumu-drawings.s3-us-west-1.amazonaws.com/60-015.png","1","Bicycle","60-015.png"
"","20917","image-button-response","46","null","638298","685c6ca90f751d3aae6b1794","685c6e706b7df0898b6f7038","684f775be907689bdef198ec","false","false","Rabbit","https://kisumu-drawings.s3-us-west-1.amazonaws.com/58-007.png","2","Bird","58-007.png"
"","7636","image-button-response","47","null","646442","685c6ca90f751d3aae6b1794","685c6e706b7df0898b6f7038","684f775be907689bdef198ec","false","false","Bicycle","https://kisumu-drawings.s3-us-west-1.amazonaws.com/61-005.png","1","Bicycle","61-005.png"
"","4615","image-button-response","48","null","651564","685c6ca90f751d3aae6b1794","685c6e706b7df0898b6f7038","684f775be907689bdef198ec","false","false","Airplane","https://kisumu-drawings.s3-us-west-1.amazonaws.com/20-016.png","0","Airplane","20-016.png"
"","4422","image-button-response","49","null","656490","685c6ca90f751d3aae6b1794","685c6e706b7df0898b6f7038","684f775be907689bdef198ec","false","false","Car","https://kisumu-drawings.s3-us-west-1.amazonaws.com/95-007.png","3","Car","95-007.png"
"","8265","image-button-response","50","null","665274","685c6ca90f751d3aae6b1794","685c6e706b7df0898b6f7038","684f775be907689bdef198ec","false","false","Rabbit","https://kisumu-drawings.s3-us-west-1.amazonaws.com/31-014.png","9","Rabbit","31-014.png"
"","12899","image-button-response","51","null","678689","685c6ca90f751d3aae6b1794","685c6e706b7df0898b6f7038","684f775be907689bdef198ec","false","false","Airplane","https://kisumu-drawings.s3-us-west-1.amazonaws.com/83-015.png","0","Airplane","83-015.png"
"","9645","image-button-response","52","null","688858","685c6ca90f751d3aae6b1794","685c6e706b7df0898b6f7038","684f775be907689bdef198ec","false","false","Cat","https://kisumu-drawings.s3-us-west-1.amazonaws.com/32-014.png","9","Rabbit","32-014.png"
"","8758","image-button-response","53","null","698138","685c6ca90f751d3aae6b1794","685c6e706b7df0898b6f7038","684f775be907689bdef198ec","false","false","Cup","https://kisumu-drawings.s3-us-west-1.amazonaws.com/12-005.png","6","Cup","12-005.png"
"","10605","image-button-response","54","null","709249","685c6ca90f751d3aae6b1794","685c6e706b7df0898b6f7038","684f775be907689bdef198ec","false","false","Hat","https://kisumu-drawings.s3-us-west-1.amazonaws.com/71-006.png","5","Chair","71-006.png"
"","13880","image-button-response","55","null","723634","685c6ca90f751d3aae6b1794","685c6e706b7df0898b6f7038","684f775be907689bdef198ec","false","false","Bird","https://kisumu-drawings.s3-us-west-1.amazonaws.com/90-010.png","0","Airplane","90-010.png"
"","8174","image-button-response","56","null","732314","685c6ca90f751d3aae6b1794","685c6e706b7df0898b6f7038","684f775be907689bdef198ec","false","false","House","https://kisumu-drawings.s3-us-west-1.amazonaws.com/81-015.png","8","House","81-015.png"
"","13461","image-button-response","57","null","746281","685c6ca90f751d3aae6b1794","685c6e706b7df0898b6f7038","684f775be907689bdef198ec","false","false","Chair","https://kisumu-drawings.s3-us-west-1.amazonaws.com/95-012.png","5","Chair","95-012.png"
"","10078","image-button-response","58","null","756865","685c6ca90f751d3aae6b1794","685c6e706b7df0898b6f7038","684f775be907689bdef198ec","false","false","Chair","https://kisumu-drawings.s3-us-west-1.amazonaws.com/119-013.png","5","Chair","119-013.png"
"","9631","image-button-response","59","null","767017","685c6ca90f751d3aae6b1794","685c6e706b7df0898b6f7038","684f775be907689bdef198ec","false","false","Cup","https://kisumu-drawings.s3-us-west-1.amazonaws.com/118-015.png","6","Cup","118-015.png"
"","12416","image-button-response","60","null","779938","685c6ca90f751d3aae6b1794","685c6e706b7df0898b6f7038","684f775be907689bdef198ec","false","false","Bicycle","https://kisumu-drawings.s3-us-west-1.amazonaws.com/20-015.png","0","Airplane","20-015.png"
"","12366","image-button-response","61","null","792809","685c6ca90f751d3aae6b1794","685c6e706b7df0898b6f7038","684f775be907689bdef198ec","false","false","Car","https://kisumu-drawings.s3-us-west-1.amazonaws.com/71-009.png","10","Tree","71-009.png"
"","11405","image-button-response","62","null","804720","685c6ca90f751d3aae6b1794","685c6e706b7df0898b6f7038","684f775be907689bdef198ec","false","false","Airplane","https://kisumu-drawings.s3-us-west-1.amazonaws.com/113-014.png","0","Airplane","113-014.png"
"","16303","image-button-response","63","null","821529","685c6ca90f751d3aae6b1794","685c6e706b7df0898b6f7038","684f775be907689bdef198ec","false","false","Hat","https://kisumu-drawings.s3-us-west-1.amazonaws.com/46-014.png","0","Airplane","46-014.png"
"","10250","image-button-response","64","null","832289","685c6ca90f751d3aae6b1794","685c6e706b7df0898b6f7038","684f775be907689bdef198ec","false","false","Watch","https://kisumu-drawings.s3-us-west-1.amazonaws.com/21-009.png","2","Bird","21-009.png"
"","16026","image-button-response","65","null","848834","685c6ca90f751d3aae6b1794","685c6e706b7df0898b6f7038","684f775be907689bdef198ec","false","false","Rabbit","https://kisumu-drawings.s3-us-west-1.amazonaws.com/15-006.png","8","House","15-006.png"
"","9327","image-button-response","66","null","858681","685c6ca90f751d3aae6b1794","685c6e706b7df0898b6f7038","684f775be907689bdef198ec","false","false","Rabbit","https://kisumu-drawings.s3-us-west-1.amazonaws.com/63-010.png","9","Rabbit","63-010.png"
"","10843","image-button-response","67","null","870041","685c6ca90f751d3aae6b1794","685c6e706b7df0898b6f7038","684f775be907689bdef198ec","false","false","Watch","https://kisumu-drawings.s3-us-west-1.amazonaws.com/80-015.png","11","Watch","80-015.png"
"","8278","image-button-response","68","null","878826","685c6ca90f751d3aae6b1794","685c6e706b7df0898b6f7038","684f775be907689bdef198ec","false","false","House","https://kisumu-drawings.s3-us-west-1.amazonaws.com/108-008.png","8","House","108-008.png"
"","13414","image-button-response","69","null","892752","685c6ca90f751d3aae6b1794","685c6e706b7df0898b6f7038","684f775be907689bdef198ec","false","false","House","https://kisumu-drawings.s3-us-west-1.amazonaws.com/4-012.png","8","House","4-012.png"
"","12357","image-button-response","70","null","905616","685c6ca90f751d3aae6b1794","685c6e706b7df0898b6f7038","684f775be907689bdef198ec","false","false","Car","https://kisumu-drawings.s3-us-west-1.amazonaws.com/12-010.png","3","Car","12-010.png"
"","9801","image-button-response","71","null","915937","685c6ca90f751d3aae6b1794","685c6e706b7df0898b6f7038","684f775be907689bdef198ec","false","false","Rabbit","https://kisumu-drawings.s3-us-west-1.amazonaws.com/111-011.png","9","Rabbit","111-011.png"
"","10651","image-button-response","72","null","927097","685c6ca90f751d3aae6b1794","685c6e706b7df0898b6f7038","684f775be907689bdef198ec","false","false","Watch","https://kisumu-drawings.s3-us-west-1.amazonaws.com/87-010.png","11","Watch","87-010.png"
"","10919","image-button-response","73","null","938521","685c6ca90f751d3aae6b1794","685c6e706b7df0898b6f7038","684f775be907689bdef198ec","false","false","Chair","https://kisumu-drawings.s3-us-west-1.amazonaws.com/56-010.png","8","House","56-010.png"
"","6926","image-button-response","74","null","945952","685c6ca90f751d3aae6b1794","685c6e706b7df0898b6f7038","684f775be907689bdef198ec","false","false","Car","https://kisumu-drawings.s3-us-west-1.amazonaws.com/41-010.png","3","Car","41-010.png"
"","12026","image-button-response","75","null","958488","685c6ca90f751d3aae6b1794","685c6e706b7df0898b6f7038","684f775be907689bdef198ec","false","false","Bird","https://kisumu-drawings.s3-us-west-1.amazonaws.com/106-015.png","0","Airplane","106-015.png"
