"view_history","rt","trial_type","trial_index","plugin_version","time_elapsed","study_id","session_id","participant_id","catch_trial","prep_trial","sketcher_category","stimulus","response","response_category","sketch_id"
"[{""page_index"":0,""viewing_time"":54797},{""page_index"":1,""viewing_time"":17120},{""page_index"":2,""viewing_time"":9376},{""page_index"":3,""viewing_time"":20696}]","101989","instructions","0","null","102021","685c6ca90f751d3aae6b1794","685c6e2209a5f9ec9f81f847","68547ee196c7c3bc8ce6b376","","","","","","",""
"","6672","image-button-response","1","null","109701","685c6ca90f751d3aae6b1794","685c6e2209a5f9ec9f81f847","68547ee196c7c3bc8ce6b376","false","true","car","stimuli/prep_trials/1_car_prep.png","3","Car",""
"","3737","image-button-response","2","null","113949","685c6ca90f751d3aae6b1794","685c6e2209a5f9ec9f81f847","68547ee196c7c3bc8ce6b376","false","true","cat","stimuli/prep_trials/0_cat_prep.jpg","4","Cat",""
"","31029","image-button-response","3","null","145493","685c6ca90f751d3aae6b1794","685c6e2209a5f9ec9f81f847","68547ee196c7c3bc8ce6b376","false","false","Hat","https://kisumu-drawings.s3-us-west-1.amazonaws.com/37-011.png","11","Watch","37-011.png"
"","63841","image-button-response","4","null","209853","685c6ca90f751d3aae6b1794","685c6e2209a5f9ec9f81f847","68547ee196c7c3bc8ce6b376","false","false","Chair","https://kisumu-drawings.s3-us-west-1.amazonaws.com/36-013.png","5","Chair","36-013.png"
"","9859","image-button-response","5","null","220221","685c6ca90f751d3aae6b1794","685c6e2209a5f9ec9f81f847","68547ee196c7c3bc8ce6b376","false","false","Bicycle","https://kisumu-drawings.s3-us-west-1.amazonaws.com/10-007.png","1","Bicycle","10-007.png"
"","6277","image-button-response","6","null","227014","685c6ca90f751d3aae6b1794","685c6e2209a5f9ec9f81f847","68547ee196c7c3bc8ce6b376","false","false","Bird","https://kisumu-drawings.s3-us-west-1.amazonaws.com/115-006.png","2","Bird","115-006.png"
"","9749","image-button-response","7","null","237269","685c6ca90f751d3aae6b1794","685c6e2209a5f9ec9f81f847","68547ee196c7c3bc8ce6b376","false","false","Watch","https://kisumu-drawings.s3-us-west-1.amazonaws.com/46-011.png","11","Watch","46-011.png"
"","13226","image-button-response","8","null","251005","685c6ca90f751d3aae6b1794","685c6e2209a5f9ec9f81f847","68547ee196c7c3bc8ce6b376","false","false","Airplane","https://kisumu-drawings.s3-us-west-1.amazonaws.com/7-009.png","7","Hat","7-009.png"
"","26044","image-button-response","9","null","277557","685c6ca90f751d3aae6b1794","685c6e2209a5f9ec9f81f847","68547ee196c7c3bc8ce6b376","false","false","Chair","https://kisumu-drawings.s3-us-west-1.amazonaws.com/16-008.png","7","Hat","16-008.png"
"","5419","image-button-response","10","null","283486","685c6ca90f751d3aae6b1794","685c6e2209a5f9ec9f81f847","68547ee196c7c3bc8ce6b376","false","false","House","https://kisumu-drawings.s3-us-west-1.amazonaws.com/86-011.png","8","House","86-011.png"
"","8621","image-button-response","11","null","292614","685c6ca90f751d3aae6b1794","685c6e2209a5f9ec9f81f847","68547ee196c7c3bc8ce6b376","false","false","Cat","https://kisumu-drawings.s3-us-west-1.amazonaws.com/116-012.png","4","Cat","116-012.png"
"","13706","image-button-response","12","null","306829","685c6ca90f751d3aae6b1794","685c6e2209a5f9ec9f81f847","68547ee196c7c3bc8ce6b376","false","false","Cat","https://kisumu-drawings.s3-us-west-1.amazonaws.com/15-014.png","7","Hat","15-014.png"
"","7004","image-button-response","13","null","314341","685c6ca90f751d3aae6b1794","685c6e2209a5f9ec9f81f847","68547ee196c7c3bc8ce6b376","false","false","Hat","https://kisumu-drawings.s3-us-west-1.amazonaws.com/46-014.png","2","Bird","46-014.png"
"","6621","image-button-response","14","null","321469","685c6ca90f751d3aae6b1794","685c6e2209a5f9ec9f81f847","68547ee196c7c3bc8ce6b376","false","false","Cup","https://kisumu-drawings.s3-us-west-1.amazonaws.com/45-008.png","6","Cup","45-008.png"
"","24605","image-button-response","15","null","346581","685c6ca90f751d3aae6b1794","685c6e2209a5f9ec9f81f847","68547ee196c7c3bc8ce6b376","false","false","Car","https://kisumu-drawings.s3-us-west-1.amazonaws.com/13-011.png","7","Hat","13-011.png"
"","79239","image-button-response","16","null","426333","685c6ca90f751d3aae6b1794","685c6e2209a5f9ec9f81f847","68547ee196c7c3bc8ce6b376","false","false","House","https://kisumu-drawings.s3-us-west-1.amazonaws.com/46-015.png","10","Tree","46-015.png"
"","15742","image-button-response","17","null","442581","685c6ca90f751d3aae6b1794","685c6e2209a5f9ec9f81f847","68547ee196c7c3bc8ce6b376","false","false","Rabbit","https://kisumu-drawings.s3-us-west-1.amazonaws.com/118-012.png","4","Cat","118-012.png"
"","7147","image-button-response","18","null","450237","685c6ca90f751d3aae6b1794","685c6e2209a5f9ec9f81f847","68547ee196c7c3bc8ce6b376","false","false","Cup","https://kisumu-drawings.s3-us-west-1.amazonaws.com/117-006.png","6","Cup","117-006.png"
"","6460","image-button-response","19","null","457205","685c6ca90f751d3aae6b1794","685c6e2209a5f9ec9f81f847","68547ee196c7c3bc8ce6b376","false","false","Watch","https://kisumu-drawings.s3-us-west-1.amazonaws.com/117-007.png","11","Watch","117-007.png"
"","6021","image-button-response","20","null","463742","685c6ca90f751d3aae6b1794","685c6e2209a5f9ec9f81f847","68547ee196c7c3bc8ce6b376","false","false","Cup","https://kisumu-drawings.s3-us-west-1.amazonaws.com/37-010.png","6","Cup","37-010.png"
"","9241","image-button-response","21","null","473501","685c6ca90f751d3aae6b1794","685c6e2209a5f9ec9f81f847","68547ee196c7c3bc8ce6b376","false","false","Bird","https://kisumu-drawings.s3-us-west-1.amazonaws.com/100-015.png","4","Cat","100-015.png"
"","7518","image-button-response","22","null","481533","685c6ca90f751d3aae6b1794","685c6e2209a5f9ec9f81f847","68547ee196c7c3bc8ce6b376","false","false","Rabbit","https://kisumu-drawings.s3-us-west-1.amazonaws.com/38-009.png","4","Cat","38-009.png"
"","7207","image-button-response","23","null","489245","685c6ca90f751d3aae6b1794","685c6e2209a5f9ec9f81f847","68547ee196c7c3bc8ce6b376","false","false","Cat","https://kisumu-drawings.s3-us-west-1.amazonaws.com/36-012.png","4","Cat","36-012.png"
"","11832","image-button-response","24","null","501581","685c6ca90f751d3aae6b1794","685c6e2209a5f9ec9f81f847","68547ee196c7c3bc8ce6b376","false","false","Tree","https://kisumu-drawings.s3-us-west-1.amazonaws.com/17-010.png","10","Tree","17-010.png"
"","6197","image-button-response","25","null","508285","685c6ca90f751d3aae6b1794","685c6e2209a5f9ec9f81f847","68547ee196c7c3bc8ce6b376","false","false","Watch","https://kisumu-drawings.s3-us-west-1.amazonaws.com/17-011.png","11","Watch","17-011.png"
"","10059","image-button-response","26","null","518854","685c6ca90f751d3aae6b1794","685c6e2209a5f9ec9f81f847","68547ee196c7c3bc8ce6b376","false","false","Watch","https://kisumu-drawings.s3-us-west-1.amazonaws.com/38-013.png","7","Hat","38-013.png"
"","8323","image-button-response","27","null","527693","685c6ca90f751d3aae6b1794","685c6e2209a5f9ec9f81f847","68547ee196c7c3bc8ce6b376","false","false","Bird","https://kisumu-drawings.s3-us-west-1.amazonaws.com/74-006.png","4","Cat","74-006.png"
"","6237","image-button-response","28","null","534445","685c6ca90f751d3aae6b1794","685c6e2209a5f9ec9f81f847","68547ee196c7c3bc8ce6b376","false","false","Car","https://kisumu-drawings.s3-us-west-1.amazonaws.com/43-016.png","3","Car","43-016.png"
"","5860","image-button-response","29","null","540829","685c6ca90f751d3aae6b1794","685c6e2209a5f9ec9f81f847","68547ee196c7c3bc8ce6b376","false","false","Car","https://kisumu-drawings.s3-us-west-1.amazonaws.com/76-014.png","3","Car","76-014.png"
"","17506","image-button-response","30","null","558862","685c6ca90f751d3aae6b1794","685c6e2209a5f9ec9f81f847","68547ee196c7c3bc8ce6b376","false","false","Bicycle","https://kisumu-drawings.s3-us-west-1.amazonaws.com/113-011.png","0","Airplane","113-011.png"
"","9996","image-button-response","31","null","569366","685c6ca90f751d3aae6b1794","685c6e2209a5f9ec9f81f847","68547ee196c7c3bc8ce6b376","false","false","Cup","https://kisumu-drawings.s3-us-west-1.amazonaws.com/16-005.png","7","Hat","16-005.png"
"","11830","image-button-response","32","null","581701","685c6ca90f751d3aae6b1794","685c6e2209a5f9ec9f81f847","68547ee196c7c3bc8ce6b376","false","false","Airplane","https://kisumu-drawings.s3-us-west-1.amazonaws.com/27-005.png","2","Bird","27-005.png"
"","10049","image-button-response","33","null","592254","685c6ca90f751d3aae6b1794","685c6e2209a5f9ec9f81f847","68547ee196c7c3bc8ce6b376","false","false","Hat","https://kisumu-drawings.s3-us-west-1.amazonaws.com/16-013.png","7","Hat","16-013.png"
"","8740","image-button-response","34","null","601509","685c6ca90f751d3aae6b1794","685c6e2209a5f9ec9f81f847","68547ee196c7c3bc8ce6b376","false","false","House","https://kisumu-drawings.s3-us-west-1.amazonaws.com/38-008.png","8","House","38-008.png"
"","5409","image-button-response","35","null","607437","685c6ca90f751d3aae6b1794","685c6e2209a5f9ec9f81f847","68547ee196c7c3bc8ce6b376","false","false","Car","https://kisumu-drawings.s3-us-west-1.amazonaws.com/116-011.png","3","Car","116-011.png"
"","7153","image-button-response","36","null","615102","685c6ca90f751d3aae6b1794","685c6e2209a5f9ec9f81f847","68547ee196c7c3bc8ce6b376","false","false","Cup","https://kisumu-drawings.s3-us-west-1.amazonaws.com/77-005.png","6","Cup","77-005.png"
"","48422","image-button-response","37","null","664030","685c6ca90f751d3aae6b1794","685c6e2209a5f9ec9f81f847","68547ee196c7c3bc8ce6b376","false","false","Watch","https://kisumu-drawings.s3-us-west-1.amazonaws.com/77-013.png","7","Hat","77-013.png"
"","11702","image-button-response","38","null","676237","685c6ca90f751d3aae6b1794","685c6e2209a5f9ec9f81f847","68547ee196c7c3bc8ce6b376","false","false","Airplane","https://kisumu-drawings.s3-us-west-1.amazonaws.com/96-009.png","0","Airplane","96-009.png"
"","9687","image-button-response","39","null","686429","685c6ca90f751d3aae6b1794","685c6e2209a5f9ec9f81f847","68547ee196c7c3bc8ce6b376","false","false","Tree","https://kisumu-drawings.s3-us-west-1.amazonaws.com/84-005.png","10","Tree","84-005.png"
"","7804","image-button-response","40","null","694751","685c6ca90f751d3aae6b1794","685c6e2209a5f9ec9f81f847","68547ee196c7c3bc8ce6b376","false","false","House","https://kisumu-drawings.s3-us-west-1.amazonaws.com/78-012.png","8","House","78-012.png"
"","13176","image-button-response","41","null","708453","685c6ca90f751d3aae6b1794","685c6e2209a5f9ec9f81f847","68547ee196c7c3bc8ce6b376","false","false","Cat","https://kisumu-drawings.s3-us-west-1.amazonaws.com/82-015.png","7","Hat","82-015.png"
"","5752","image-button-response","42","null","714710","685c6ca90f751d3aae6b1794","685c6e2209a5f9ec9f81f847","68547ee196c7c3bc8ce6b376","false","false","Car","https://kisumu-drawings.s3-us-west-1.amazonaws.com/35-009.png","3","Car","35-009.png"
"","7405","image-button-response","43","null","722621","685c6ca90f751d3aae6b1794","685c6e2209a5f9ec9f81f847","68547ee196c7c3bc8ce6b376","false","false","Bird","https://kisumu-drawings.s3-us-west-1.amazonaws.com/42-005.png","0","Airplane","42-005.png"
"","23519","image-button-response","44","null","746645","685c6ca90f751d3aae6b1794","685c6e2209a5f9ec9f81f847","68547ee196c7c3bc8ce6b376","false","false","Chair","https://kisumu-drawings.s3-us-west-1.amazonaws.com/45-007.png","7","Hat","45-007.png"
"","12549","image-button-response","45","null","759701","685c6ca90f751d3aae6b1794","685c6e2209a5f9ec9f81f847","68547ee196c7c3bc8ce6b376","false","false","Cat","https://kisumu-drawings.s3-us-west-1.amazonaws.com/44-014.png","4","Cat","44-014.png"
"","5949","image-button-response","46","null","766157","685c6ca90f751d3aae6b1794","685c6e2209a5f9ec9f81f847","68547ee196c7c3bc8ce6b376","false","false","Airplane","https://kisumu-drawings.s3-us-west-1.amazonaws.com/69-013.png","0","Airplane","69-013.png"
"","9245","image-button-response","47","null","775917","685c6ca90f751d3aae6b1794","685c6e2209a5f9ec9f81f847","68547ee196c7c3bc8ce6b376","false","false","Tree","https://kisumu-drawings.s3-us-west-1.amazonaws.com/78-016.png","10","Tree","78-016.png"
"","14684","image-button-response","48","null","791110","685c6ca90f751d3aae6b1794","685c6e2209a5f9ec9f81f847","68547ee196c7c3bc8ce6b376","false","false","Chair","https://kisumu-drawings.s3-us-west-1.amazonaws.com/77-010.png","7","Hat","77-010.png"
"","6085","image-button-response","49","null","797701","685c6ca90f751d3aae6b1794","685c6e2209a5f9ec9f81f847","68547ee196c7c3bc8ce6b376","false","false","Hat","https://kisumu-drawings.s3-us-west-1.amazonaws.com/78-013.png","7","Hat","78-013.png"
"","19059","image-button-response","50","null","817270","685c6ca90f751d3aae6b1794","685c6e2209a5f9ec9f81f847","68547ee196c7c3bc8ce6b376","false","false","Bicycle","https://kisumu-drawings.s3-us-west-1.amazonaws.com/55-006.png","3","Car","55-006.png"
"","7061","image-button-response","51","null","824837","685c6ca90f751d3aae6b1794","685c6e2209a5f9ec9f81f847","68547ee196c7c3bc8ce6b376","false","false","House","https://kisumu-drawings.s3-us-west-1.amazonaws.com/120-011.png","8","House","120-011.png"
"","7364","image-button-response","52","null","832717","685c6ca90f751d3aae6b1794","685c6e2209a5f9ec9f81f847","68547ee196c7c3bc8ce6b376","false","false","Rabbit","https://kisumu-drawings.s3-us-west-1.amazonaws.com/84-015.png","4","Cat","84-015.png"
"","6410","image-button-response","53","null","839638","685c6ca90f751d3aae6b1794","685c6e2209a5f9ec9f81f847","68547ee196c7c3bc8ce6b376","false","false","Chair","https://kisumu-drawings.s3-us-west-1.amazonaws.com/117-010.png","5","Chair","117-010.png"
"","5014","image-button-response","54","null","845157","685c6ca90f751d3aae6b1794","685c6e2209a5f9ec9f81f847","68547ee196c7c3bc8ce6b376","false","false","Hat","https://kisumu-drawings.s3-us-west-1.amazonaws.com/118-016.png","7","Hat","118-016.png"
"","17364","image-button-response","55","null","863029","685c6ca90f751d3aae6b1794","685c6e2209a5f9ec9f81f847","68547ee196c7c3bc8ce6b376","false","false","Cat","https://kisumu-drawings.s3-us-west-1.amazonaws.com/76-015.png","2","Bird","76-015.png"
"","8252","image-button-response","56","null","871789","685c6ca90f751d3aae6b1794","685c6e2209a5f9ec9f81f847","68547ee196c7c3bc8ce6b376","false","false","Bicycle","https://kisumu-drawings.s3-us-west-1.amazonaws.com/72-008.png","5","Chair","72-008.png"
"","7541","image-button-response","57","null","879846","685c6ca90f751d3aae6b1794","685c6e2209a5f9ec9f81f847","68547ee196c7c3bc8ce6b376","false","false","Rabbit","https://kisumu-drawings.s3-us-west-1.amazonaws.com/17-009.png","4","Cat","17-009.png"
"","29919","image-button-response","58","null","910270","685c6ca90f751d3aae6b1794","685c6e2209a5f9ec9f81f847","68547ee196c7c3bc8ce6b376","false","false","Rabbit","https://kisumu-drawings.s3-us-west-1.amazonaws.com/79-014.png","9","Rabbit","79-014.png"
"","6162","image-button-response","59","null","916942","685c6ca90f751d3aae6b1794","685c6e2209a5f9ec9f81f847","68547ee196c7c3bc8ce6b376","false","false","Watch","https://kisumu-drawings.s3-us-west-1.amazonaws.com/83-005.png","11","Watch","83-005.png"
"","3556","image-button-response","60","null","921006","685c6ca90f751d3aae6b1794","685c6e2209a5f9ec9f81f847","68547ee196c7c3bc8ce6b376","true","false","airplane","stimuli/catch_trials/0_airplane_catch.jpg","0","Airplane",""
"","7757","image-button-response","61","null","929270","685c6ca90f751d3aae6b1794","685c6e2209a5f9ec9f81f847","68547ee196c7c3bc8ce6b376","false","false","Tree","https://kisumu-drawings.s3-us-west-1.amazonaws.com/38-012.png","10","Tree","38-012.png"
"","8004","image-button-response","62","null","937781","685c6ca90f751d3aae6b1794","685c6e2209a5f9ec9f81f847","68547ee196c7c3bc8ce6b376","false","false","Bird","https://kisumu-drawings.s3-us-west-1.amazonaws.com/12-009.png","2","Bird","12-009.png"
"","23123","image-button-response","63","null","961413","685c6ca90f751d3aae6b1794","685c6e2209a5f9ec9f81f847","68547ee196c7c3bc8ce6b376","false","false","Bicycle","https://kisumu-drawings.s3-us-west-1.amazonaws.com/31-006.png","3","Car","31-006.png"
"","6146","image-button-response","64","null","968077","685c6ca90f751d3aae6b1794","685c6e2209a5f9ec9f81f847","68547ee196c7c3bc8ce6b376","false","false","Airplane","https://kisumu-drawings.s3-us-west-1.amazonaws.com/110-014.png","0","Airplane","110-014.png"
"","10720","image-button-response","65","null","979301","685c6ca90f751d3aae6b1794","685c6e2209a5f9ec9f81f847","68547ee196c7c3bc8ce6b376","false","false","Rabbit","https://kisumu-drawings.s3-us-west-1.amazonaws.com/47-010.png","2","Bird","47-010.png"
"","6290","image-button-response","66","null","986102","685c6ca90f751d3aae6b1794","685c6e2209a5f9ec9f81f847","68547ee196c7c3bc8ce6b376","false","false","Tree","https://kisumu-drawings.s3-us-west-1.amazonaws.com/46-005.png","10","Tree","46-005.png"
"","7295","image-button-response","67","null","993901","685c6ca90f751d3aae6b1794","685c6e2209a5f9ec9f81f847","68547ee196c7c3bc8ce6b376","false","false","Chair","https://kisumu-drawings.s3-us-west-1.amazonaws.com/83-014.png","5","Chair","83-014.png"
"","6352","image-button-response","68","null","1000766","685c6ca90f751d3aae6b1794","685c6e2209a5f9ec9f81f847","68547ee196c7c3bc8ce6b376","false","false","House","https://kisumu-drawings.s3-us-west-1.amazonaws.com/17-016.png","8","House","17-016.png"
"","5895","image-button-response","69","null","1007174","685c6ca90f751d3aae6b1794","685c6e2209a5f9ec9f81f847","68547ee196c7c3bc8ce6b376","false","false","Bicycle","https://kisumu-drawings.s3-us-west-1.amazonaws.com/99-013.png","1","Bicycle","99-013.png"
"","6041","image-button-response","70","null","1013733","685c6ca90f751d3aae6b1794","685c6e2209a5f9ec9f81f847","68547ee196c7c3bc8ce6b376","false","false","Cup","https://kisumu-drawings.s3-us-west-1.amazonaws.com/83-011.png","6","Cup","83-011.png"
"","7315","image-button-response","71","null","1021566","685c6ca90f751d3aae6b1794","685c6e2209a5f9ec9f81f847","68547ee196c7c3bc8ce6b376","false","false","Airplane","https://kisumu-drawings.s3-us-west-1.amazonaws.com/52-015.png","7","Hat","52-015.png"
"","14710","image-button-response","72","null","1036782","685c6ca90f751d3aae6b1794","685c6e2209a5f9ec9f81f847","68547ee196c7c3bc8ce6b376","false","false","Bird","https://kisumu-drawings.s3-us-west-1.amazonaws.com/33-007.png","7","Hat","33-007.png"
"","8523","image-button-response","73","null","1045813","685c6ca90f751d3aae6b1794","685c6e2209a5f9ec9f81f847","68547ee196c7c3bc8ce6b376","false","false","Car","https://kisumu-drawings.s3-us-west-1.amazonaws.com/82-014.png","3","Car","82-014.png"
"","5638","image-button-response","74","null","1051965","685c6ca90f751d3aae6b1794","685c6e2209a5f9ec9f81f847","68547ee196c7c3bc8ce6b376","false","false","Tree","https://kisumu-drawings.s3-us-west-1.amazonaws.com/118-013.png","10","Tree","118-013.png"
"","5570","image-button-response","75","null","1058054","685c6ca90f751d3aae6b1794","685c6e2209a5f9ec9f81f847","68547ee196c7c3bc8ce6b376","false","false","Hat","https://kisumu-drawings.s3-us-west-1.amazonaws.com/86-006.png","7","Hat","86-006.png"
