"view_history","rt","trial_type","trial_index","plugin_version","time_elapsed","study_id","session_id","participant_id","catch_trial","prep_trial","sketcher_category","stimulus","response","response_category","sketch_id"
"[{""page_index"":0,""viewing_time"":22665},{""page_index"":1,""viewing_time"":19087},{""page_index"":2,""viewing_time"":25224},{""page_index"":3,""viewing_time"":17832}]","84809","instructions","0","null","84826","685c6ca90f751d3aae6b1794","685c6e57114cc28629b6eefd","6856125b77790661c6fcaf58","","","","","","",""
"","7373","image-button-response","1","null","93225","685c6ca90f751d3aae6b1794","685c6e57114cc28629b6eefd","6856125b77790661c6fcaf58","false","true","car","stimuli/prep_trials/1_car_prep.png","3","Car",""
"","4070","image-button-response","2","null","97801","685c6ca90f751d3aae6b1794","685c6e57114cc28629b6eefd","6856125b77790661c6fcaf58","false","true","cat","stimuli/prep_trials/0_cat_prep.jpg","4","Cat",""
"","28697","image-button-response","3","null","127009","685c6ca90f751d3aae6b1794","685c6e57114cc28629b6eefd","6856125b77790661c6fcaf58","false","false","Car","https://kisumu-drawings.s3-us-west-1.amazonaws.com/36-011.png","3","Car","36-011.png"
"","8413","image-button-response","4","null","135929","685c6ca90f751d3aae6b1794","685c6e57114cc28629b6eefd","6856125b77790661c6fcaf58","false","false","Cup","https://kisumu-drawings.s3-us-west-1.amazonaws.com/116-008.png","6","Cup","116-008.png"
"","26196","image-button-response","5","null","162641","685c6ca90f751d3aae6b1794","685c6e57114cc28629b6eefd","6856125b77790661c6fcaf58","false","false","House","https://kisumu-drawings.s3-us-west-1.amazonaws.com/45-010.png","8","House","45-010.png"
"","20058","image-button-response","6","null","183217","685c6ca90f751d3aae6b1794","685c6e57114cc28629b6eefd","6856125b77790661c6fcaf58","false","false","Tree","https://kisumu-drawings.s3-us-west-1.amazonaws.com/116-006.png","10","Tree","116-006.png"
"","43130","image-button-response","7","null","226857","685c6ca90f751d3aae6b1794","685c6e57114cc28629b6eefd","6856125b77790661c6fcaf58","false","false","Hat","https://kisumu-drawings.s3-us-west-1.amazonaws.com/15-016.png","7","Hat","15-016.png"
"","38485","image-button-response","8","null","265849","685c6ca90f751d3aae6b1794","685c6e57114cc28629b6eefd","6856125b77790661c6fcaf58","false","false","Watch","https://kisumu-drawings.s3-us-west-1.amazonaws.com/116-007.png","7","Hat","116-007.png"
"","27678","image-button-response","9","null","294034","685c6ca90f751d3aae6b1794","685c6e57114cc28629b6eefd","6856125b77790661c6fcaf58","false","false","Cat","https://kisumu-drawings.s3-us-west-1.amazonaws.com/82-015.png","9","Rabbit","82-015.png"
"","21134","image-button-response","10","null","315675","685c6ca90f751d3aae6b1794","685c6e57114cc28629b6eefd","6856125b77790661c6fcaf58","false","false","Bicycle","https://kisumu-drawings.s3-us-west-1.amazonaws.com/43-007.png","6","Cup","43-007.png"
"","43377","image-button-response","11","null","359570","685c6ca90f751d3aae6b1794","685c6e57114cc28629b6eefd","6856125b77790661c6fcaf58","false","false","Chair","https://kisumu-drawings.s3-us-west-1.amazonaws.com/82-007.png","5","Chair","82-007.png"
"","12518","image-button-response","12","null","372601","685c6ca90f751d3aae6b1794","685c6e57114cc28629b6eefd","6856125b77790661c6fcaf58","false","false","House","https://kisumu-drawings.s3-us-west-1.amazonaws.com/76-016.png","8","House","76-016.png"
"","12214","image-button-response","13","null","385330","685c6ca90f751d3aae6b1794","685c6e57114cc28629b6eefd","6856125b77790661c6fcaf58","false","false","Bird","https://kisumu-drawings.s3-us-west-1.amazonaws.com/82-013.png","2","Bird","82-013.png"
"","32376","image-button-response","14","null","418225","685c6ca90f751d3aae6b1794","685c6e57114cc28629b6eefd","6856125b77790661c6fcaf58","false","false","Bird","https://kisumu-drawings.s3-us-west-1.amazonaws.com/35-005.png","7","Hat","35-005.png"
"","19550","image-button-response","15","null","438282","685c6ca90f751d3aae6b1794","685c6e57114cc28629b6eefd","6856125b77790661c6fcaf58","false","false","Airplane","https://kisumu-drawings.s3-us-west-1.amazonaws.com/81-014.png","0","Airplane","81-014.png"
"","14175","image-button-response","16","null","452962","685c6ca90f751d3aae6b1794","685c6e57114cc28629b6eefd","6856125b77790661c6fcaf58","false","false","Bicycle","https://kisumu-drawings.s3-us-west-1.amazonaws.com/33-006.png","2","Bird","33-006.png"
"","11028","image-button-response","17","null","464498","685c6ca90f751d3aae6b1794","685c6e57114cc28629b6eefd","6856125b77790661c6fcaf58","false","false","Cup","https://kisumu-drawings.s3-us-west-1.amazonaws.com/76-010.png","6","Cup","76-010.png"
"","14427","image-button-response","18","null","479441","685c6ca90f751d3aae6b1794","685c6e57114cc28629b6eefd","6856125b77790661c6fcaf58","false","false","Bicycle","https://kisumu-drawings.s3-us-west-1.amazonaws.com/75-011.png","2","Bird","75-011.png"
"","18796","image-button-response","19","null","498746","685c6ca90f751d3aae6b1794","685c6e57114cc28629b6eefd","6856125b77790661c6fcaf58","false","false","Hat","https://kisumu-drawings.s3-us-west-1.amazonaws.com/83-010.png","7","Hat","83-010.png"
"","11732","image-button-response","20","null","510994","685c6ca90f751d3aae6b1794","685c6e57114cc28629b6eefd","6856125b77790661c6fcaf58","false","false","Rabbit","https://kisumu-drawings.s3-us-west-1.amazonaws.com/36-005.png","4","Cat","36-005.png"
"","25771","image-button-response","21","null","537282","685c6ca90f751d3aae6b1794","685c6e57114cc28629b6eefd","6856125b77790661c6fcaf58","false","false","House","https://kisumu-drawings.s3-us-west-1.amazonaws.com/15-005.png","11","Watch","15-005.png"
"","8621","image-button-response","22","null","546410","685c6ca90f751d3aae6b1794","685c6e57114cc28629b6eefd","6856125b77790661c6fcaf58","false","false","House","https://kisumu-drawings.s3-us-west-1.amazonaws.com/37-014.png","8","House","37-014.png"
"","13927","image-button-response","23","null","560842","685c6ca90f751d3aae6b1794","685c6e57114cc28629b6eefd","6856125b77790661c6fcaf58","false","false","Chair","https://kisumu-drawings.s3-us-west-1.amazonaws.com/116-013.png","5","Chair","116-013.png"
"","9919","image-button-response","24","null","571267","685c6ca90f751d3aae6b1794","685c6e57114cc28629b6eefd","6856125b77790661c6fcaf58","false","false","Cup","https://kisumu-drawings.s3-us-west-1.amazonaws.com/36-008.png","6","Cup","36-008.png"
"","12805","image-button-response","25","null","584587","685c6ca90f751d3aae6b1794","685c6e57114cc28629b6eefd","6856125b77790661c6fcaf58","false","false","Tree","https://kisumu-drawings.s3-us-west-1.amazonaws.com/76-006.png","10","Tree","76-006.png"
"","9222","image-button-response","26","null","594323","685c6ca90f751d3aae6b1794","685c6e57114cc28629b6eefd","6856125b77790661c6fcaf58","false","false","Cat","https://kisumu-drawings.s3-us-west-1.amazonaws.com/44-014.png","4","Cat","44-014.png"
"","9299","image-button-response","27","null","604139","685c6ca90f751d3aae6b1794","685c6e57114cc28629b6eefd","6856125b77790661c6fcaf58","false","false","Watch","https://kisumu-drawings.s3-us-west-1.amazonaws.com/44-006.png","4","Cat","44-006.png"
"","13721","image-button-response","28","null","618371","685c6ca90f751d3aae6b1794","685c6e57114cc28629b6eefd","6856125b77790661c6fcaf58","false","false","Cup","https://kisumu-drawings.s3-us-west-1.amazonaws.com/15-015.png","7","Hat","15-015.png"
"","10314","image-button-response","29","null","629195","685c6ca90f751d3aae6b1794","685c6e57114cc28629b6eefd","6856125b77790661c6fcaf58","false","false","House","https://kisumu-drawings.s3-us-west-1.amazonaws.com/83-012.png","8","House","83-012.png"
"","20622","image-button-response","30","null","650331","685c6ca90f751d3aae6b1794","685c6e57114cc28629b6eefd","6856125b77790661c6fcaf58","false","false","Rabbit","https://kisumu-drawings.s3-us-west-1.amazonaws.com/82-009.png","4","Cat","82-009.png"
"","8420","image-button-response","31","null","659259","685c6ca90f751d3aae6b1794","685c6e57114cc28629b6eefd","6856125b77790661c6fcaf58","false","false","Rabbit","https://kisumu-drawings.s3-us-west-1.amazonaws.com/117-005.png","4","Cat","117-005.png"
"","5691","image-button-response","32","null","665466","685c6ca90f751d3aae6b1794","685c6e57114cc28629b6eefd","6856125b77790661c6fcaf58","false","false","Airplane","https://kisumu-drawings.s3-us-west-1.amazonaws.com/42-016.png","4","Cat","42-016.png"
"","8554","image-button-response","33","null","674531","685c6ca90f751d3aae6b1794","685c6e57114cc28629b6eefd","6856125b77790661c6fcaf58","false","false","Rabbit","https://kisumu-drawings.s3-us-west-1.amazonaws.com/77-009.png","4","Cat","77-009.png"
"","10481","image-button-response","34","null","685523","685c6ca90f751d3aae6b1794","685c6e57114cc28629b6eefd","6856125b77790661c6fcaf58","false","false","Airplane","https://kisumu-drawings.s3-us-west-1.amazonaws.com/13-006.png","9","Rabbit","13-006.png"
"","14377","image-button-response","35","null","700411","685c6ca90f751d3aae6b1794","685c6e57114cc28629b6eefd","6856125b77790661c6fcaf58","false","false","Chair","https://kisumu-drawings.s3-us-west-1.amazonaws.com/36-013.png","3","Car","36-013.png"
"","14291","image-button-response","36","null","715219","685c6ca90f751d3aae6b1794","685c6e57114cc28629b6eefd","6856125b77790661c6fcaf58","false","false","Car","https://kisumu-drawings.s3-us-west-1.amazonaws.com/14-010.png","11","Watch","14-010.png"
"","14205","image-button-response","37","null","729931","685c6ca90f751d3aae6b1794","685c6e57114cc28629b6eefd","6856125b77790661c6fcaf58","false","false","Watch","https://kisumu-drawings.s3-us-west-1.amazonaws.com/76-007.png","2","Bird","76-007.png"
"","5943","image-button-response","38","null","736387","685c6ca90f751d3aae6b1794","685c6e57114cc28629b6eefd","6856125b77790661c6fcaf58","false","false","Tree","https://kisumu-drawings.s3-us-west-1.amazonaws.com/83-013.png","2","Bird","83-013.png"
"","12518","image-button-response","39","null","749412","685c6ca90f751d3aae6b1794","685c6e57114cc28629b6eefd","6856125b77790661c6fcaf58","false","false","Airplane","https://kisumu-drawings.s3-us-west-1.amazonaws.com/33-005.png","10","Tree","33-005.png"
"","11304","image-button-response","40","null","761227","685c6ca90f751d3aae6b1794","685c6e57114cc28629b6eefd","6856125b77790661c6fcaf58","false","false","Chair","https://kisumu-drawings.s3-us-west-1.amazonaws.com/76-009.png","5","Chair","76-009.png"
"","7886","image-button-response","41","null","769620","685c6ca90f751d3aae6b1794","685c6e57114cc28629b6eefd","6856125b77790661c6fcaf58","false","false","Watch","https://kisumu-drawings.s3-us-west-1.amazonaws.com/36-007.png","11","Watch","36-007.png"
"","7828","image-button-response","42","null","777963","685c6ca90f751d3aae6b1794","685c6e57114cc28629b6eefd","6856125b77790661c6fcaf58","false","false","Tree","https://kisumu-drawings.s3-us-west-1.amazonaws.com/44-005.png","10","Tree","44-005.png"
"","9553","image-button-response","43","null","788028","685c6ca90f751d3aae6b1794","685c6e57114cc28629b6eefd","6856125b77790661c6fcaf58","false","false","Cat","https://kisumu-drawings.s3-us-west-1.amazonaws.com/116-012.png","4","Cat","116-012.png"
"","14650","image-button-response","44","null","803195","685c6ca90f751d3aae6b1794","685c6e57114cc28629b6eefd","6856125b77790661c6fcaf58","false","false","Bird","https://kisumu-drawings.s3-us-west-1.amazonaws.com/75-005.png","0","Airplane","75-005.png"
"","10489","image-button-response","45","null","814187","685c6ca90f751d3aae6b1794","685c6e57114cc28629b6eefd","6856125b77790661c6fcaf58","false","false","Cat","https://kisumu-drawings.s3-us-west-1.amazonaws.com/15-014.png","7","Hat","15-014.png"
"","11608","image-button-response","46","null","826299","685c6ca90f751d3aae6b1794","685c6e57114cc28629b6eefd","6856125b77790661c6fcaf58","false","false","Chair","https://kisumu-drawings.s3-us-west-1.amazonaws.com/44-013.png","3","Car","44-013.png"
"","9442","image-button-response","47","null","836260","685c6ca90f751d3aae6b1794","685c6e57114cc28629b6eefd","6856125b77790661c6fcaf58","false","false","Car","https://kisumu-drawings.s3-us-west-1.amazonaws.com/76-014.png","3","Car","76-014.png"
"","7802","image-button-response","48","null","844571","685c6ca90f751d3aae6b1794","685c6e57114cc28629b6eefd","6856125b77790661c6fcaf58","false","false","Bicycle","https://kisumu-drawings.s3-us-west-1.amazonaws.com/115-008.png","1","Bicycle","115-008.png"
"","25336","image-button-response","49","null","870412","685c6ca90f751d3aae6b1794","685c6e57114cc28629b6eefd","6856125b77790661c6fcaf58","false","false","Bird","https://kisumu-drawings.s3-us-west-1.amazonaws.com/116-010.png","11","Watch","116-010.png"
"","9248","image-button-response","50","null","880164","685c6ca90f751d3aae6b1794","685c6e57114cc28629b6eefd","6856125b77790661c6fcaf58","false","false","Tree","https://kisumu-drawings.s3-us-west-1.amazonaws.com/37-016.png","10","Tree","37-016.png"
"","6830","image-button-response","51","null","887508","685c6ca90f751d3aae6b1794","685c6e57114cc28629b6eefd","6856125b77790661c6fcaf58","false","false","Cat","https://kisumu-drawings.s3-us-west-1.amazonaws.com/36-012.png","3","Car","36-012.png"
"","6896","image-button-response","52","null","894908","685c6ca90f751d3aae6b1794","685c6e57114cc28629b6eefd","6856125b77790661c6fcaf58","false","false","Cup","https://kisumu-drawings.s3-us-west-1.amazonaws.com/44-012.png","6","Cup","44-012.png"
"","7577","image-button-response","53","null","902988","685c6ca90f751d3aae6b1794","685c6e57114cc28629b6eefd","6856125b77790661c6fcaf58","false","false","House","https://kisumu-drawings.s3-us-west-1.amazonaws.com/117-014.png","8","House","117-014.png"
"","13631","image-button-response","54","null","917132","685c6ca90f751d3aae6b1794","685c6e57114cc28629b6eefd","6856125b77790661c6fcaf58","false","false","Watch","https://kisumu-drawings.s3-us-west-1.amazonaws.com/15-008.png","10","Tree","15-008.png"
"","12437","image-button-response","55","null","930084","685c6ca90f751d3aae6b1794","685c6e57114cc28629b6eefd","6856125b77790661c6fcaf58","false","false","Hat","https://kisumu-drawings.s3-us-west-1.amazonaws.com/44-015.png","5","Chair","44-015.png"
"","8688","image-button-response","56","null","939284","685c6ca90f751d3aae6b1794","685c6e57114cc28629b6eefd","6856125b77790661c6fcaf58","false","false","Cat","https://kisumu-drawings.s3-us-west-1.amazonaws.com/76-015.png","3","Car","76-015.png"
"","7515","image-button-response","57","null","947308","685c6ca90f751d3aae6b1794","685c6e57114cc28629b6eefd","6856125b77790661c6fcaf58","false","false","Chair","https://kisumu-drawings.s3-us-west-1.amazonaws.com/15-009.png","8","House","15-009.png"
"","10504","image-button-response","58","null","958316","685c6ca90f751d3aae6b1794","685c6e57114cc28629b6eefd","6856125b77790661c6fcaf58","false","false","Rabbit","https://kisumu-drawings.s3-us-west-1.amazonaws.com/45-011.png","4","Cat","45-011.png"
"","10198","image-button-response","59","null","969020","685c6ca90f751d3aae6b1794","685c6e57114cc28629b6eefd","6856125b77790661c6fcaf58","false","false","Tree","https://kisumu-drawings.s3-us-west-1.amazonaws.com/16-015.png","9","Rabbit","16-015.png"
"","10497","image-button-response","60","null","980028","685c6ca90f751d3aae6b1794","685c6e57114cc28629b6eefd","6856125b77790661c6fcaf58","false","false","Bird","https://kisumu-drawings.s3-us-west-1.amazonaws.com/14-013.png","11","Watch","14-013.png"
"","11483","image-button-response","61","null","992020","685c6ca90f751d3aae6b1794","685c6e57114cc28629b6eefd","6856125b77790661c6fcaf58","false","false","Hat","https://kisumu-drawings.s3-us-west-1.amazonaws.com/76-011.png","7","Hat","76-011.png"
"","8108","image-button-response","62","null","1000645","685c6ca90f751d3aae6b1794","685c6e57114cc28629b6eefd","6856125b77790661c6fcaf58","false","false","Cup","https://kisumu-drawings.s3-us-west-1.amazonaws.com/82-016.png","6","Cup","82-016.png"
"","11136","image-button-response","63","null","1012285","685c6ca90f751d3aae6b1794","685c6e57114cc28629b6eefd","6856125b77790661c6fcaf58","false","false","Rabbit","https://kisumu-drawings.s3-us-west-1.amazonaws.com/16-016.png","9","Rabbit","16-016.png"
"","4486","image-button-response","64","null","1017284","685c6ca90f751d3aae6b1794","685c6e57114cc28629b6eefd","6856125b77790661c6fcaf58","true","false","airplane","stimuli/catch_trials/0_airplane_catch.jpg","0","Airplane",""
"","11359","image-button-response","65","null","1029156","685c6ca90f751d3aae6b1794","685c6e57114cc28629b6eefd","6856125b77790661c6fcaf58","false","false","Airplane","https://kisumu-drawings.s3-us-west-1.amazonaws.com/114-011.png","0","Airplane","114-011.png"
"","7567","image-button-response","66","null","1037229","685c6ca90f751d3aae6b1794","685c6e57114cc28629b6eefd","6856125b77790661c6fcaf58","false","false","Airplane","https://kisumu-drawings.s3-us-west-1.amazonaws.com/74-015.png","0","Airplane","74-015.png"
"","5466","image-button-response","67","null","1043204","685c6ca90f751d3aae6b1794","685c6e57114cc28629b6eefd","6856125b77790661c6fcaf58","false","false","Car","https://kisumu-drawings.s3-us-west-1.amazonaws.com/83-009.png","0","Airplane","83-009.png"
"","6360","image-button-response","68","null","1050068","685c6ca90f751d3aae6b1794","685c6e57114cc28629b6eefd","6856125b77790661c6fcaf58","false","false","Bicycle","https://kisumu-drawings.s3-us-west-1.amazonaws.com/81-011.png","1","Bicycle","81-011.png"
"","14706","image-button-response","69","null","1065285","685c6ca90f751d3aae6b1794","685c6e57114cc28629b6eefd","6856125b77790661c6fcaf58","false","false","Hat","https://kisumu-drawings.s3-us-west-1.amazonaws.com/36-009.png","8","House","36-009.png"
"","8112","image-button-response","70","null","1073909","685c6ca90f751d3aae6b1794","685c6e57114cc28629b6eefd","6856125b77790661c6fcaf58","false","false","Car","https://kisumu-drawings.s3-us-west-1.amazonaws.com/116-011.png","3","Car","116-011.png"
"","5936","image-button-response","71","null","1080349","685c6ca90f751d3aae6b1794","685c6e57114cc28629b6eefd","6856125b77790661c6fcaf58","false","false","Bird","https://kisumu-drawings.s3-us-west-1.amazonaws.com/43-009.png","3","Car","43-009.png"
"","9311","image-button-response","72","null","1090173","685c6ca90f751d3aae6b1794","685c6e57114cc28629b6eefd","6856125b77790661c6fcaf58","false","false","Bicycle","https://kisumu-drawings.s3-us-west-1.amazonaws.com/13-010.png","3","Car","13-010.png"
"","8871","image-button-response","73","null","1099557","685c6ca90f751d3aae6b1794","685c6e57114cc28629b6eefd","6856125b77790661c6fcaf58","false","false","Hat","https://kisumu-drawings.s3-us-west-1.amazonaws.com/117-013.png","6","Cup","117-013.png"
"","9137","image-button-response","74","null","1109213","685c6ca90f751d3aae6b1794","685c6e57114cc28629b6eefd","6856125b77790661c6fcaf58","false","false","Watch","https://kisumu-drawings.s3-us-west-1.amazonaws.com/82-008.png","11","Watch","82-008.png"
"","9735","image-button-response","75","null","1119462","685c6ca90f751d3aae6b1794","685c6e57114cc28629b6eefd","6856125b77790661c6fcaf58","false","false","Car","https://kisumu-drawings.s3-us-west-1.amazonaws.com/44-011.png","3","Car","44-011.png"
