"view_history","rt","trial_type","trial_index","plugin_version","time_elapsed","study_id","session_id","participant_id","catch_trial","prep_trial","sketcher_category","stimulus","response","response_category","sketch_id"
"[{""page_index"":0,""viewing_time"":69827},{""page_index"":1,""viewing_time"":7487},{""page_index"":2,""viewing_time"":8904},{""page_index"":3,""viewing_time"":12848}]","99067","instructions","0","null","99095","685c6ca90f751d3aae6b1794","685c73b0544dd313a24be587","685716226974fa5fa6f64ce4","","","","","","",""
"","4970","image-button-response","1","null","105086","685c6ca90f751d3aae6b1794","685c73b0544dd313a24be587","685716226974fa5fa6f64ce4","false","true","car","stimuli/prep_trials/1_car_prep.png","3","Car",""
"","12406","image-button-response","2","null","118014","685c6ca90f751d3aae6b1794","685c73b0544dd313a24be587","685716226974fa5fa6f64ce4","false","true","cat","stimuli/prep_trials/0_cat_prep.jpg","4","Cat",""
"","27658","image-button-response","3","null","146189","685c6ca90f751d3aae6b1794","685c73b0544dd313a24be587","685716226974fa5fa6f64ce4","false","false","Hat","https://kisumu-drawings.s3-us-west-1.amazonaws.com/23-014.png","7","Hat","23-014.png"
"","6749","image-button-response","4","null","153446","685c6ca90f751d3aae6b1794","685c73b0544dd313a24be587","685716226974fa5fa6f64ce4","false","false","Bicycle","https://kisumu-drawings.s3-us-west-1.amazonaws.com/86-010.png","0","Airplane","86-010.png"
"","6154","image-button-response","5","null","160110","685c6ca90f751d3aae6b1794","685c73b0544dd313a24be587","685716226974fa5fa6f64ce4","false","false","House","https://kisumu-drawings.s3-us-west-1.amazonaws.com/2-008.png","8","House","2-008.png"
"","27558","image-button-response","6","null","188182","685c6ca90f751d3aae6b1794","685c73b0544dd313a24be587","685716226974fa5fa6f64ce4","false","false","Tree","https://kisumu-drawings.s3-us-west-1.amazonaws.com/32-008.png","10","Tree","32-008.png"
"","18890","image-button-response","7","null","207582","685c6ca90f751d3aae6b1794","685c73b0544dd313a24be587","685716226974fa5fa6f64ce4","false","false","Car","https://kisumu-drawings.s3-us-west-1.amazonaws.com/101-013.png","3","Car","101-013.png"
"","18836","image-button-response","8","null","226926","685c6ca90f751d3aae6b1794","685c73b0544dd313a24be587","685716226974fa5fa6f64ce4","false","false","Chair","https://kisumu-drawings.s3-us-west-1.amazonaws.com/93-006.png","5","Chair","93-006.png"
"","9200","image-button-response","9","null","236638","685c6ca90f751d3aae6b1794","685c73b0544dd313a24be587","685716226974fa5fa6f64ce4","false","false","Tree","https://kisumu-drawings.s3-us-west-1.amazonaws.com/70-015.png","10","Tree","70-015.png"
"","6520","image-button-response","10","null","243677","685c6ca90f751d3aae6b1794","685c73b0544dd313a24be587","685716226974fa5fa6f64ce4","false","false","Bicycle","https://kisumu-drawings.s3-us-west-1.amazonaws.com/59-012.png","1","Bicycle","59-012.png"
"","7622","image-button-response","11","null","251813","685c6ca90f751d3aae6b1794","685c73b0544dd313a24be587","685716226974fa5fa6f64ce4","false","false","Hat","https://kisumu-drawings.s3-us-west-1.amazonaws.com/68-013.png","7","Hat","68-013.png"
"","4325","image-button-response","12","null","256645","685c6ca90f751d3aae6b1794","685c73b0544dd313a24be587","685716226974fa5fa6f64ce4","false","false","Cup","https://kisumu-drawings.s3-us-west-1.amazonaws.com/91-015.png","6","Cup","91-015.png"
"","4298","image-button-response","13","null","261453","685c6ca90f751d3aae6b1794","685c73b0544dd313a24be587","685716226974fa5fa6f64ce4","false","false","House","https://kisumu-drawings.s3-us-west-1.amazonaws.com/105-016.png","8","House","105-016.png"
"","140576","image-button-response","14","null","402541","685c6ca90f751d3aae6b1794","685c73b0544dd313a24be587","685716226974fa5fa6f64ce4","false","false","Cat","https://kisumu-drawings.s3-us-west-1.amazonaws.com/7-005.png","10","Tree","7-005.png"
"","14090","image-button-response","15","null","417140","685c6ca90f751d3aae6b1794","685c73b0544dd313a24be587","685716226974fa5fa6f64ce4","false","false","Cat","https://kisumu-drawings.s3-us-west-1.amazonaws.com/71-016.png","4","Cat","71-016.png"
"","6262","image-button-response","16","null","423916","685c6ca90f751d3aae6b1794","685c73b0544dd313a24be587","685716226974fa5fa6f64ce4","false","false","Chair","https://kisumu-drawings.s3-us-west-1.amazonaws.com/2-005.png","5","Chair","2-005.png"
"","9599","image-button-response","17","null","434029","685c6ca90f751d3aae6b1794","685c73b0544dd313a24be587","685716226974fa5fa6f64ce4","false","false","Rabbit","https://kisumu-drawings.s3-us-west-1.amazonaws.com/12-015.png","11","Watch","12-015.png"
"","6704","image-button-response","18","null","441252","685c6ca90f751d3aae6b1794","685c73b0544dd313a24be587","685716226974fa5fa6f64ce4","false","false","Tree","https://kisumu-drawings.s3-us-west-1.amazonaws.com/107-010.png","10","Tree","107-010.png"
"","6072","image-button-response","19","null","447836","685c6ca90f751d3aae6b1794","685c73b0544dd313a24be587","685716226974fa5fa6f64ce4","false","false","Airplane","https://kisumu-drawings.s3-us-west-1.amazonaws.com/84-010.png","0","Airplane","84-010.png"
"","2811","image-button-response","20","null","451156","685c6ca90f751d3aae6b1794","685c73b0544dd313a24be587","685716226974fa5fa6f64ce4","false","false","Bird","https://kisumu-drawings.s3-us-west-1.amazonaws.com/27-007.png","0","Airplane","27-007.png"
"","4061","image-button-response","21","null","455725","685c6ca90f751d3aae6b1794","685c73b0544dd313a24be587","685716226974fa5fa6f64ce4","false","false","Cat","https://kisumu-drawings.s3-us-west-1.amazonaws.com/113-006.png","4","Cat","113-006.png"
"","2335","image-button-response","22","null","458564","685c6ca90f751d3aae6b1794","685c73b0544dd313a24be587","685716226974fa5fa6f64ce4","false","false","Airplane","https://kisumu-drawings.s3-us-west-1.amazonaws.com/101-014.png","0","Airplane","101-014.png"
"","1934","image-button-response","23","null","461004","685c6ca90f751d3aae6b1794","685c73b0544dd313a24be587","685716226974fa5fa6f64ce4","false","false","Airplane","https://kisumu-drawings.s3-us-west-1.amazonaws.com/43-005.png","0","Airplane","43-005.png"
"","2607","image-button-response","24","null","464117","685c6ca90f751d3aae6b1794","685c73b0544dd313a24be587","685716226974fa5fa6f64ce4","false","false","House","https://kisumu-drawings.s3-us-west-1.amazonaws.com/46-015.png","8","House","46-015.png"
"","3614","image-button-response","25","null","468245","685c6ca90f751d3aae6b1794","685c73b0544dd313a24be587","685716226974fa5fa6f64ce4","false","false","Watch","https://kisumu-drawings.s3-us-west-1.amazonaws.com/73-006.png","11","Watch","73-006.png"
"","65863","image-button-response","26","null","534620","685c6ca90f751d3aae6b1794","685c73b0544dd313a24be587","685716226974fa5fa6f64ce4","false","false","Rabbit","https://kisumu-drawings.s3-us-west-1.amazonaws.com/48-014.png","7","Hat","48-014.png"
"","8738","image-button-response","27","null","543868","685c6ca90f751d3aae6b1794","685c73b0544dd313a24be587","685716226974fa5fa6f64ce4","false","false","Car","https://kisumu-drawings.s3-us-west-1.amazonaws.com/89-013.png","3","Car","89-013.png"
"","2367","image-button-response","28","null","546741","685c6ca90f751d3aae6b1794","685c73b0544dd313a24be587","685716226974fa5fa6f64ce4","false","false","Cup","https://kisumu-drawings.s3-us-west-1.amazonaws.com/44-012.png","3","Car","44-012.png"
"","9521","image-button-response","29","null","556772","685c6ca90f751d3aae6b1794","685c73b0544dd313a24be587","685716226974fa5fa6f64ce4","false","false","Bicycle","https://kisumu-drawings.s3-us-west-1.amazonaws.com/21-016.png","0","Airplane","21-016.png"
"","12820","image-button-response","30","null","570100","685c6ca90f751d3aae6b1794","685c73b0544dd313a24be587","685716226974fa5fa6f64ce4","false","false","Rabbit","https://kisumu-drawings.s3-us-west-1.amazonaws.com/93-012.png","2","Bird","93-012.png"
"","14083","image-button-response","31","null","584692","685c6ca90f751d3aae6b1794","685c73b0544dd313a24be587","685716226974fa5fa6f64ce4","false","false","Cat","https://kisumu-drawings.s3-us-west-1.amazonaws.com/53-007.png","4","Cat","53-007.png"
"","5664","image-button-response","32","null","590860","685c6ca90f751d3aae6b1794","685c73b0544dd313a24be587","685716226974fa5fa6f64ce4","false","false","Hat","https://kisumu-drawings.s3-us-west-1.amazonaws.com/95-005.png","7","Hat","95-005.png"
"","2755","image-button-response","33","null","594124","685c6ca90f751d3aae6b1794","685c73b0544dd313a24be587","685716226974fa5fa6f64ce4","false","false","Car","https://kisumu-drawings.s3-us-west-1.amazonaws.com/58-010.png","3","Car","58-010.png"
"","8959","image-button-response","34","null","603587","685c6ca90f751d3aae6b1794","685c73b0544dd313a24be587","685716226974fa5fa6f64ce4","false","false","Hat","https://kisumu-drawings.s3-us-west-1.amazonaws.com/13-008.png","11","Watch","13-008.png"
"","4581","image-button-response","35","null","608676","685c6ca90f751d3aae6b1794","685c73b0544dd313a24be587","685716226974fa5fa6f64ce4","false","false","Watch","https://kisumu-drawings.s3-us-west-1.amazonaws.com/12-006.png","0","Airplane","12-006.png"
"","3035","image-button-response","36","null","612228","685c6ca90f751d3aae6b1794","685c73b0544dd313a24be587","685716226974fa5fa6f64ce4","false","false","Cup","https://kisumu-drawings.s3-us-west-1.amazonaws.com/114-008.png","6","Cup","114-008.png"
"","2969","image-button-response","37","null","615716","685c6ca90f751d3aae6b1794","685c73b0544dd313a24be587","685716226974fa5fa6f64ce4","false","false","Watch","https://kisumu-drawings.s3-us-west-1.amazonaws.com/83-005.png","11","Watch","83-005.png"
"","26762","image-button-response","38","null","642995","685c6ca90f751d3aae6b1794","685c73b0544dd313a24be587","685716226974fa5fa6f64ce4","false","false","Chair","https://kisumu-drawings.s3-us-west-1.amazonaws.com/56-010.png","7","Hat","56-010.png"
"","9216","image-button-response","39","null","652723","685c6ca90f751d3aae6b1794","685c73b0544dd313a24be587","685716226974fa5fa6f64ce4","false","false","Cat","https://kisumu-drawings.s3-us-west-1.amazonaws.com/23-006.png","4","Cat","23-006.png"
"","5601","image-button-response","40","null","658836","685c6ca90f751d3aae6b1794","685c73b0544dd313a24be587","685716226974fa5fa6f64ce4","false","false","Rabbit","https://kisumu-drawings.s3-us-west-1.amazonaws.com/70-006.png","9","Rabbit","70-006.png"
"","2653","image-button-response","41","null","662004","685c6ca90f751d3aae6b1794","685c73b0544dd313a24be587","685716226974fa5fa6f64ce4","false","false","Tree","https://kisumu-drawings.s3-us-west-1.amazonaws.com/56-006.png","10","Tree","56-006.png"
"","6960","image-button-response","42","null","669476","685c6ca90f751d3aae6b1794","685c73b0544dd313a24be587","685716226974fa5fa6f64ce4","false","false","Watch","https://kisumu-drawings.s3-us-west-1.amazonaws.com/33-016.png","7","Hat","33-016.png"
"","6333","image-button-response","43","null","676316","685c6ca90f751d3aae6b1794","685c73b0544dd313a24be587","685716226974fa5fa6f64ce4","false","false","Bicycle","https://kisumu-drawings.s3-us-west-1.amazonaws.com/101-016.png","3","Car","101-016.png"
"","5014","image-button-response","44","null","681835","685c6ca90f751d3aae6b1794","685c73b0544dd313a24be587","685716226974fa5fa6f64ce4","false","false","Bicycle","https://kisumu-drawings.s3-us-west-1.amazonaws.com/73-007.png","1","Bicycle","73-007.png"
"","3106","image-button-response","45","null","685460","685c6ca90f751d3aae6b1794","685c73b0544dd313a24be587","685716226974fa5fa6f64ce4","false","false","Chair","https://kisumu-drawings.s3-us-west-1.amazonaws.com/66-014.png","5","Chair","66-014.png"
"","19043","image-button-response","46","null","705012","685c6ca90f751d3aae6b1794","685c73b0544dd313a24be587","685716226974fa5fa6f64ce4","false","false","Tree","https://kisumu-drawings.s3-us-west-1.amazonaws.com/15-007.png","11","Watch","15-007.png"
"","34006","image-button-response","47","null","739531","685c6ca90f751d3aae6b1794","685c73b0544dd313a24be587","685716226974fa5fa6f64ce4","false","false","Car","https://kisumu-drawings.s3-us-west-1.amazonaws.com/71-009.png","6","Cup","71-009.png"
"","6187","image-button-response","48","null","746236","685c6ca90f751d3aae6b1794","685c73b0544dd313a24be587","685716226974fa5fa6f64ce4","false","false","House","https://kisumu-drawings.s3-us-west-1.amazonaws.com/88-010.png","8","House","88-010.png"
"","20887","image-button-response","49","null","767635","685c6ca90f751d3aae6b1794","685c73b0544dd313a24be587","685716226974fa5fa6f64ce4","false","false","Hat","https://kisumu-drawings.s3-us-west-1.amazonaws.com/55-005.png","7","Hat","55-005.png"
"","11753","image-button-response","50","null","779899","685c6ca90f751d3aae6b1794","685c73b0544dd313a24be587","685716226974fa5fa6f64ce4","false","false","Bicycle","https://kisumu-drawings.s3-us-west-1.amazonaws.com/15-012.png","7","Hat","15-012.png"
"","4249","image-button-response","51","null","784659","685c6ca90f751d3aae6b1794","685c73b0544dd313a24be587","685716226974fa5fa6f64ce4","false","false","Bird","https://kisumu-drawings.s3-us-west-1.amazonaws.com/59-009.png","0","Airplane","59-009.png"
"","26515","image-button-response","52","null","811683","685c6ca90f751d3aae6b1794","685c73b0544dd313a24be587","685716226974fa5fa6f64ce4","false","false","Airplane","https://kisumu-drawings.s3-us-west-1.amazonaws.com/23-012.png","8","House","23-012.png"
"","6301","image-button-response","53","null","818491","685c6ca90f751d3aae6b1794","685c73b0544dd313a24be587","685716226974fa5fa6f64ce4","false","false","Chair","https://kisumu-drawings.s3-us-west-1.amazonaws.com/110-012.png","5","Chair","110-012.png"
"","4020","image-button-response","54","null","823019","685c6ca90f751d3aae6b1794","685c73b0544dd313a24be587","685716226974fa5fa6f64ce4","false","false","Bird","https://kisumu-drawings.s3-us-west-1.amazonaws.com/119-005.png","2","Bird","119-005.png"
"","20388","image-button-response","55","null","843923","685c6ca90f751d3aae6b1794","685c73b0544dd313a24be587","685716226974fa5fa6f64ce4","false","false","Tree","https://kisumu-drawings.s3-us-west-1.amazonaws.com/92-015.png","10","Tree","92-015.png"
"","6154","image-button-response","56","null","850587","685c6ca90f751d3aae6b1794","685c73b0544dd313a24be587","685716226974fa5fa6f64ce4","false","false","Cat","https://kisumu-drawings.s3-us-west-1.amazonaws.com/87-006.png","4","Cat","87-006.png"
"","7066","image-button-response","57","null","858163","685c6ca90f751d3aae6b1794","685c73b0544dd313a24be587","685716226974fa5fa6f64ce4","false","false","Rabbit","https://kisumu-drawings.s3-us-west-1.amazonaws.com/26-013.png","10","Tree","26-013.png"
"","5156","image-button-response","58","null","863827","685c6ca90f751d3aae6b1794","685c73b0544dd313a24be587","685716226974fa5fa6f64ce4","false","false","Car","https://kisumu-drawings.s3-us-west-1.amazonaws.com/26-007.png","3","Car","26-007.png"
"","3674","image-button-response","59","null","868012","685c6ca90f751d3aae6b1794","685c73b0544dd313a24be587","685716226974fa5fa6f64ce4","false","false","Watch","https://kisumu-drawings.s3-us-west-1.amazonaws.com/55-010.png","11","Watch","55-010.png"
"","3477","image-button-response","60","null","871995","685c6ca90f751d3aae6b1794","685c73b0544dd313a24be587","685716226974fa5fa6f64ce4","false","false","Cup","https://kisumu-drawings.s3-us-west-1.amazonaws.com/23-013.png","6","Cup","23-013.png"
"","3401","image-button-response","61","null","875915","685c6ca90f751d3aae6b1794","685c73b0544dd313a24be587","685716226974fa5fa6f64ce4","false","false","Car","https://kisumu-drawings.s3-us-west-1.amazonaws.com/2-016.png","3","Car","2-016.png"
"","6674","image-button-response","62","null","883098","685c6ca90f751d3aae6b1794","685c73b0544dd313a24be587","685716226974fa5fa6f64ce4","false","false","Watch","https://kisumu-drawings.s3-us-west-1.amazonaws.com/120-014.png","5","Chair","120-014.png"
"","5252","image-button-response","63","null","888866","685c6ca90f751d3aae6b1794","685c73b0544dd313a24be587","685716226974fa5fa6f64ce4","false","false","Cup","https://kisumu-drawings.s3-us-west-1.amazonaws.com/61-016.png","6","Cup","61-016.png"
"","2551","image-button-response","64","null","891923","685c6ca90f751d3aae6b1794","685c73b0544dd313a24be587","685716226974fa5fa6f64ce4","false","false","Airplane","https://kisumu-drawings.s3-us-west-1.amazonaws.com/67-014.png","0","Airplane","67-014.png"
"","2675","image-button-response","65","null","895107","685c6ca90f751d3aae6b1794","685c73b0544dd313a24be587","685716226974fa5fa6f64ce4","false","false","House","https://kisumu-drawings.s3-us-west-1.amazonaws.com/72-012.png","8","House","72-012.png"
"","3173","image-button-response","66","null","898787","685c6ca90f751d3aae6b1794","685c73b0544dd313a24be587","685716226974fa5fa6f64ce4","false","false","Cup","https://kisumu-drawings.s3-us-west-1.amazonaws.com/12-005.png","6","Cup","12-005.png"
"","3715","image-button-response","67","null","903010","685c6ca90f751d3aae6b1794","685c73b0544dd313a24be587","685716226974fa5fa6f64ce4","false","false","Airplane","https://kisumu-drawings.s3-us-west-1.amazonaws.com/20-016.png","2","Bird","20-016.png"
"","3090","image-button-response","68","null","906611","685c6ca90f751d3aae6b1794","685c73b0544dd313a24be587","685716226974fa5fa6f64ce4","false","false","House","https://kisumu-drawings.s3-us-west-1.amazonaws.com/38-008.png","8","House","38-008.png"
"","6804","image-button-response","69","null","913923","685c6ca90f751d3aae6b1794","685c73b0544dd313a24be587","685716226974fa5fa6f64ce4","false","false","Bird","https://kisumu-drawings.s3-us-west-1.amazonaws.com/77-011.png","2","Bird","77-011.png"
"","12130","image-button-response","70","null","926563","685c6ca90f751d3aae6b1794","685c73b0544dd313a24be587","685716226974fa5fa6f64ce4","false","false","Rabbit","https://kisumu-drawings.s3-us-west-1.amazonaws.com/104-012.png","9","Rabbit","104-012.png"
"","8545","image-button-response","71","null","935626","685c6ca90f751d3aae6b1794","685c73b0544dd313a24be587","685716226974fa5fa6f64ce4","false","false","Bird","https://kisumu-drawings.s3-us-west-1.amazonaws.com/14-013.png","7","Hat","14-013.png"
"","41344","image-button-response","72","null","977475","685c6ca90f751d3aae6b1794","685c73b0544dd313a24be587","685716226974fa5fa6f64ce4","false","false","Bird","https://kisumu-drawings.s3-us-west-1.amazonaws.com/98-013.png","10","Tree","98-013.png"
"","3237","image-button-response","73","null","981226","685c6ca90f751d3aae6b1794","685c73b0544dd313a24be587","685716226974fa5fa6f64ce4","true","false","airplane","stimuli/catch_trials/0_airplane_catch.jpg","0","Airplane",""
"","4949","image-button-response","74","null","986691","685c6ca90f751d3aae6b1794","685c73b0544dd313a24be587","685716226974fa5fa6f64ce4","false","false","Hat","https://kisumu-drawings.s3-us-west-1.amazonaws.com/113-008.png","7","Hat","113-008.png"
"","6895","image-button-response","75","null","994098","685c6ca90f751d3aae6b1794","685c73b0544dd313a24be587","685716226974fa5fa6f64ce4","false","false","Chair","https://kisumu-drawings.s3-us-west-1.amazonaws.com/39-010.png","5","Chair","39-010.png"
