"view_history","rt","trial_type","trial_index","plugin_version","time_elapsed","study_id","session_id","participant_id","catch_trial","prep_trial","sketcher_category","stimulus","response","response_category","sketch_id"
"[{""page_index"":0,""viewing_time"":17926},{""page_index"":1,""viewing_time"":8912},{""page_index"":2,""viewing_time"":7040},{""page_index"":3,""viewing_time"":17928}]","51806","instructions","0","null","51823","685c6ca90f751d3aae6b1794","685c6e1e9c8e8faced75b8c2","6859f08555adfe687185b981","","","","","","",""
"","5518","image-button-response","1","null","58352","685c6ca90f751d3aae6b1794","685c6e1e9c8e8faced75b8c2","6859f08555adfe687185b981","false","true","car","stimuli/prep_trials/1_car_prep.png","3","Car",""
"","3900","image-button-response","2","null","62767","685c6ca90f751d3aae6b1794","685c6e1e9c8e8faced75b8c2","6859f08555adfe687185b981","false","true","cat","stimuli/prep_trials/0_cat_prep.jpg","4","Cat",""
"","17846","image-button-response","3","null","81119","685c6ca90f751d3aae6b1794","685c6e1e9c8e8faced75b8c2","6859f08555adfe687185b981","false","false","Cat","https://kisumu-drawings.s3-us-west-1.amazonaws.com/74-009.png","8","House","74-009.png"
"","14047","image-button-response","4","null","95680","685c6ca90f751d3aae6b1794","685c6e1e9c8e8faced75b8c2","6859f08555adfe687185b981","false","false","Tree","https://kisumu-drawings.s3-us-west-1.amazonaws.com/81-009.png","10","Tree","81-009.png"
"","11635","image-button-response","5","null","107826","685c6ca90f751d3aae6b1794","685c6e1e9c8e8faced75b8c2","6859f08555adfe687185b981","false","false","Bird","https://kisumu-drawings.s3-us-west-1.amazonaws.com/114-015.png","2","Bird","114-015.png"
"","9623","image-button-response","6","null","117959","685c6ca90f751d3aae6b1794","685c6e1e9c8e8faced75b8c2","6859f08555adfe687185b981","false","false","Cup","https://kisumu-drawings.s3-us-west-1.amazonaws.com/115-007.png","6","Cup","115-007.png"
"","10378","image-button-response","7","null","128840","685c6ca90f751d3aae6b1794","685c6e1e9c8e8faced75b8c2","6859f08555adfe687185b981","false","false","Cup","https://kisumu-drawings.s3-us-west-1.amazonaws.com/35-010.png","6","Cup","35-010.png"
"","16647","image-button-response","8","null","145999","685c6ca90f751d3aae6b1794","685c6e1e9c8e8faced75b8c2","6859f08555adfe687185b981","false","false","Cup","https://kisumu-drawings.s3-us-west-1.amazonaws.com/14-015.png","7","Hat","14-015.png"
"","11050","image-button-response","9","null","157560","685c6ca90f751d3aae6b1794","685c6e1e9c8e8faced75b8c2","6859f08555adfe687185b981","false","false","Bicycle","https://kisumu-drawings.s3-us-west-1.amazonaws.com/113-011.png","1","Bicycle","113-011.png"
"","13281","image-button-response","10","null","171351","685c6ca90f751d3aae6b1794","685c6e1e9c8e8faced75b8c2","6859f08555adfe687185b981","false","false","Cat","https://kisumu-drawings.s3-us-west-1.amazonaws.com/33-012.png","2","Bird","33-012.png"
"","7004","image-button-response","11","null","178871","685c6ca90f751d3aae6b1794","685c6e1e9c8e8faced75b8c2","6859f08555adfe687185b981","false","false","Bird","https://kisumu-drawings.s3-us-west-1.amazonaws.com/41-008.png","0","Airplane","41-008.png"
"","13626","image-button-response","12","null","193000","685c6ca90f751d3aae6b1794","685c6e1e9c8e8faced75b8c2","6859f08555adfe687185b981","false","false","House","https://kisumu-drawings.s3-us-west-1.amazonaws.com/81-015.png","8","House","81-015.png"
"","6567","image-button-response","13","null","200072","685c6ca90f751d3aae6b1794","685c6e1e9c8e8faced75b8c2","6859f08555adfe687185b981","false","false","Cup","https://kisumu-drawings.s3-us-west-1.amazonaws.com/43-013.png","6","Cup","43-013.png"
"","1549","image-button-response","14","null","202135","685c6ca90f751d3aae6b1794","685c6e1e9c8e8faced75b8c2","6859f08555adfe687185b981","true","false","airplane","stimuli/catch_trials/0_airplane_catch.jpg","0","Airplane",""
"","16559","image-button-response","15","null","219207","685c6ca90f751d3aae6b1794","685c6e1e9c8e8faced75b8c2","6859f08555adfe687185b981","false","false","Rabbit","https://kisumu-drawings.s3-us-west-1.amazonaws.com/14-006.png","5","Chair","14-006.png"
"","7777","image-button-response","16","null","227504","685c6ca90f751d3aae6b1794","685c6e1e9c8e8faced75b8c2","6859f08555adfe687185b981","false","false","Cup","https://kisumu-drawings.s3-us-west-1.amazonaws.com/100-008.png","6","Cup","100-008.png"
"","11282","image-button-response","17","null","239288","685c6ca90f751d3aae6b1794","685c6e1e9c8e8faced75b8c2","6859f08555adfe687185b981","false","false","Watch","https://kisumu-drawings.s3-us-west-1.amazonaws.com/35-014.png","11","Watch","35-014.png"
"","10091","image-button-response","18","null","249884","685c6ca90f751d3aae6b1794","685c6e1e9c8e8faced75b8c2","6859f08555adfe687185b981","false","false","Bicycle","https://kisumu-drawings.s3-us-west-1.amazonaws.com/72-008.png","5","Chair","72-008.png"
"","8181","image-button-response","19","null","258575","685c6ca90f751d3aae6b1794","685c6e1e9c8e8faced75b8c2","6859f08555adfe687185b981","false","false","Cat","https://kisumu-drawings.s3-us-west-1.amazonaws.com/100-011.png","4","Cat","100-011.png"
"","14641","image-button-response","20","null","273727","685c6ca90f751d3aae6b1794","685c6e1e9c8e8faced75b8c2","6859f08555adfe687185b981","false","false","Rabbit","https://kisumu-drawings.s3-us-west-1.amazonaws.com/35-016.png","8","House","35-016.png"
"","13662","image-button-response","21","null","287903","685c6ca90f751d3aae6b1794","685c6e1e9c8e8faced75b8c2","6859f08555adfe687185b981","false","false","Bicycle","https://kisumu-drawings.s3-us-west-1.amazonaws.com/55-006.png","5","Chair","55-006.png"
"","9968","image-button-response","22","null","298383","685c6ca90f751d3aae6b1794","685c6e1e9c8e8faced75b8c2","6859f08555adfe687185b981","false","false","Airplane","https://kisumu-drawings.s3-us-west-1.amazonaws.com/96-009.png","0","Airplane","96-009.png"
"","14085","image-button-response","23","null","312983","685c6ca90f751d3aae6b1794","685c6e1e9c8e8faced75b8c2","6859f08555adfe687185b981","false","false","Airplane","https://kisumu-drawings.s3-us-west-1.amazonaws.com/109-015.png","0","Airplane","109-015.png"
"","7050","image-button-response","24","null","320543","685c6ca90f751d3aae6b1794","685c6e1e9c8e8faced75b8c2","6859f08555adfe687185b981","false","false","Bird","https://kisumu-drawings.s3-us-west-1.amazonaws.com/32-012.png","9","Rabbit","32-012.png"
"","8778","image-button-response","25","null","329832","685c6ca90f751d3aae6b1794","685c6e1e9c8e8faced75b8c2","6859f08555adfe687185b981","false","false","Hat","https://kisumu-drawings.s3-us-west-1.amazonaws.com/33-015.png","7","Hat","33-015.png"
"","9864","image-button-response","26","null","340200","685c6ca90f751d3aae6b1794","685c6e1e9c8e8faced75b8c2","6859f08555adfe687185b981","false","false","Cat","https://kisumu-drawings.s3-us-west-1.amazonaws.com/114-013.png","2","Bird","114-013.png"
"","10785","image-button-response","27","null","351496","685c6ca90f751d3aae6b1794","685c6e1e9c8e8faced75b8c2","6859f08555adfe687185b981","false","false","Chair","https://kisumu-drawings.s3-us-west-1.amazonaws.com/33-013.png","7","Hat","33-013.png"
"","10768","image-button-response","28","null","362775","685c6ca90f751d3aae6b1794","685c6e1e9c8e8faced75b8c2","6859f08555adfe687185b981","false","false","Tree","https://kisumu-drawings.s3-us-west-1.amazonaws.com/14-007.png","9","Rabbit","14-007.png"
"","10415","image-button-response","29","null","373705","685c6ca90f751d3aae6b1794","685c6e1e9c8e8faced75b8c2","6859f08555adfe687185b981","false","false","Tree","https://kisumu-drawings.s3-us-west-1.amazonaws.com/115-016.png","10","Tree","115-016.png"
"","13445","image-button-response","30","null","387655","685c6ca90f751d3aae6b1794","685c6e1e9c8e8faced75b8c2","6859f08555adfe687185b981","false","false","Cat","https://kisumu-drawings.s3-us-west-1.amazonaws.com/42-008.png","4","Cat","42-008.png"
"","9108","image-button-response","31","null","397271","685c6ca90f751d3aae6b1794","685c6e1e9c8e8faced75b8c2","6859f08555adfe687185b981","false","false","Car","https://kisumu-drawings.s3-us-west-1.amazonaws.com/12-010.png","3","Car","12-010.png"
"","15627","image-button-response","32","null","413415","685c6ca90f751d3aae6b1794","685c6e1e9c8e8faced75b8c2","6859f08555adfe687185b981","false","false","Rabbit","https://kisumu-drawings.s3-us-west-1.amazonaws.com/81-016.png","4","Cat","81-016.png"
"","1023","image-button-response","33","null","414952","685c6ca90f751d3aae6b1794","685c6e1e9c8e8faced75b8c2","6859f08555adfe687185b981","false","false","Car","https://kisumu-drawings.s3-us-west-1.amazonaws.com/114-012.png","4","Cat","114-012.png"
"","7103","image-button-response","34","null","422568","685c6ca90f751d3aae6b1794","685c6e1e9c8e8faced75b8c2","6859f08555adfe687185b981","false","false","Tree","https://kisumu-drawings.s3-us-west-1.amazonaws.com/43-012.png","10","Tree","43-012.png"
"","7835","image-button-response","35","null","430919","685c6ca90f751d3aae6b1794","685c6e1e9c8e8faced75b8c2","6859f08555adfe687185b981","false","false","Bird","https://kisumu-drawings.s3-us-west-1.amazonaws.com/99-014.png","0","Airplane","99-014.png"
"","13550","image-button-response","36","null","444992","685c6ca90f751d3aae6b1794","685c6e1e9c8e8faced75b8c2","6859f08555adfe687185b981","false","false","Watch","https://kisumu-drawings.s3-us-west-1.amazonaws.com/75-006.png","7","Hat","75-006.png"
"","8740","image-button-response","37","null","454248","685c6ca90f751d3aae6b1794","685c6e1e9c8e8faced75b8c2","6859f08555adfe687185b981","false","false","Tree","https://kisumu-drawings.s3-us-west-1.amazonaws.com/35-015.png","10","Tree","35-015.png"
"","9377","image-button-response","38","null","464136","685c6ca90f751d3aae6b1794","685c6e1e9c8e8faced75b8c2","6859f08555adfe687185b981","false","false","Watch","https://kisumu-drawings.s3-us-west-1.amazonaws.com/114-009.png","11","Watch","114-009.png"
"","7888","image-button-response","39","null","472535","685c6ca90f751d3aae6b1794","685c6e1e9c8e8faced75b8c2","6859f08555adfe687185b981","false","false","Watch","https://kisumu-drawings.s3-us-west-1.amazonaws.com/14-008.png","10","Tree","14-008.png"
"","10208","image-button-response","40","null","483248","685c6ca90f751d3aae6b1794","685c6e1e9c8e8faced75b8c2","6859f08555adfe687185b981","false","false","Chair","https://kisumu-drawings.s3-us-west-1.amazonaws.com/14-009.png","2","Bird","14-009.png"
"","11242","image-button-response","41","null","495000","685c6ca90f751d3aae6b1794","685c6e1e9c8e8faced75b8c2","6859f08555adfe687185b981","false","false","Bird","https://kisumu-drawings.s3-us-west-1.amazonaws.com/12-009.png","3","Car","12-009.png"
"","10811","image-button-response","42","null","506320","685c6ca90f751d3aae6b1794","685c6e1e9c8e8faced75b8c2","6859f08555adfe687185b981","false","false","House","https://kisumu-drawings.s3-us-west-1.amazonaws.com/115-010.png","8","House","115-010.png"
"","12971","image-button-response","43","null","519807","685c6ca90f751d3aae6b1794","685c6e1e9c8e8faced75b8c2","6859f08555adfe687185b981","false","false","Hat","https://kisumu-drawings.s3-us-west-1.amazonaws.com/81-006.png","7","Hat","81-006.png"
"","10259","image-button-response","44","null","530570","685c6ca90f751d3aae6b1794","685c6e1e9c8e8faced75b8c2","6859f08555adfe687185b981","false","false","Airplane","https://kisumu-drawings.s3-us-west-1.amazonaws.com/69-013.png","0","Airplane","69-013.png"
"","9918","image-button-response","45","null","541000","685c6ca90f751d3aae6b1794","685c6e1e9c8e8faced75b8c2","6859f08555adfe687185b981","false","false","Rabbit","https://kisumu-drawings.s3-us-west-1.amazonaws.com/75-016.png","4","Cat","75-016.png"
"","12236","image-button-response","46","null","553745","685c6ca90f751d3aae6b1794","685c6e1e9c8e8faced75b8c2","6859f08555adfe687185b981","false","false","Car","https://kisumu-drawings.s3-us-west-1.amazonaws.com/81-005.png","3","Car","81-005.png"
"","11910","image-button-response","47","null","566168","685c6ca90f751d3aae6b1794","685c6e1e9c8e8faced75b8c2","6859f08555adfe687185b981","false","false","Chair","https://kisumu-drawings.s3-us-west-1.amazonaws.com/75-008.png","5","Chair","75-008.png"
"","9068","image-button-response","48","null","575753","685c6ca90f751d3aae6b1794","685c6e1e9c8e8faced75b8c2","6859f08555adfe687185b981","false","false","House","https://kisumu-drawings.s3-us-west-1.amazonaws.com/74-012.png","8","House","74-012.png"
"","10486","image-button-response","49","null","586745","685c6ca90f751d3aae6b1794","685c6e1e9c8e8faced75b8c2","6859f08555adfe687185b981","false","false","Cup","https://kisumu-drawings.s3-us-west-1.amazonaws.com/75-012.png","6","Cup","75-012.png"
"","13142","image-button-response","50","null","600400","685c6ca90f751d3aae6b1794","685c6e1e9c8e8faced75b8c2","6859f08555adfe687185b981","false","false","Car","https://kisumu-drawings.s3-us-west-1.amazonaws.com/74-016.png","3","Car","74-016.png"
"","11046","image-button-response","51","null","611961","685c6ca90f751d3aae6b1794","685c6e1e9c8e8faced75b8c2","6859f08555adfe687185b981","false","false","Hat","https://kisumu-drawings.s3-us-west-1.amazonaws.com/75-013.png","10","Tree","75-013.png"
"","7564","image-button-response","52","null","620040","685c6ca90f751d3aae6b1794","685c6e1e9c8e8faced75b8c2","6859f08555adfe687185b981","false","false","Watch","https://kisumu-drawings.s3-us-west-1.amazonaws.com/100-016.png","11","Watch","100-016.png"
"","8396","image-button-response","53","null","628952","685c6ca90f751d3aae6b1794","685c6e1e9c8e8faced75b8c2","6859f08555adfe687185b981","false","false","Bicycle","https://kisumu-drawings.s3-us-west-1.amazonaws.com/99-013.png","1","Bicycle","99-013.png"
"","5154","image-button-response","54","null","634615","685c6ca90f751d3aae6b1794","685c6e1e9c8e8faced75b8c2","6859f08555adfe687185b981","false","false","Hat","https://kisumu-drawings.s3-us-west-1.amazonaws.com/43-006.png","7","Hat","43-006.png"
"","4586","image-button-response","55","null","639720","685c6ca90f751d3aae6b1794","685c6e1e9c8e8faced75b8c2","6859f08555adfe687185b981","false","false","Rabbit","https://kisumu-drawings.s3-us-west-1.amazonaws.com/43-015.png","4","Cat","43-015.png"
"","9058","image-button-response","56","null","649288","685c6ca90f751d3aae6b1794","685c6e1e9c8e8faced75b8c2","6859f08555adfe687185b981","false","false","Bicycle","https://kisumu-drawings.s3-us-west-1.amazonaws.com/9-008.png","5","Chair","9-008.png"
"","9976","image-button-response","57","null","659780","685c6ca90f751d3aae6b1794","685c6e1e9c8e8faced75b8c2","6859f08555adfe687185b981","false","false","Chair","https://kisumu-drawings.s3-us-west-1.amazonaws.com/81-012.png","5","Chair","81-012.png"
"","7847","image-button-response","58","null","668136","685c6ca90f751d3aae6b1794","685c6e1e9c8e8faced75b8c2","6859f08555adfe687185b981","false","false","Hat","https://kisumu-drawings.s3-us-west-1.amazonaws.com/115-009.png","3","Car","115-009.png"
"","5408","image-button-response","59","null","674058","685c6ca90f751d3aae6b1794","685c6e1e9c8e8faced75b8c2","6859f08555adfe687185b981","false","false","Car","https://kisumu-drawings.s3-us-west-1.amazonaws.com/42-006.png","9","Rabbit","42-006.png"
"","9130","image-button-response","60","null","683700","685c6ca90f751d3aae6b1794","685c6e1e9c8e8faced75b8c2","6859f08555adfe687185b981","false","false","Airplane","https://kisumu-drawings.s3-us-west-1.amazonaws.com/7-009.png","10","Tree","7-009.png"
"","8310","image-button-response","61","null","692520","685c6ca90f751d3aae6b1794","685c6e1e9c8e8faced75b8c2","6859f08555adfe687185b981","false","false","Bird","https://kisumu-drawings.s3-us-west-1.amazonaws.com/73-008.png","4","Cat","73-008.png"
"","8856","image-button-response","62","null","701881","685c6ca90f751d3aae6b1794","685c6e1e9c8e8faced75b8c2","6859f08555adfe687185b981","false","false","Watch","https://kisumu-drawings.s3-us-west-1.amazonaws.com/43-008.png","7","Hat","43-008.png"
"","13353","image-button-response","63","null","715752","685c6ca90f751d3aae6b1794","685c6e1e9c8e8faced75b8c2","6859f08555adfe687185b981","false","false","Chair","https://kisumu-drawings.s3-us-west-1.amazonaws.com/115-013.png","2","Bird","115-013.png"
"","8142","image-button-response","64","null","724400","685c6ca90f751d3aae6b1794","685c6e1e9c8e8faced75b8c2","6859f08555adfe687185b981","false","false","Tree","https://kisumu-drawings.s3-us-west-1.amazonaws.com/75-015.png","10","Tree","75-015.png"
"","8857","image-button-response","65","null","733772","685c6ca90f751d3aae6b1794","685c6e1e9c8e8faced75b8c2","6859f08555adfe687185b981","false","false","Car","https://kisumu-drawings.s3-us-west-1.amazonaws.com/33-009.png","3","Car","33-009.png"
"","8215","image-button-response","66","null","742504","685c6ca90f751d3aae6b1794","685c6e1e9c8e8faced75b8c2","6859f08555adfe687185b981","false","false","Bicycle","https://kisumu-drawings.s3-us-west-1.amazonaws.com/29-005.png","10","Tree","29-005.png"
"","8431","image-button-response","67","null","751441","685c6ca90f751d3aae6b1794","685c6e1e9c8e8faced75b8c2","6859f08555adfe687185b981","false","false","House","https://kisumu-drawings.s3-us-west-1.amazonaws.com/35-011.png","8","House","35-011.png"
"","10111","image-button-response","68","null","762056","685c6ca90f751d3aae6b1794","685c6e1e9c8e8faced75b8c2","6859f08555adfe687185b981","false","false","Airplane","https://kisumu-drawings.s3-us-west-1.amazonaws.com/52-015.png","10","Tree","52-015.png"
"","11238","image-button-response","69","null","773808","685c6ca90f751d3aae6b1794","685c6e1e9c8e8faced75b8c2","6859f08555adfe687185b981","false","false","Cat","https://kisumu-drawings.s3-us-west-1.amazonaws.com/13-013.png","2","Bird","13-013.png"
"","5728","image-button-response","70","null","780048","685c6ca90f751d3aae6b1794","685c6e1e9c8e8faced75b8c2","6859f08555adfe687185b981","false","false","Airplane","https://kisumu-drawings.s3-us-west-1.amazonaws.com/28-006.png","0","Airplane","28-006.png"
"","5226","image-button-response","71","null","785776","685c6ca90f751d3aae6b1794","685c6e1e9c8e8faced75b8c2","6859f08555adfe687185b981","false","false","House","https://kisumu-drawings.s3-us-west-1.amazonaws.com/43-014.png","8","House","43-014.png"
"","7992","image-button-response","72","null","794281","685c6ca90f751d3aae6b1794","685c6e1e9c8e8faced75b8c2","6859f08555adfe687185b981","false","false","Rabbit","https://kisumu-drawings.s3-us-west-1.amazonaws.com/115-014.png","9","Rabbit","115-014.png"
"","10219","image-button-response","73","null","805008","685c6ca90f751d3aae6b1794","685c6e1e9c8e8faced75b8c2","6859f08555adfe687185b981","false","false","House","https://kisumu-drawings.s3-us-west-1.amazonaws.com/14-016.png","11","Watch","14-016.png"
"","14716","image-button-response","74","null","820240","685c6ca90f751d3aae6b1794","685c6e1e9c8e8faced75b8c2","6859f08555adfe687185b981","false","false","Hat","https://kisumu-drawings.s3-us-west-1.amazonaws.com/13-008.png","3","Car","13-008.png"
"","5938","image-button-response","75","null","826680","685c6ca90f751d3aae6b1794","685c6e1e9c8e8faced75b8c2","6859f08555adfe687185b981","false","false","Chair","https://kisumu-drawings.s3-us-west-1.amazonaws.com/43-011.png","5","Chair","43-011.png"
