"view_history","rt","trial_type","trial_index","plugin_version","time_elapsed","study_id","session_id","participant_id","catch_trial","prep_trial","sketcher_category","stimulus","response","response_category","sketch_id"
"[{""page_index"":0,""viewing_time"":14307},{""page_index"":1,""viewing_time"":2344},{""page_index"":2,""viewing_time"":3056},{""page_index"":3,""viewing_time"":5176}]","24883","instructions","0","null","24921","685c6ca90f751d3aae6b1794","685c6e26d19390d40ccc5ffe","6859b1687219b7eb7d3a5d22","","","","","","",""
"","4002","image-button-response","1","null","29945","685c6ca90f751d3aae6b1794","685c6e26d19390d40ccc5ffe","6859b1687219b7eb7d3a5d22","false","true","car","stimuli/prep_trials/1_car_prep.png","3","Car",""
"","4907","image-button-response","2","null","35360","685c6ca90f751d3aae6b1794","685c6e26d19390d40ccc5ffe","6859b1687219b7eb7d3a5d22","false","true","cat","stimuli/prep_trials/0_cat_prep.jpg","4","Cat",""
"","19390","image-button-response","3","null","55256","685c6ca90f751d3aae6b1794","685c6e26d19390d40ccc5ffe","6859b1687219b7eb7d3a5d22","false","false","Bicycle","https://kisumu-drawings.s3-us-west-1.amazonaws.com/113-011.png","1","Bicycle","113-011.png"
"","8009","image-button-response","4","null","63776","685c6ca90f751d3aae6b1794","685c6e26d19390d40ccc5ffe","6859b1687219b7eb7d3a5d22","false","false","Cup","https://kisumu-drawings.s3-us-west-1.amazonaws.com/75-012.png","6","Cup","75-012.png"
"","6031","image-button-response","5","null","70312","685c6ca90f751d3aae6b1794","685c6e26d19390d40ccc5ffe","6859b1687219b7eb7d3a5d22","false","false","Watch","https://kisumu-drawings.s3-us-west-1.amazonaws.com/115-011.png","11","Watch","115-011.png"
"","7383","image-button-response","6","null","78207","685c6ca90f751d3aae6b1794","685c6e26d19390d40ccc5ffe","6859b1687219b7eb7d3a5d22","false","false","House","https://kisumu-drawings.s3-us-west-1.amazonaws.com/82-012.png","8","House","82-012.png"
"","5313","image-button-response","7","null","84031","685c6ca90f751d3aae6b1794","685c6e26d19390d40ccc5ffe","6859b1687219b7eb7d3a5d22","true","false","airplane","stimuli/catch_trials/0_airplane_catch.jpg","0","Airplane",""
"","7386","image-button-response","8","null","91944","685c6ca90f751d3aae6b1794","685c6e26d19390d40ccc5ffe","6859b1687219b7eb7d3a5d22","false","false","Tree","https://kisumu-drawings.s3-us-west-1.amazonaws.com/81-009.png","10","Tree","81-009.png"
"","7413","image-button-response","9","null","99863","685c6ca90f751d3aae6b1794","685c6e26d19390d40ccc5ffe","6859b1687219b7eb7d3a5d22","false","false","Airplane","https://kisumu-drawings.s3-us-west-1.amazonaws.com/111-009.png","0","Airplane","111-009.png"
"","15709","image-button-response","10","null","116079","685c6ca90f751d3aae6b1794","685c6e26d19390d40ccc5ffe","6859b1687219b7eb7d3a5d22","false","false","Cup","https://kisumu-drawings.s3-us-west-1.amazonaws.com/43-013.png","6","Cup","43-013.png"
"","11151","image-button-response","11","null","127735","685c6ca90f751d3aae6b1794","685c6e26d19390d40ccc5ffe","6859b1687219b7eb7d3a5d22","false","false","Airplane","https://kisumu-drawings.s3-us-west-1.amazonaws.com/71-012.png","10","Tree","71-012.png"
"","5930","image-button-response","12","null","134175","685c6ca90f751d3aae6b1794","685c6e26d19390d40ccc5ffe","6859b1687219b7eb7d3a5d22","false","false","Chair","https://kisumu-drawings.s3-us-west-1.amazonaws.com/35-007.png","5","Chair","35-007.png"
"","7545","image-button-response","13","null","142223","685c6ca90f751d3aae6b1794","685c6e26d19390d40ccc5ffe","6859b1687219b7eb7d3a5d22","false","false","Tree","https://kisumu-drawings.s3-us-west-1.amazonaws.com/43-012.png","10","Tree","43-012.png"
"","12687","image-button-response","14","null","155415","685c6ca90f751d3aae6b1794","685c6e26d19390d40ccc5ffe","6859b1687219b7eb7d3a5d22","false","false","Bicycle","https://kisumu-drawings.s3-us-west-1.amazonaws.com/55-006.png","5","Chair","55-006.png"
"","25864","image-button-response","15","null","181783","685c6ca90f751d3aae6b1794","685c6e26d19390d40ccc5ffe","6859b1687219b7eb7d3a5d22","false","false","Airplane","https://kisumu-drawings.s3-us-west-1.amazonaws.com/53-009.png","10","Tree","53-009.png"
"","23346","image-button-response","16","null","205639","685c6ca90f751d3aae6b1794","685c6e26d19390d40ccc5ffe","6859b1687219b7eb7d3a5d22","false","false","Rabbit","https://kisumu-drawings.s3-us-west-1.amazonaws.com/35-016.png","2","Bird","35-016.png"
"","9070","image-button-response","17","null","215215","685c6ca90f751d3aae6b1794","685c6e26d19390d40ccc5ffe","6859b1687219b7eb7d3a5d22","false","false","House","https://kisumu-drawings.s3-us-west-1.amazonaws.com/35-011.png","8","House","35-011.png"
"","19468","image-button-response","18","null","235191","685c6ca90f751d3aae6b1794","685c6e26d19390d40ccc5ffe","6859b1687219b7eb7d3a5d22","false","false","Cup","https://kisumu-drawings.s3-us-west-1.amazonaws.com/14-015.png","7","Hat","14-015.png"
"","7626","image-button-response","19","null","243327","685c6ca90f751d3aae6b1794","685c6e26d19390d40ccc5ffe","6859b1687219b7eb7d3a5d22","false","false","House","https://kisumu-drawings.s3-us-west-1.amazonaws.com/75-007.png","8","House","75-007.png"
"","12644","image-button-response","20","null","256487","685c6ca90f751d3aae6b1794","685c6e26d19390d40ccc5ffe","6859b1687219b7eb7d3a5d22","false","false","Rabbit","https://kisumu-drawings.s3-us-west-1.amazonaws.com/44-016.png","4","Cat","44-016.png"
"","8514","image-button-response","21","null","265510","685c6ca90f751d3aae6b1794","685c6e26d19390d40ccc5ffe","6859b1687219b7eb7d3a5d22","false","false","Bicycle","https://kisumu-drawings.s3-us-west-1.amazonaws.com/31-006.png","1","Bicycle","31-006.png"
"","10497","image-button-response","22","null","276511","685c6ca90f751d3aae6b1794","685c6e26d19390d40ccc5ffe","6859b1687219b7eb7d3a5d22","false","false","Bird","https://kisumu-drawings.s3-us-west-1.amazonaws.com/41-008.png","0","Airplane","41-008.png"
"","22984","image-button-response","23","null","299999","685c6ca90f751d3aae6b1794","685c6e26d19390d40ccc5ffe","6859b1687219b7eb7d3a5d22","false","false","Airplane","https://kisumu-drawings.s3-us-west-1.amazonaws.com/29-016.png","10","Tree","29-016.png"
"","10870","image-button-response","24","null","311374","685c6ca90f751d3aae6b1794","685c6e26d19390d40ccc5ffe","6859b1687219b7eb7d3a5d22","false","false","Cat","https://kisumu-drawings.s3-us-west-1.amazonaws.com/43-010.png","4","Cat","43-010.png"
"","8866","image-button-response","25","null","320758","685c6ca90f751d3aae6b1794","685c6e26d19390d40ccc5ffe","6859b1687219b7eb7d3a5d22","false","false","Rabbit","https://kisumu-drawings.s3-us-west-1.amazonaws.com/76-005.png","4","Cat","76-005.png"
"","20906","image-button-response","26","null","342182","685c6ca90f751d3aae6b1794","685c6e26d19390d40ccc5ffe","6859b1687219b7eb7d3a5d22","false","false","Car","https://kisumu-drawings.s3-us-west-1.amazonaws.com/33-009.png","10","Tree","33-009.png"
"","14324","image-button-response","27","null","357014","685c6ca90f751d3aae6b1794","685c6e26d19390d40ccc5ffe","6859b1687219b7eb7d3a5d22","false","false","Watch","https://kisumu-drawings.s3-us-west-1.amazonaws.com/43-008.png","7","Hat","43-008.png"
"","9472","image-button-response","28","null","366990","685c6ca90f751d3aae6b1794","685c6e26d19390d40ccc5ffe","6859b1687219b7eb7d3a5d22","false","false","Watch","https://kisumu-drawings.s3-us-west-1.amazonaws.com/81-010.png","0","Airplane","81-010.png"
"","20901","image-button-response","29","null","388398","685c6ca90f751d3aae6b1794","685c6e26d19390d40ccc5ffe","6859b1687219b7eb7d3a5d22","false","false","Hat","https://kisumu-drawings.s3-us-west-1.amazonaws.com/35-013.png","7","Hat","35-013.png"
"","9315","image-button-response","30","null","398222","685c6ca90f751d3aae6b1794","685c6e26d19390d40ccc5ffe","6859b1687219b7eb7d3a5d22","false","false","Tree","https://kisumu-drawings.s3-us-west-1.amazonaws.com/36-006.png","2","Bird","36-006.png"
"","11250","image-button-response","31","null","409990","685c6ca90f751d3aae6b1794","685c6e26d19390d40ccc5ffe","6859b1687219b7eb7d3a5d22","false","false","Rabbit","https://kisumu-drawings.s3-us-west-1.amazonaws.com/15-006.png","5","Chair","15-006.png"
"","9683","image-button-response","32","null","420190","685c6ca90f751d3aae6b1794","685c6e26d19390d40ccc5ffe","6859b1687219b7eb7d3a5d22","false","false","Bird","https://kisumu-drawings.s3-us-west-1.amazonaws.com/99-014.png","2","Bird","99-014.png"
"","7983","image-button-response","33","null","428677","685c6ca90f751d3aae6b1794","685c6e26d19390d40ccc5ffe","6859b1687219b7eb7d3a5d22","false","false","Chair","https://kisumu-drawings.s3-us-west-1.amazonaws.com/81-012.png","5","Chair","81-012.png"
"","3910","image-button-response","34","null","433094","685c6ca90f751d3aae6b1794","685c6e26d19390d40ccc5ffe","6859b1687219b7eb7d3a5d22","false","false","Cup","https://kisumu-drawings.s3-us-west-1.amazonaws.com/115-007.png","6","Cup","115-007.png"
"","6958","image-button-response","35","null","440558","685c6ca90f751d3aae6b1794","685c6e26d19390d40ccc5ffe","6859b1687219b7eb7d3a5d22","false","false","Bird","https://kisumu-drawings.s3-us-west-1.amazonaws.com/114-015.png","2","Bird","114-015.png"
"","5665","image-button-response","36","null","446733","685c6ca90f751d3aae6b1794","685c6e26d19390d40ccc5ffe","6859b1687219b7eb7d3a5d22","false","false","Cat","https://kisumu-drawings.s3-us-west-1.amazonaws.com/100-011.png","4","Cat","100-011.png"
"","8306","image-button-response","37","null","455558","685c6ca90f751d3aae6b1794","685c6e26d19390d40ccc5ffe","6859b1687219b7eb7d3a5d22","false","false","Bicycle","https://kisumu-drawings.s3-us-west-1.amazonaws.com/72-008.png","5","Chair","72-008.png"
"","7107","image-button-response","38","null","463173","685c6ca90f751d3aae6b1794","685c6e26d19390d40ccc5ffe","6859b1687219b7eb7d3a5d22","false","false","Cat","https://kisumu-drawings.s3-us-west-1.amazonaws.com/115-012.png","4","Cat","115-012.png"
"","15682","image-button-response","39","null","479365","685c6ca90f751d3aae6b1794","685c6e26d19390d40ccc5ffe","6859b1687219b7eb7d3a5d22","false","false","Watch","https://kisumu-drawings.s3-us-west-1.amazonaws.com/75-006.png","7","Hat","75-006.png"
"","13293","image-button-response","40","null","493173","685c6ca90f751d3aae6b1794","685c6e26d19390d40ccc5ffe","6859b1687219b7eb7d3a5d22","false","false","Tree","https://kisumu-drawings.s3-us-west-1.amazonaws.com/15-007.png","10","Tree","15-007.png"
"","6634","image-button-response","41","null","500317","685c6ca90f751d3aae6b1794","685c6e26d19390d40ccc5ffe","6859b1687219b7eb7d3a5d22","false","false","Tree","https://kisumu-drawings.s3-us-west-1.amazonaws.com/115-016.png","10","Tree","115-016.png"
"","33385","image-button-response","42","null","534221","685c6ca90f751d3aae6b1794","685c6e26d19390d40ccc5ffe","6859b1687219b7eb7d3a5d22","false","false","Hat","https://kisumu-drawings.s3-us-west-1.amazonaws.com/115-009.png","7","Hat","115-009.png"
"","11417","image-button-response","43","null","546141","685c6ca90f751d3aae6b1794","685c6e26d19390d40ccc5ffe","6859b1687219b7eb7d3a5d22","false","false","Tree","https://kisumu-drawings.s3-us-west-1.amazonaws.com/75-015.png","10","Tree","75-015.png"
"","7238","image-button-response","44","null","553885","685c6ca90f751d3aae6b1794","685c6e26d19390d40ccc5ffe","6859b1687219b7eb7d3a5d22","false","false","Bird","https://kisumu-drawings.s3-us-west-1.amazonaws.com/12-009.png","10","Tree","12-009.png"
"","3622","image-button-response","45","null","558013","685c6ca90f751d3aae6b1794","685c6e26d19390d40ccc5ffe","6859b1687219b7eb7d3a5d22","false","false","Chair","https://kisumu-drawings.s3-us-west-1.amazonaws.com/75-008.png","5","Chair","75-008.png"
"","9593","image-button-response","46","null","568125","685c6ca90f751d3aae6b1794","685c6e26d19390d40ccc5ffe","6859b1687219b7eb7d3a5d22","false","false","Bird","https://kisumu-drawings.s3-us-west-1.amazonaws.com/32-012.png","9","Rabbit","32-012.png"
"","10512","image-button-response","47","null","579141","685c6ca90f751d3aae6b1794","685c6e26d19390d40ccc5ffe","6859b1687219b7eb7d3a5d22","false","false","Hat","https://kisumu-drawings.s3-us-west-1.amazonaws.com/13-008.png","10","Tree","13-008.png"
"","11073","image-button-response","48","null","590733","685c6ca90f751d3aae6b1794","685c6e26d19390d40ccc5ffe","6859b1687219b7eb7d3a5d22","false","false","Chair","https://kisumu-drawings.s3-us-west-1.amazonaws.com/115-013.png","5","Chair","115-013.png"
"","5956","image-button-response","49","null","597197","685c6ca90f751d3aae6b1794","685c6e26d19390d40ccc5ffe","6859b1687219b7eb7d3a5d22","false","false","House","https://kisumu-drawings.s3-us-west-1.amazonaws.com/43-014.png","8","House","43-014.png"
"","6518","image-button-response","50","null","604229","685c6ca90f751d3aae6b1794","685c6e26d19390d40ccc5ffe","6859b1687219b7eb7d3a5d22","false","false","Rabbit","https://kisumu-drawings.s3-us-west-1.amazonaws.com/115-014.png","9","Rabbit","115-014.png"
"","8275","image-button-response","51","null","613021","685c6ca90f751d3aae6b1794","685c6e26d19390d40ccc5ffe","6859b1687219b7eb7d3a5d22","false","false","Cat","https://kisumu-drawings.s3-us-west-1.amazonaws.com/14-014.png","7","Hat","14-014.png"
"","8395","image-button-response","52","null","621925","685c6ca90f751d3aae6b1794","685c6e26d19390d40ccc5ffe","6859b1687219b7eb7d3a5d22","false","false","Cup","https://kisumu-drawings.s3-us-west-1.amazonaws.com/35-010.png","6","Cup","35-010.png"
"","6848","image-button-response","53","null","629277","685c6ca90f751d3aae6b1794","685c6e26d19390d40ccc5ffe","6859b1687219b7eb7d3a5d22","false","false","Cup","https://kisumu-drawings.s3-us-west-1.amazonaws.com/81-008.png","6","Cup","81-008.png"
"","14151","image-button-response","54","null","643933","685c6ca90f751d3aae6b1794","685c6e26d19390d40ccc5ffe","6859b1687219b7eb7d3a5d22","false","false","Hat","https://kisumu-drawings.s3-us-west-1.amazonaws.com/43-006.png","7","Hat","43-006.png"
"","14281","image-button-response","55","null","658724","685c6ca90f751d3aae6b1794","685c6e26d19390d40ccc5ffe","6859b1687219b7eb7d3a5d22","false","false","Cat","https://kisumu-drawings.s3-us-west-1.amazonaws.com/33-012.png","2","Bird","33-012.png"
"","10071","image-button-response","56","null","669308","685c6ca90f751d3aae6b1794","685c6e26d19390d40ccc5ffe","6859b1687219b7eb7d3a5d22","false","false","Bicycle","https://kisumu-drawings.s3-us-west-1.amazonaws.com/98-006.png","1","Bicycle","98-006.png"
"","7894","image-button-response","57","null","677716","685c6ca90f751d3aae6b1794","685c6e26d19390d40ccc5ffe","6859b1687219b7eb7d3a5d22","false","false","Car","https://kisumu-drawings.s3-us-west-1.amazonaws.com/81-005.png","3","Car","81-005.png"
"","7193","image-button-response","58","null","685412","685c6ca90f751d3aae6b1794","685c6e26d19390d40ccc5ffe","6859b1687219b7eb7d3a5d22","false","false","Car","https://kisumu-drawings.s3-us-west-1.amazonaws.com/74-016.png","3","Car","74-016.png"
"","16262","image-button-response","59","null","702180","685c6ca90f751d3aae6b1794","685c6e26d19390d40ccc5ffe","6859b1687219b7eb7d3a5d22","false","false","Airplane","https://kisumu-drawings.s3-us-west-1.amazonaws.com/9-009.png","5","Chair","9-009.png"
"","7229","image-button-response","60","null","709924","685c6ca90f751d3aae6b1794","685c6e26d19390d40ccc5ffe","6859b1687219b7eb7d3a5d22","false","false","Watch","https://kisumu-drawings.s3-us-west-1.amazonaws.com/35-014.png","11","Watch","35-014.png"
"","3862","image-button-response","61","null","714300","685c6ca90f751d3aae6b1794","685c6e26d19390d40ccc5ffe","6859b1687219b7eb7d3a5d22","false","false","Car","https://kisumu-drawings.s3-us-west-1.amazonaws.com/12-010.png","3","Car","12-010.png"
"","7136","image-button-response","62","null","721948","685c6ca90f751d3aae6b1794","685c6e26d19390d40ccc5ffe","6859b1687219b7eb7d3a5d22","false","false","Hat","https://kisumu-drawings.s3-us-west-1.amazonaws.com/81-006.png","7","Hat","81-006.png"
"","11626","image-button-response","63","null","734084","685c6ca90f751d3aae6b1794","685c6e26d19390d40ccc5ffe","6859b1687219b7eb7d3a5d22","false","false","Car","https://kisumu-drawings.s3-us-west-1.amazonaws.com/114-012.png","3","Car","114-012.png"
"","7652","image-button-response","64","null","742252","685c6ca90f751d3aae6b1794","685c6e26d19390d40ccc5ffe","6859b1687219b7eb7d3a5d22","false","false","House","https://kisumu-drawings.s3-us-west-1.amazonaws.com/116-015.png","8","House","116-015.png"
"","11923","image-button-response","65","null","754692","685c6ca90f751d3aae6b1794","685c6e26d19390d40ccc5ffe","6859b1687219b7eb7d3a5d22","false","false","Bird","https://kisumu-drawings.s3-us-west-1.amazonaws.com/73-008.png","2","Bird","73-008.png"
"","8573","image-button-response","66","null","763780","685c6ca90f751d3aae6b1794","685c6e26d19390d40ccc5ffe","6859b1687219b7eb7d3a5d22","false","false","Cat","https://kisumu-drawings.s3-us-west-1.amazonaws.com/75-014.png","9","Rabbit","75-014.png"
"","9178","image-button-response","67","null","773476","685c6ca90f751d3aae6b1794","685c6e26d19390d40ccc5ffe","6859b1687219b7eb7d3a5d22","false","false","Watch","https://kisumu-drawings.s3-us-west-1.amazonaws.com/14-008.png","10","Tree","14-008.png"
"","19056","image-button-response","68","null","793036","685c6ca90f751d3aae6b1794","685c6e26d19390d40ccc5ffe","6859b1687219b7eb7d3a5d22","false","false","Bicycle","https://kisumu-drawings.s3-us-west-1.amazonaws.com/10-007.png","10","Tree","10-007.png"
"","4996","image-button-response","69","null","798548","685c6ca90f751d3aae6b1794","685c6e26d19390d40ccc5ffe","6859b1687219b7eb7d3a5d22","false","false","Chair","https://kisumu-drawings.s3-us-west-1.amazonaws.com/43-011.png","10","Tree","43-011.png"
"","9245","image-button-response","70","null","808300","685c6ca90f751d3aae6b1794","685c6e26d19390d40ccc5ffe","6859b1687219b7eb7d3a5d22","false","false","Rabbit","https://kisumu-drawings.s3-us-west-1.amazonaws.com/81-016.png","4","Cat","81-016.png"
"","13466","image-button-response","71","null","822284","685c6ca90f751d3aae6b1794","685c6e26d19390d40ccc5ffe","6859b1687219b7eb7d3a5d22","false","false","Hat","https://kisumu-drawings.s3-us-west-1.amazonaws.com/75-013.png","10","Tree","75-013.png"
"","13214","image-button-response","72","null","836004","685c6ca90f751d3aae6b1794","685c6e26d19390d40ccc5ffe","6859b1687219b7eb7d3a5d22","false","false","Chair","https://kisumu-drawings.s3-us-west-1.amazonaws.com/14-009.png","10","Tree","14-009.png"
"","7513","image-button-response","73","null","844019","685c6ca90f751d3aae6b1794","685c6e26d19390d40ccc5ffe","6859b1687219b7eb7d3a5d22","false","false","Airplane","https://kisumu-drawings.s3-us-west-1.amazonaws.com/97-013.png","0","Airplane","97-013.png"
"","13247","image-button-response","74","null","857779","685c6ca90f751d3aae6b1794","685c6e26d19390d40ccc5ffe","6859b1687219b7eb7d3a5d22","false","false","House","https://kisumu-drawings.s3-us-west-1.amazonaws.com/14-016.png","7","Hat","14-016.png"
"","23032","image-button-response","75","null","881323","685c6ca90f751d3aae6b1794","685c6e26d19390d40ccc5ffe","6859b1687219b7eb7d3a5d22","false","false","Car","https://kisumu-drawings.s3-us-west-1.amazonaws.com/42-006.png","3","Car","42-006.png"
