"view_history","rt","trial_type","trial_index","plugin_version","time_elapsed","study_id","session_id","participant_id","catch_trial","prep_trial","sketcher_category","stimulus","response","response_category","sketch_id"
"[{""page_index"":0,""viewing_time"":4080},{""page_index"":1,""viewing_time"":5895},{""page_index"":2,""viewing_time"":4104},{""page_index"":3,""viewing_time"":1520}]","15600","instructions","0","null","15636","685c6ca90f751d3aae6b1794","685c6db489f3b16f64fd1e3d","6859c8075495eedd660477c0","","","","","","",""
"","3980","image-button-response","1","null","20628","685c6ca90f751d3aae6b1794","685c6db489f3b16f64fd1e3d","6859c8075495eedd660477c0","false","true","car","stimuli/prep_trials/1_car_prep.png","3","Car",""
"","3326","image-button-response","2","null","24467","685c6ca90f751d3aae6b1794","685c6db489f3b16f64fd1e3d","6859c8075495eedd660477c0","false","true","cat","stimuli/prep_trials/0_cat_prep.jpg","4","Cat",""
"","12581","image-button-response","3","null","37556","685c6ca90f751d3aae6b1794","685c6db489f3b16f64fd1e3d","6859c8075495eedd660477c0","false","false","Tree","https://kisumu-drawings.s3-us-west-1.amazonaws.com/62-016.png","10","Tree","62-016.png"
"","19725","image-button-response","4","null","57788","685c6ca90f751d3aae6b1794","685c6db489f3b16f64fd1e3d","6859c8075495eedd660477c0","false","false","Cat","https://kisumu-drawings.s3-us-west-1.amazonaws.com/60-013.png","4","Cat","60-013.png"
"","6653","image-button-response","5","null","64947","685c6ca90f751d3aae6b1794","685c6db489f3b16f64fd1e3d","6859c8075495eedd660477c0","false","false","Cup","https://kisumu-drawings.s3-us-west-1.amazonaws.com/62-012.png","6","Cup","62-012.png"
"","6157","image-button-response","6","null","71611","685c6ca90f751d3aae6b1794","685c6db489f3b16f64fd1e3d","6859c8075495eedd660477c0","false","false","Airplane","https://kisumu-drawings.s3-us-west-1.amazonaws.com/85-013.png","0","Airplane","85-013.png"
"","8871","image-button-response","7","null","80996","685c6ca90f751d3aae6b1794","685c6db489f3b16f64fd1e3d","6859c8075495eedd660477c0","false","false","Bicycle","https://kisumu-drawings.s3-us-west-1.amazonaws.com/62-008.png","1","Bicycle","62-008.png"
"","15155","image-button-response","8","null","96668","685c6ca90f751d3aae6b1794","685c6db489f3b16f64fd1e3d","6859c8075495eedd660477c0","false","false","Bicycle","https://kisumu-drawings.s3-us-west-1.amazonaws.com/56-007.png","3","Car","56-007.png"
"","7073","image-button-response","9","null","104244","685c6ca90f751d3aae6b1794","685c6db489f3b16f64fd1e3d","6859c8075495eedd660477c0","false","false","Rabbit","https://kisumu-drawings.s3-us-west-1.amazonaws.com/62-006.png","4","Cat","62-006.png"
"","5040","image-button-response","10","null","109787","685c6ca90f751d3aae6b1794","685c6db489f3b16f64fd1e3d","6859c8075495eedd660477c0","false","false","House","https://kisumu-drawings.s3-us-west-1.amazonaws.com/62-014.png","8","House","62-014.png"
"","8477","image-button-response","11","null","118771","685c6ca90f751d3aae6b1794","685c6db489f3b16f64fd1e3d","6859c8075495eedd660477c0","false","false","Cat","https://kisumu-drawings.s3-us-west-1.amazonaws.com/62-011.png","4","Cat","62-011.png"
"","5804","image-button-response","12","null","125083","685c6ca90f751d3aae6b1794","685c6db489f3b16f64fd1e3d","6859c8075495eedd660477c0","true","false","airplane","stimuli/catch_trials/0_airplane_catch.jpg","0","Airplane",""
"","15982","image-button-response","13","null","141571","685c6ca90f751d3aae6b1794","685c6db489f3b16f64fd1e3d","6859c8075495eedd660477c0","false","false","Watch","https://kisumu-drawings.s3-us-west-1.amazonaws.com/56-005.png","7","Hat","56-005.png"
"","7436","image-button-response","14","null","149523","685c6ca90f751d3aae6b1794","685c6db489f3b16f64fd1e3d","6859c8075495eedd660477c0","false","false","Chair","https://kisumu-drawings.s3-us-west-1.amazonaws.com/85-009.png","5","Chair","85-009.png"
"","3364","image-button-response","15","null","153395","685c6ca90f751d3aae6b1794","685c6db489f3b16f64fd1e3d","6859c8075495eedd660477c0","false","false","Airplane","https://kisumu-drawings.s3-us-west-1.amazonaws.com/22-012.png","0","Airplane","22-012.png"
"","6696","image-button-response","16","null","160595","685c6ca90f751d3aae6b1794","685c6db489f3b16f64fd1e3d","6859c8075495eedd660477c0","false","false","House","https://kisumu-drawings.s3-us-west-1.amazonaws.com/20-010.png","2","Bird","20-010.png"
"","8220","image-button-response","17","null","169323","685c6ca90f751d3aae6b1794","685c6db489f3b16f64fd1e3d","6859c8075495eedd660477c0","false","false","Hat","https://kisumu-drawings.s3-us-west-1.amazonaws.com/56-014.png","7","Hat","56-014.png"
"","9041","image-button-response","18","null","178883","685c6ca90f751d3aae6b1794","685c6db489f3b16f64fd1e3d","6859c8075495eedd660477c0","false","false","Hat","https://kisumu-drawings.s3-us-west-1.amazonaws.com/102-007.png","7","Hat","102-007.png"
"","6001","image-button-response","19","null","185395","685c6ca90f751d3aae6b1794","685c6db489f3b16f64fd1e3d","6859c8075495eedd660477c0","false","false","Cup","https://kisumu-drawings.s3-us-west-1.amazonaws.com/56-011.png","2","Bird","56-011.png"
"","12204","image-button-response","20","null","198109","685c6ca90f751d3aae6b1794","685c6db489f3b16f64fd1e3d","6859c8075495eedd660477c0","false","false","Watch","https://kisumu-drawings.s3-us-west-1.amazonaws.com/20-014.png","0","Airplane","20-014.png"
"","10015","image-button-response","21","null","208629","685c6ca90f751d3aae6b1794","685c6db489f3b16f64fd1e3d","6859c8075495eedd660477c0","false","false","Chair","https://kisumu-drawings.s3-us-west-1.amazonaws.com/102-010.png","5","Chair","102-010.png"
"","6911","image-button-response","22","null","216051","685c6ca90f751d3aae6b1794","685c6db489f3b16f64fd1e3d","6859c8075495eedd660477c0","false","false","House","https://kisumu-drawings.s3-us-west-1.amazonaws.com/56-015.png","7","Hat","56-015.png"
"","20049","image-button-response","23","null","236603","685c6ca90f751d3aae6b1794","685c6db489f3b16f64fd1e3d","6859c8075495eedd660477c0","false","false","Rabbit","https://kisumu-drawings.s3-us-west-1.amazonaws.com/22-016.png","10","Tree","22-016.png"
"","6065","image-button-response","24","null","243179","685c6ca90f751d3aae6b1794","685c6db489f3b16f64fd1e3d","6859c8075495eedd660477c0","false","false","Cat","https://kisumu-drawings.s3-us-west-1.amazonaws.com/102-012.png","4","Cat","102-012.png"
"","3552","image-button-response","25","null","247235","685c6ca90f751d3aae6b1794","685c6db489f3b16f64fd1e3d","6859c8075495eedd660477c0","false","false","Bird","https://kisumu-drawings.s3-us-west-1.amazonaws.com/85-007.png","2","Bird","85-007.png"
"","8207","image-button-response","26","null","255955","685c6ca90f751d3aae6b1794","685c6db489f3b16f64fd1e3d","6859c8075495eedd660477c0","false","false","Hat","https://kisumu-drawings.s3-us-west-1.amazonaws.com/62-015.png","7","Hat","62-015.png"
"","8715","image-button-response","27","null","265179","685c6ca90f751d3aae6b1794","685c6db489f3b16f64fd1e3d","6859c8075495eedd660477c0","false","false","Chair","https://kisumu-drawings.s3-us-west-1.amazonaws.com/22-006.png","5","Chair","22-006.png"
"","13234","image-button-response","28","null","278915","685c6ca90f751d3aae6b1794","685c6db489f3b16f64fd1e3d","6859c8075495eedd660477c0","false","false","Hat","https://kisumu-drawings.s3-us-west-1.amazonaws.com/20-006.png","7","Hat","20-006.png"
"","10853","image-button-response","29","null","290283","685c6ca90f751d3aae6b1794","685c6db489f3b16f64fd1e3d","6859c8075495eedd660477c0","false","false","Chair","https://kisumu-drawings.s3-us-west-1.amazonaws.com/20-013.png","5","Chair","20-013.png"
"","15841","image-button-response","30","null","306627","685c6ca90f751d3aae6b1794","685c6db489f3b16f64fd1e3d","6859c8075495eedd660477c0","false","false","Cat","https://kisumu-drawings.s3-us-west-1.amazonaws.com/22-005.png","4","Cat","22-005.png"
"","6942","image-button-response","31","null","314075","685c6ca90f751d3aae6b1794","685c6db489f3b16f64fd1e3d","6859c8075495eedd660477c0","false","false","Hat","https://kisumu-drawings.s3-us-west-1.amazonaws.com/22-008.png","2","Bird","22-008.png"
"","3986","image-button-response","32","null","318563","685c6ca90f751d3aae6b1794","685c6db489f3b16f64fd1e3d","6859c8075495eedd660477c0","false","false","Cup","https://kisumu-drawings.s3-us-west-1.amazonaws.com/85-014.png","6","Cup","85-014.png"
"","4123","image-button-response","33","null","323195","685c6ca90f751d3aae6b1794","685c6db489f3b16f64fd1e3d","6859c8075495eedd660477c0","false","false","Bird","https://kisumu-drawings.s3-us-west-1.amazonaws.com/102-013.png","2","Bird","102-013.png"
"","4406","image-button-response","34","null","328115","685c6ca90f751d3aae6b1794","685c6db489f3b16f64fd1e3d","6859c8075495eedd660477c0","false","false","Bicycle","https://kisumu-drawings.s3-us-west-1.amazonaws.com/20-015.png","2","Bird","20-015.png"
"","2361","image-button-response","35","null","330987","685c6ca90f751d3aae6b1794","685c6db489f3b16f64fd1e3d","6859c8075495eedd660477c0","false","false","Car","https://kisumu-drawings.s3-us-west-1.amazonaws.com/62-007.png","3","Car","62-007.png"
"","6940","image-button-response","36","null","338435","685c6ca90f751d3aae6b1794","685c6db489f3b16f64fd1e3d","6859c8075495eedd660477c0","false","false","Watch","https://kisumu-drawings.s3-us-west-1.amazonaws.com/85-012.png","2","Bird","85-012.png"
"","3619","image-button-response","37","null","342563","685c6ca90f751d3aae6b1794","685c6db489f3b16f64fd1e3d","6859c8075495eedd660477c0","false","false","Bird","https://kisumu-drawings.s3-us-west-1.amazonaws.com/20-005.png","2","Bird","20-005.png"
"","3255","image-button-response","38","null","346331","685c6ca90f751d3aae6b1794","685c6db489f3b16f64fd1e3d","6859c8075495eedd660477c0","false","false","Cat","https://kisumu-drawings.s3-us-west-1.amazonaws.com/85-008.png","3","Car","85-008.png"
"","4490","image-button-response","39","null","351331","685c6ca90f751d3aae6b1794","685c6db489f3b16f64fd1e3d","6859c8075495eedd660477c0","false","false","Chair","https://kisumu-drawings.s3-us-west-1.amazonaws.com/62-013.png","5","Chair","62-013.png"
"","8106","image-button-response","40","null","359939","685c6ca90f751d3aae6b1794","685c6db489f3b16f64fd1e3d","6859c8075495eedd660477c0","false","false","Car","https://kisumu-drawings.s3-us-west-1.amazonaws.com/85-005.png","3","Car","85-005.png"
"","5664","image-button-response","41","null","366107","685c6ca90f751d3aae6b1794","685c6db489f3b16f64fd1e3d","6859c8075495eedd660477c0","false","false","Cup","https://kisumu-drawings.s3-us-west-1.amazonaws.com/22-015.png","6","Cup","22-015.png"
"","6778","image-button-response","42","null","373403","685c6ca90f751d3aae6b1794","685c6db489f3b16f64fd1e3d","6859c8075495eedd660477c0","false","false","Car","https://kisumu-drawings.s3-us-west-1.amazonaws.com/22-009.png","3","Car","22-009.png"
"","6827","image-button-response","43","null","380739","685c6ca90f751d3aae6b1794","685c6db489f3b16f64fd1e3d","6859c8075495eedd660477c0","false","false","Bird","https://kisumu-drawings.s3-us-west-1.amazonaws.com/22-011.png","0","Airplane","22-011.png"
"","6850","image-button-response","44","null","388091","685c6ca90f751d3aae6b1794","685c6db489f3b16f64fd1e3d","6859c8075495eedd660477c0","false","false","Airplane","https://kisumu-drawings.s3-us-west-1.amazonaws.com/62-009.png","0","Airplane","62-009.png"
"","5321","image-button-response","45","null","393915","685c6ca90f751d3aae6b1794","685c6db489f3b16f64fd1e3d","6859c8075495eedd660477c0","false","false","Airplane","https://kisumu-drawings.s3-us-west-1.amazonaws.com/20-016.png","2","Bird","20-016.png"
"","6988","image-button-response","46","null","401411","685c6ca90f751d3aae6b1794","685c6db489f3b16f64fd1e3d","6859c8075495eedd660477c0","false","false","House","https://kisumu-drawings.s3-us-west-1.amazonaws.com/102-006.png","8","House","102-006.png"
"","6634","image-button-response","47","null","408555","685c6ca90f751d3aae6b1794","685c6db489f3b16f64fd1e3d","6859c8075495eedd660477c0","false","false","Hat","https://kisumu-drawings.s3-us-west-1.amazonaws.com/85-015.png","7","Hat","85-015.png"
"","4979","image-button-response","48","null","414051","685c6ca90f751d3aae6b1794","685c6db489f3b16f64fd1e3d","6859c8075495eedd660477c0","false","false","Airplane","https://kisumu-drawings.s3-us-west-1.amazonaws.com/56-009.png","0","Airplane","56-009.png"
"","6518","image-button-response","49","null","421075","685c6ca90f751d3aae6b1794","685c6db489f3b16f64fd1e3d","6859c8075495eedd660477c0","false","false","Bicycle","https://kisumu-drawings.s3-us-west-1.amazonaws.com/22-007.png","1","Bicycle","22-007.png"
"","13199","image-button-response","50","null","434779","685c6ca90f751d3aae6b1794","685c6db489f3b16f64fd1e3d","6859c8075495eedd660477c0","false","false","Tree","https://kisumu-drawings.s3-us-west-1.amazonaws.com/85-011.png","10","Tree","85-011.png"
"","5693","image-button-response","51","null","440979","685c6ca90f751d3aae6b1794","685c6db489f3b16f64fd1e3d","6859c8075495eedd660477c0","false","false","Tree","https://kisumu-drawings.s3-us-west-1.amazonaws.com/22-014.png","10","Tree","22-014.png"
"","8352","image-button-response","52","null","449853","685c6ca90f751d3aae6b1794","685c6db489f3b16f64fd1e3d","6859c8075495eedd660477c0","false","false","Rabbit","https://kisumu-drawings.s3-us-west-1.amazonaws.com/102-005.png","2","Bird","102-005.png"
"","13220","image-button-response","53","null","463587","685c6ca90f751d3aae6b1794","685c6db489f3b16f64fd1e3d","6859c8075495eedd660477c0","false","false","Chair","https://kisumu-drawings.s3-us-west-1.amazonaws.com/56-010.png","5","Chair","56-010.png"
"","5735","image-button-response","54","null","469827","685c6ca90f751d3aae6b1794","685c6db489f3b16f64fd1e3d","6859c8075495eedd660477c0","false","false","Car","https://kisumu-drawings.s3-us-west-1.amazonaws.com/20-007.png","3","Car","20-007.png"
"","2607","image-button-response","55","null","472938","685c6ca90f751d3aae6b1794","685c6db489f3b16f64fd1e3d","6859c8075495eedd660477c0","false","false","Watch","https://kisumu-drawings.s3-us-west-1.amazonaws.com/62-005.png","0","Airplane","62-005.png"
"","4883","image-button-response","56","null","478331","685c6ca90f751d3aae6b1794","685c6db489f3b16f64fd1e3d","6859c8075495eedd660477c0","false","false","Rabbit","https://kisumu-drawings.s3-us-west-1.amazonaws.com/20-011.png","0","Airplane","20-011.png"
"","4303","image-button-response","57","null","483139","685c6ca90f751d3aae6b1794","685c6db489f3b16f64fd1e3d","6859c8075495eedd660477c0","false","false","Bird","https://kisumu-drawings.s3-us-west-1.amazonaws.com/62-010.png","4","Cat","62-010.png"
"","8599","image-button-response","58","null","492243","685c6ca90f751d3aae6b1794","685c6db489f3b16f64fd1e3d","6859c8075495eedd660477c0","false","false","Tree","https://kisumu-drawings.s3-us-west-1.amazonaws.com/56-006.png","10","Tree","56-006.png"
"","6866","image-button-response","59","null","499611","685c6ca90f751d3aae6b1794","685c6db489f3b16f64fd1e3d","6859c8075495eedd660477c0","false","false","Cat","https://kisumu-drawings.s3-us-west-1.amazonaws.com/20-008.png","2","Bird","20-008.png"
"","2983","image-button-response","60","null","503099","685c6ca90f751d3aae6b1794","685c6db489f3b16f64fd1e3d","6859c8075495eedd660477c0","false","false","House","https://kisumu-drawings.s3-us-west-1.amazonaws.com/22-013.png","8","House","22-013.png"
"","4378","image-button-response","61","null","507994","685c6ca90f751d3aae6b1794","685c6db489f3b16f64fd1e3d","6859c8075495eedd660477c0","false","false","Airplane","https://kisumu-drawings.s3-us-west-1.amazonaws.com/102-016.png","0","Airplane","102-016.png"
"","16483","image-button-response","62","null","524995","685c6ca90f751d3aae6b1794","685c6db489f3b16f64fd1e3d","6859c8075495eedd660477c0","false","false","Watch","https://kisumu-drawings.s3-us-west-1.amazonaws.com/102-009.png","11","Watch","102-009.png"
"","7248","image-button-response","63","null","532755","685c6ca90f751d3aae6b1794","685c6db489f3b16f64fd1e3d","6859c8075495eedd660477c0","false","false","Cup","https://kisumu-drawings.s3-us-west-1.amazonaws.com/102-008.png","6","Cup","102-008.png"
"","6285","image-button-response","64","null","539546","685c6ca90f751d3aae6b1794","685c6db489f3b16f64fd1e3d","6859c8075495eedd660477c0","false","false","Watch","https://kisumu-drawings.s3-us-west-1.amazonaws.com/22-010.png","2","Bird","22-010.png"
"","3675","image-button-response","65","null","543739","685c6ca90f751d3aae6b1794","685c6db489f3b16f64fd1e3d","6859c8075495eedd660477c0","false","false","Car","https://kisumu-drawings.s3-us-west-1.amazonaws.com/102-011.png","3","Car","102-011.png"
"","5987","image-button-response","66","null","550243","685c6ca90f751d3aae6b1794","685c6db489f3b16f64fd1e3d","6859c8075495eedd660477c0","false","false","Cup","https://kisumu-drawings.s3-us-west-1.amazonaws.com/20-009.png","2","Bird","20-009.png"
"","6087","image-button-response","67","null","556843","685c6ca90f751d3aae6b1794","685c6db489f3b16f64fd1e3d","6859c8075495eedd660477c0","false","false","Rabbit","https://kisumu-drawings.s3-us-west-1.amazonaws.com/56-016.png","2","Bird","56-016.png"
"","4593","image-button-response","68","null","561939","685c6ca90f751d3aae6b1794","685c6db489f3b16f64fd1e3d","6859c8075495eedd660477c0","false","false","House","https://kisumu-drawings.s3-us-west-1.amazonaws.com/85-016.png","8","House","85-016.png"
"","6477","image-button-response","69","null","568923","685c6ca90f751d3aae6b1794","685c6db489f3b16f64fd1e3d","6859c8075495eedd660477c0","false","false","Bicycle","https://kisumu-drawings.s3-us-west-1.amazonaws.com/102-015.png","1","Bicycle","102-015.png"
"","7875","image-button-response","70","null","577315","685c6ca90f751d3aae6b1794","685c6db489f3b16f64fd1e3d","6859c8075495eedd660477c0","false","false","Tree","https://kisumu-drawings.s3-us-west-1.amazonaws.com/20-012.png","10","Tree","20-012.png"
"","9875","image-button-response","71","null","587699","685c6ca90f751d3aae6b1794","685c6db489f3b16f64fd1e3d","6859c8075495eedd660477c0","false","false","Car","https://kisumu-drawings.s3-us-west-1.amazonaws.com/56-012.png","3","Car","56-012.png"
"","10472","image-button-response","72","null","598683","685c6ca90f751d3aae6b1794","685c6db489f3b16f64fd1e3d","6859c8075495eedd660477c0","false","false","Bicycle","https://kisumu-drawings.s3-us-west-1.amazonaws.com/85-006.png","1","Bicycle","85-006.png"
"","9855","image-button-response","73","null","609043","685c6ca90f751d3aae6b1794","685c6db489f3b16f64fd1e3d","6859c8075495eedd660477c0","false","false","Bird","https://kisumu-drawings.s3-us-west-1.amazonaws.com/56-008.png","0","Airplane","56-008.png"
"","6436","image-button-response","74","null","615995","685c6ca90f751d3aae6b1794","685c6db489f3b16f64fd1e3d","6859c8075495eedd660477c0","false","false","Rabbit","https://kisumu-drawings.s3-us-west-1.amazonaws.com/85-010.png","4","Cat","85-010.png"
"","8299","image-button-response","75","null","624803","685c6ca90f751d3aae6b1794","685c6db489f3b16f64fd1e3d","6859c8075495eedd660477c0","false","false","Tree","https://kisumu-drawings.s3-us-west-1.amazonaws.com/102-014.png","10","Tree","102-014.png"
