"view_history","rt","trial_type","trial_index","plugin_version","time_elapsed","study_id","session_id","participant_id","catch_trial","prep_trial","sketcher_category","stimulus","response","response_category","sketch_id"
"[{""page_index"":0,""viewing_time"":3974},{""page_index"":1,""viewing_time"":3779},{""page_index"":2,""viewing_time"":5554},{""page_index"":3,""viewing_time"":19425}]","32733","instructions","0","null","32745","685c6ca90f751d3aae6b1794","685c6e3a0e52422b6bcd1afc","685a00c2226d8ace12b4883b","","","","","","",""
"","3162","image-button-response","1","null","36928","685c6ca90f751d3aae6b1794","685c6e3a0e52422b6bcd1afc","685a00c2226d8ace12b4883b","false","true","car","stimuli/prep_trials/1_car_prep.png","3","Car",""
"","2414","image-button-response","2","null","39860","685c6ca90f751d3aae6b1794","685c6e3a0e52422b6bcd1afc","685a00c2226d8ace12b4883b","false","true","cat","stimuli/prep_trials/0_cat_prep.jpg","4","Cat",""
"","9136","image-button-response","3","null","49509","685c6ca90f751d3aae6b1794","685c6e3a0e52422b6bcd1afc","685a00c2226d8ace12b4883b","false","false","Bicycle","https://kisumu-drawings.s3-us-west-1.amazonaws.com/82-006.png","0","Airplane","82-006.png"
"","28326","image-button-response","4","null","78351","685c6ca90f751d3aae6b1794","685c6e3a0e52422b6bcd1afc","685a00c2226d8ace12b4883b","false","false","Bird","https://kisumu-drawings.s3-us-west-1.amazonaws.com/37-006.png","7","Hat","37-006.png"
"","6069","image-button-response","5","null","84935","685c6ca90f751d3aae6b1794","685c6e3a0e52422b6bcd1afc","685a00c2226d8ace12b4883b","false","false","Tree","https://kisumu-drawings.s3-us-west-1.amazonaws.com/37-016.png","10","Tree","37-016.png"
"","11717","image-button-response","6","null","97165","685c6ca90f751d3aae6b1794","685c6e3a0e52422b6bcd1afc","685a00c2226d8ace12b4883b","false","false","Car","https://kisumu-drawings.s3-us-west-1.amazonaws.com/37-007.png","3","Car","37-007.png"
"","19632","image-button-response","7","null","117311","685c6ca90f751d3aae6b1794","685c6e3a0e52422b6bcd1afc","685a00c2226d8ace12b4883b","false","false","Cup","https://kisumu-drawings.s3-us-west-1.amazonaws.com/16-005.png","7","Hat","16-005.png"
"","17467","image-button-response","8","null","135293","685c6ca90f751d3aae6b1794","685c6e3a0e52422b6bcd1afc","685a00c2226d8ace12b4883b","false","false","House","https://kisumu-drawings.s3-us-west-1.amazonaws.com/16-014.png","8","House","16-014.png"
"","22651","image-button-response","9","null","158456","685c6ca90f751d3aae6b1794","685c6e3a0e52422b6bcd1afc","685a00c2226d8ace12b4883b","false","false","Bird","https://kisumu-drawings.s3-us-west-1.amazonaws.com/15-010.png","8","House","15-010.png"
"","14789","image-button-response","10","null","173761","685c6ca90f751d3aae6b1794","685c6e3a0e52422b6bcd1afc","685a00c2226d8ace12b4883b","false","false","Cat","https://kisumu-drawings.s3-us-west-1.amazonaws.com/16-007.png","2","Bird","16-007.png"
"","5730","image-button-response","11","null","179999","685c6ca90f751d3aae6b1794","685c6e3a0e52422b6bcd1afc","685a00c2226d8ace12b4883b","false","false","Hat","https://kisumu-drawings.s3-us-west-1.amazonaws.com/117-013.png","7","Hat","117-013.png"
"","12016","image-button-response","12","null","192530","685c6ca90f751d3aae6b1794","685c6e3a0e52422b6bcd1afc","685a00c2226d8ace12b4883b","false","false","Car","https://kisumu-drawings.s3-us-west-1.amazonaws.com/45-005.png","3","Car","45-005.png"
"","10331","image-button-response","13","null","203378","685c6ca90f751d3aae6b1794","685c6e3a0e52422b6bcd1afc","685a00c2226d8ace12b4883b","false","false","Car","https://kisumu-drawings.s3-us-west-1.amazonaws.com/15-013.png","6","Cup","15-013.png"
"","5784","image-button-response","14","null","209676","685c6ca90f751d3aae6b1794","685c6e3a0e52422b6bcd1afc","685a00c2226d8ace12b4883b","false","false","Car","https://kisumu-drawings.s3-us-west-1.amazonaws.com/117-008.png","3","Car","117-008.png"
"","2237","image-button-response","15","null","212427","685c6ca90f751d3aae6b1794","685c6e3a0e52422b6bcd1afc","685a00c2226d8ace12b4883b","false","false","Car","https://kisumu-drawings.s3-us-west-1.amazonaws.com/77-015.png","3","Car","77-015.png"
"","4118","image-button-response","16","null","217057","685c6ca90f751d3aae6b1794","685c6e3a0e52422b6bcd1afc","685a00c2226d8ace12b4883b","false","false","Bird","https://kisumu-drawings.s3-us-west-1.amazonaws.com/117-011.png","2","Bird","117-011.png"
"","3235","image-button-response","17","null","220808","685c6ca90f751d3aae6b1794","685c6e3a0e52422b6bcd1afc","685a00c2226d8ace12b4883b","false","false","Car","https://kisumu-drawings.s3-us-west-1.amazonaws.com/84-013.png","3","Car","84-013.png"
"","2668","image-button-response","18","null","223990","685c6ca90f751d3aae6b1794","685c6e3a0e52422b6bcd1afc","685a00c2226d8ace12b4883b","false","false","Bird","https://kisumu-drawings.s3-us-west-1.amazonaws.com/83-007.png","2","Bird","83-007.png"
"","5699","image-button-response","19","null","230205","685c6ca90f751d3aae6b1794","685c6e3a0e52422b6bcd1afc","685a00c2226d8ace12b4883b","true","false","airplane","stimuli/catch_trials/0_airplane_catch.jpg","0","Airplane",""
"","5967","image-button-response","20","null","236685","685c6ca90f751d3aae6b1794","685c6e3a0e52422b6bcd1afc","685a00c2226d8ace12b4883b","false","false","House","https://kisumu-drawings.s3-us-west-1.amazonaws.com/45-010.png","8","House","45-010.png"
"","5701","image-button-response","21","null","242904","685c6ca90f751d3aae6b1794","685c6e3a0e52422b6bcd1afc","685a00c2226d8ace12b4883b","false","false","Hat","https://kisumu-drawings.s3-us-west-1.amazonaws.com/77-008.png","6","Cup","77-008.png"
"","5486","image-button-response","22","null","248904","685c6ca90f751d3aae6b1794","685c6e3a0e52422b6bcd1afc","685a00c2226d8ace12b4883b","false","false","Watch","https://kisumu-drawings.s3-us-west-1.amazonaws.com/44-006.png","11","Watch","44-006.png"
"","6767","image-button-response","23","null","256184","685c6ca90f751d3aae6b1794","685c6e3a0e52422b6bcd1afc","685a00c2226d8ace12b4883b","false","false","Rabbit","https://kisumu-drawings.s3-us-west-1.amazonaws.com/16-016.png","7","Hat","16-016.png"
"","23530","image-button-response","24","null","280229","685c6ca90f751d3aae6b1794","685c6e3a0e52422b6bcd1afc","685a00c2226d8ace12b4883b","false","false","Cat","https://kisumu-drawings.s3-us-west-1.amazonaws.com/117-009.png","4","Cat","117-009.png"
"","33709","image-button-response","25","null","314453","685c6ca90f751d3aae6b1794","685c6e3a0e52422b6bcd1afc","685a00c2226d8ace12b4883b","false","false","Rabbit","https://kisumu-drawings.s3-us-west-1.amazonaws.com/116-016.png","8","House","116-016.png"
"","11314","image-button-response","26","null","326286","685c6ca90f751d3aae6b1794","685c6e3a0e52422b6bcd1afc","685a00c2226d8ace12b4883b","false","false","Chair","https://kisumu-drawings.s3-us-west-1.amazonaws.com/37-013.png","8","House","37-013.png"
"","11304","image-button-response","27","null","338104","685c6ca90f751d3aae6b1794","685c6e3a0e52422b6bcd1afc","685a00c2226d8ace12b4883b","false","false","Hat","https://kisumu-drawings.s3-us-west-1.amazonaws.com/83-010.png","7","Hat","83-010.png"
"","11417","image-button-response","28","null","350033","685c6ca90f751d3aae6b1794","685c6e3a0e52422b6bcd1afc","685a00c2226d8ace12b4883b","false","false","Rabbit","https://kisumu-drawings.s3-us-west-1.amazonaws.com/82-009.png","8","House","82-009.png"
"","6819","image-button-response","29","null","357365","685c6ca90f751d3aae6b1794","685c6e3a0e52422b6bcd1afc","685a00c2226d8ace12b4883b","false","false","Tree","https://kisumu-drawings.s3-us-west-1.amazonaws.com/76-006.png","10","Tree","76-006.png"
"","4117","image-button-response","30","null","361996","685c6ca90f751d3aae6b1794","685c6e3a0e52422b6bcd1afc","685a00c2226d8ace12b4883b","false","false","Airplane","https://kisumu-drawings.s3-us-west-1.amazonaws.com/83-015.png","0","Airplane","83-015.png"
"","8544","image-button-response","31","null","371054","685c6ca90f751d3aae6b1794","685c6e3a0e52422b6bcd1afc","685a00c2226d8ace12b4883b","false","false","Chair","https://kisumu-drawings.s3-us-west-1.amazonaws.com/16-008.png","7","Hat","16-008.png"
"","7865","image-button-response","32","null","379427","685c6ca90f751d3aae6b1794","685c6e3a0e52422b6bcd1afc","685a00c2226d8ace12b4883b","false","false","Chair","https://kisumu-drawings.s3-us-west-1.amazonaws.com/77-010.png","8","House","77-010.png"
"","16434","image-button-response","33","null","396375","685c6ca90f751d3aae6b1794","685c6e3a0e52422b6bcd1afc","685a00c2226d8ace12b4883b","false","false","Cat","https://kisumu-drawings.s3-us-west-1.amazonaws.com/37-012.png","2","Bird","37-012.png"
"","8651","image-button-response","34","null","405540","685c6ca90f751d3aae6b1794","685c6e3a0e52422b6bcd1afc","685a00c2226d8ace12b4883b","false","false","Bicycle","https://kisumu-drawings.s3-us-west-1.amazonaws.com/36-015.png","3","Car","36-015.png"
"","8382","image-button-response","35","null","414434","685c6ca90f751d3aae6b1794","685c6e3a0e52422b6bcd1afc","685a00c2226d8ace12b4883b","false","false","Airplane","https://kisumu-drawings.s3-us-west-1.amazonaws.com/76-008.png","0","Airplane","76-008.png"
"","27978","image-button-response","36","null","442931","685c6ca90f751d3aae6b1794","685c6e3a0e52422b6bcd1afc","685a00c2226d8ace12b4883b","false","false","Cat","https://kisumu-drawings.s3-us-west-1.amazonaws.com/45-006.png","2","Bird","45-006.png"
"","10733","image-button-response","37","null","454180","685c6ca90f751d3aae6b1794","685c6e3a0e52422b6bcd1afc","685a00c2226d8ace12b4883b","false","false","Watch","https://kisumu-drawings.s3-us-west-1.amazonaws.com/15-008.png","11","Watch","15-008.png"
"","12135","image-button-response","38","null","466828","685c6ca90f751d3aae6b1794","685c6e3a0e52422b6bcd1afc","685a00c2226d8ace12b4883b","false","false","Bird","https://kisumu-drawings.s3-us-west-1.amazonaws.com/77-011.png","2","Bird","77-011.png"
"","12950","image-button-response","39","null","480292","685c6ca90f751d3aae6b1794","685c6e3a0e52422b6bcd1afc","685a00c2226d8ace12b4883b","false","false","Airplane","https://kisumu-drawings.s3-us-west-1.amazonaws.com/15-011.png","2","Bird","15-011.png"
"","8017","image-button-response","40","null","488824","685c6ca90f751d3aae6b1794","685c6e3a0e52422b6bcd1afc","685a00c2226d8ace12b4883b","false","false","Cat","https://kisumu-drawings.s3-us-west-1.amazonaws.com/77-007.png","9","Rabbit","77-007.png"
"","6882","image-button-response","41","null","496221","685c6ca90f751d3aae6b1794","685c6e3a0e52422b6bcd1afc","685a00c2226d8ace12b4883b","false","false","Airplane","https://kisumu-drawings.s3-us-west-1.amazonaws.com/36-014.png","10","Tree","36-014.png"
"","16947","image-button-response","42","null","513685","685c6ca90f751d3aae6b1794","685c6e3a0e52422b6bcd1afc","685a00c2226d8ace12b4883b","false","false","Cat","https://kisumu-drawings.s3-us-west-1.amazonaws.com/82-015.png","2","Bird","82-015.png"
"","5550","image-button-response","43","null","519752","685c6ca90f751d3aae6b1794","685c6e3a0e52422b6bcd1afc","685a00c2226d8ace12b4883b","false","false","Cup","https://kisumu-drawings.s3-us-west-1.amazonaws.com/82-016.png","6","Cup","82-016.png"
"","5484","image-button-response","44","null","525749","685c6ca90f751d3aae6b1794","685c6e3a0e52422b6bcd1afc","685a00c2226d8ace12b4883b","false","false","Hat","https://kisumu-drawings.s3-us-west-1.amazonaws.com/45-009.png","11","Watch","45-009.png"
"","9568","image-button-response","45","null","535832","685c6ca90f751d3aae6b1794","685c6e3a0e52422b6bcd1afc","685a00c2226d8ace12b4883b","false","false","Airplane","https://kisumu-drawings.s3-us-west-1.amazonaws.com/116-014.png","10","Tree","116-014.png"
"","12666","image-button-response","46","null","549012","685c6ca90f751d3aae6b1794","685c6e3a0e52422b6bcd1afc","685a00c2226d8ace12b4883b","false","false","Rabbit","https://kisumu-drawings.s3-us-west-1.amazonaws.com/77-009.png","8","House","77-009.png"
"","8733","image-button-response","47","null","558260","685c6ca90f751d3aae6b1794","685c6e3a0e52422b6bcd1afc","685a00c2226d8ace12b4883b","false","false","Bicycle","https://kisumu-drawings.s3-us-west-1.amazonaws.com/116-005.png","1","Bicycle","116-005.png"
"","8399","image-button-response","48","null","567175","685c6ca90f751d3aae6b1794","685c6e3a0e52422b6bcd1afc","685a00c2226d8ace12b4883b","false","false","Cup","https://kisumu-drawings.s3-us-west-1.amazonaws.com/36-008.png","6","Cup","36-008.png"
"","7415","image-button-response","49","null","575107","685c6ca90f751d3aae6b1794","685c6e3a0e52422b6bcd1afc","685a00c2226d8ace12b4883b","false","false","Bird","https://kisumu-drawings.s3-us-west-1.amazonaws.com/44-010.png","0","Airplane","44-010.png"
"","8016","image-button-response","50","null","583637","685c6ca90f751d3aae6b1794","685c6e3a0e52422b6bcd1afc","685a00c2226d8ace12b4883b","false","false","Bicycle","https://kisumu-drawings.s3-us-west-1.amazonaws.com/44-007.png","1","Bicycle","44-007.png"
"","7183","image-button-response","51","null","591338","685c6ca90f751d3aae6b1794","685c6e3a0e52422b6bcd1afc","685a00c2226d8ace12b4883b","false","false","Tree","https://kisumu-drawings.s3-us-west-1.amazonaws.com/44-005.png","10","Tree","44-005.png"
"","11200","image-button-response","52","null","603052","685c6ca90f751d3aae6b1794","685c6e3a0e52422b6bcd1afc","685a00c2226d8ace12b4883b","false","false","Rabbit","https://kisumu-drawings.s3-us-west-1.amazonaws.com/36-005.png","9","Rabbit","36-005.png"
"","11733","image-button-response","53","null","615299","685c6ca90f751d3aae6b1794","685c6e3a0e52422b6bcd1afc","685a00c2226d8ace12b4883b","false","false","Chair","https://kisumu-drawings.s3-us-west-1.amazonaws.com/45-007.png","8","House","45-007.png"
"","14048","image-button-response","54","null","629862","685c6ca90f751d3aae6b1794","685c6e3a0e52422b6bcd1afc","685a00c2226d8ace12b4883b","false","false","Rabbit","https://kisumu-drawings.s3-us-west-1.amazonaws.com/45-011.png","2","Bird","45-011.png"
"","7348","image-button-response","55","null","637729","685c6ca90f751d3aae6b1794","685c6e3a0e52422b6bcd1afc","685a00c2226d8ace12b4883b","false","false","House","https://kisumu-drawings.s3-us-west-1.amazonaws.com/77-016.png","8","House","77-016.png"
"","6335","image-button-response","56","null","644577","685c6ca90f751d3aae6b1794","685c6e3a0e52422b6bcd1afc","685a00c2226d8ace12b4883b","false","false","Tree","https://kisumu-drawings.s3-us-west-1.amazonaws.com/116-006.png","10","Tree","116-006.png"
"","6337","image-button-response","57","null","651427","685c6ca90f751d3aae6b1794","685c6e3a0e52422b6bcd1afc","685a00c2226d8ace12b4883b","false","false","Watch","https://kisumu-drawings.s3-us-west-1.amazonaws.com/81-010.png","11","Watch","81-010.png"
"","9068","image-button-response","58","null","661009","685c6ca90f751d3aae6b1794","685c6e3a0e52422b6bcd1afc","685a00c2226d8ace12b4883b","false","false","House","https://kisumu-drawings.s3-us-west-1.amazonaws.com/117-014.png","8","House","117-014.png"
"","4451","image-button-response","59","null","665973","685c6ca90f751d3aae6b1794","685c6e3a0e52422b6bcd1afc","685a00c2226d8ace12b4883b","false","false","House","https://kisumu-drawings.s3-us-west-1.amazonaws.com/83-012.png","8","House","83-012.png"
"","2703","image-button-response","60","null","669190","685c6ca90f751d3aae6b1794","685c6e3a0e52422b6bcd1afc","685a00c2226d8ace12b4883b","false","false","Tree","https://kisumu-drawings.s3-us-west-1.amazonaws.com/82-010.png","10","Tree","82-010.png"
"","2519","image-button-response","61","null","672221","685c6ca90f751d3aae6b1794","685c6e3a0e52422b6bcd1afc","685a00c2226d8ace12b4883b","false","false","House","https://kisumu-drawings.s3-us-west-1.amazonaws.com/37-014.png","8","House","37-014.png"
"","23564","image-button-response","62","null","696300","685c6ca90f751d3aae6b1794","685c6e3a0e52422b6bcd1afc","685a00c2226d8ace12b4883b","false","false","Watch","https://kisumu-drawings.s3-us-west-1.amazonaws.com/76-007.png","7","Hat","76-007.png"
"","7634","image-button-response","63","null","704449","685c6ca90f751d3aae6b1794","685c6e3a0e52422b6bcd1afc","685a00c2226d8ace12b4883b","false","false","Tree","https://kisumu-drawings.s3-us-west-1.amazonaws.com/16-015.png","5","Chair","16-015.png"
"","6100","image-button-response","64","null","711064","685c6ca90f751d3aae6b1794","685c6e3a0e52422b6bcd1afc","685a00c2226d8ace12b4883b","false","false","Bicycle","https://kisumu-drawings.s3-us-west-1.amazonaws.com/16-011.png","5","Chair","16-011.png"
"","2802","image-button-response","65","null","714382","685c6ca90f751d3aae6b1794","685c6e3a0e52422b6bcd1afc","685a00c2226d8ace12b4883b","false","false","Cup","https://kisumu-drawings.s3-us-west-1.amazonaws.com/76-010.png","6","Cup","76-010.png"
"","3202","image-button-response","66","null","718096","685c6ca90f751d3aae6b1794","685c6e3a0e52422b6bcd1afc","685a00c2226d8ace12b4883b","false","false","Chair","https://kisumu-drawings.s3-us-west-1.amazonaws.com/117-010.png","5","Chair","117-010.png"
"","4583","image-button-response","67","null","723195","685c6ca90f751d3aae6b1794","685c6e3a0e52422b6bcd1afc","685a00c2226d8ace12b4883b","false","false","Bicycle","https://kisumu-drawings.s3-us-west-1.amazonaws.com/76-012.png","0","Airplane","76-012.png"
"","2402","image-button-response","68","null","726111","685c6ca90f751d3aae6b1794","685c6e3a0e52422b6bcd1afc","685a00c2226d8ace12b4883b","false","false","Cup","https://kisumu-drawings.s3-us-west-1.amazonaws.com/116-008.png","6","Cup","116-008.png"
"","3185","image-button-response","69","null","729812","685c6ca90f751d3aae6b1794","685c6e3a0e52422b6bcd1afc","685a00c2226d8ace12b4883b","false","false","Watch","https://kisumu-drawings.s3-us-west-1.amazonaws.com/36-007.png","11","Watch","36-007.png"
"","3986","image-button-response","70","null","734310","685c6ca90f751d3aae6b1794","685c6e3a0e52422b6bcd1afc","685a00c2226d8ace12b4883b","false","false","Hat","https://kisumu-drawings.s3-us-west-1.amazonaws.com/36-009.png","6","Cup","36-009.png"
"","6450","image-button-response","71","null","741274","685c6ca90f751d3aae6b1794","685c6e3a0e52422b6bcd1afc","685a00c2226d8ace12b4883b","false","false","Hat","https://kisumu-drawings.s3-us-west-1.amazonaws.com/15-016.png","7","Hat","15-016.png"
"","5369","image-button-response","72","null","747160","685c6ca90f751d3aae6b1794","685c6e3a0e52422b6bcd1afc","685a00c2226d8ace12b4883b","false","false","Airplane","https://kisumu-drawings.s3-us-west-1.amazonaws.com/44-008.png","0","Airplane","44-008.png"
"","3568","image-button-response","73","null","751241","685c6ca90f751d3aae6b1794","685c6e3a0e52422b6bcd1afc","685a00c2226d8ace12b4883b","false","false","Watch","https://kisumu-drawings.s3-us-west-1.amazonaws.com/115-011.png","11","Watch","115-011.png"
"","4103","image-button-response","74","null","755858","685c6ca90f751d3aae6b1794","685c6e3a0e52422b6bcd1afc","685a00c2226d8ace12b4883b","false","false","Chair","https://kisumu-drawings.s3-us-west-1.amazonaws.com/83-014.png","5","Chair","83-014.png"
"","3936","image-button-response","75","null","760306","685c6ca90f751d3aae6b1794","685c6e3a0e52422b6bcd1afc","685a00c2226d8ace12b4883b","false","false","Cup","https://kisumu-drawings.s3-us-west-1.amazonaws.com/45-008.png","6","Cup","45-008.png"
