view_history,rt,trial_type,trial_index,plugin_version,time_elapsed,study_id,session_id,participant_id,catch_trial,prep_trial,sketcher_category,stimulus,response,response_category,sketch_id
"[{""page_index"":0,""viewing_time"":16645},{""page_index"":1,""viewing_time"":3679},{""page_index"":2,""viewing_time"":2911},{""page_index"":3,""viewing_time"":3732}]",26968,instructions,0,,27006,685c6ca90f751d3aae6b1794,685c6e5dc87a6a4df7f8c7b6,54,,,,,,,
,4474,image-button-response,1,,32496,685c6ca90f751d3aae6b1794,685c6e5dc87a6a4df7f8c7b6,54,False,True,car,stimuli/prep_trials/1_car_prep.png,3.0,Car,
,1323,image-button-response,2,,34333,685c6ca90f751d3aae6b1794,685c6e5dc87a6a4df7f8c7b6,54,False,True,cat,stimuli/prep_trials/0_cat_prep.jpg,4.0,Cat,
,6963,image-button-response,3,,41803,685c6ca90f751d3aae6b1794,685c6e5dc87a6a4df7f8c7b6,54,False,False,Bicycle,https://kisumu-drawings.s3-us-west-1.amazonaws.com/98-006.png,3.0,Car,98-006.png
,20836,image-button-response,4,,63146,685c6ca90f751d3aae6b1794,685c6e5dc87a6a4df7f8c7b6,54,False,False,Watch,https://kisumu-drawings.s3-us-west-1.amazonaws.com/53-016.png,11.0,Watch,53-016.png
,5142,image-button-response,5,,68801,685c6ca90f751d3aae6b1794,685c6e5dc87a6a4df7f8c7b6,54,False,False,Rabbit,https://kisumu-drawings.s3-us-west-1.amazonaws.com/53-011.png,2.0,Bird,53-011.png
,8952,image-button-response,6,,78262,685c6ca90f751d3aae6b1794,685c6e5dc87a6a4df7f8c7b6,54,False,False,Cat,https://kisumu-drawings.s3-us-west-1.amazonaws.com/96-012.png,9.0,Rabbit,96-012.png
,2471,image-button-response,7,,81244,685c6ca90f751d3aae6b1794,685c6e5dc87a6a4df7f8c7b6,54,False,False,House,https://kisumu-drawings.s3-us-west-1.amazonaws.com/30-013.png,8.0,House,30-013.png
,2609,image-button-response,8,,84360,685c6ca90f751d3aae6b1794,685c6e5dc87a6a4df7f8c7b6,54,False,False,Chair,https://kisumu-drawings.s3-us-west-1.amazonaws.com/54-007.png,5.0,Chair,54-007.png
,2279,image-button-response,9,,87144,685c6ca90f751d3aae6b1794,685c6e5dc87a6a4df7f8c7b6,54,False,False,Hat,https://kisumu-drawings.s3-us-west-1.amazonaws.com/29-015.png,2.0,Bird,29-015.png
,2578,image-button-response,10,,90227,685c6ca90f751d3aae6b1794,685c6e5dc87a6a4df7f8c7b6,54,False,False,Bird,https://kisumu-drawings.s3-us-west-1.amazonaws.com/54-010.png,0.0,Airplane,54-010.png
,2219,image-button-response,11,,92959,685c6ca90f751d3aae6b1794,685c6e5dc87a6a4df7f8c7b6,54,False,False,House,https://kisumu-drawings.s3-us-west-1.amazonaws.com/70-005.png,8.0,House,70-005.png
,2516,image-button-response,12,,95981,685c6ca90f751d3aae6b1794,685c6e5dc87a6a4df7f8c7b6,54,False,False,Chair,https://kisumu-drawings.s3-us-west-1.amazonaws.com/71-011.png,5.0,Chair,71-011.png
,3375,image-button-response,13,,99866,685c6ca90f751d3aae6b1794,685c6e5dc87a6a4df7f8c7b6,54,False,False,Cup,https://kisumu-drawings.s3-us-west-1.amazonaws.com/71-007.png,6.0,Cup,71-007.png
,7737,image-button-response,14,,108112,685c6ca90f751d3aae6b1794,685c6e5dc87a6a4df7f8c7b6,54,False,False,Car,https://kisumu-drawings.s3-us-west-1.amazonaws.com/71-009.png,5.0,Chair,71-009.png
,3633,image-button-response,15,,112261,685c6ca90f751d3aae6b1794,685c6e5dc87a6a4df7f8c7b6,54,False,False,Bicycle,https://kisumu-drawings.s3-us-west-1.amazonaws.com/55-006.png,1.0,Bicycle,55-006.png
,6611,image-button-response,16,,119388,685c6ca90f751d3aae6b1794,685c6e5dc87a6a4df7f8c7b6,54,False,False,Hat,https://kisumu-drawings.s3-us-west-1.amazonaws.com/71-006.png,7.0,Hat,71-006.png
,5478,image-button-response,17,,125384,685c6ca90f751d3aae6b1794,685c6e5dc87a6a4df7f8c7b6,54,False,False,Chair,https://kisumu-drawings.s3-us-west-1.amazonaws.com/97-009.png,5.0,Chair,97-009.png
,10501,image-button-response,18,,136401,685c6ca90f751d3aae6b1794,685c6e5dc87a6a4df7f8c7b6,54,False,False,Bird,https://kisumu-drawings.s3-us-west-1.amazonaws.com/31-007.png,2.0,Bird,31-007.png
,6806,image-button-response,19,,143718,685c6ca90f751d3aae6b1794,685c6e5dc87a6a4df7f8c7b6,54,False,False,Hat,https://kisumu-drawings.s3-us-west-1.amazonaws.com/111-013.png,7.0,Hat,111-013.png
,4506,image-button-response,20,,148742,685c6ca90f751d3aae6b1794,685c6e5dc87a6a4df7f8c7b6,54,False,False,Watch,https://kisumu-drawings.s3-us-west-1.amazonaws.com/110-005.png,11.0,Watch,110-005.png
,2729,image-button-response,21,,151979,685c6ca90f751d3aae6b1794,685c6e5dc87a6a4df7f8c7b6,54,False,False,Airplane,https://kisumu-drawings.s3-us-west-1.amazonaws.com/41-005.png,0.0,Airplane,41-005.png
,3173,image-button-response,22,,155657,685c6ca90f751d3aae6b1794,685c6e5dc87a6a4df7f8c7b6,54,False,False,Bicycle,https://kisumu-drawings.s3-us-west-1.amazonaws.com/112-010.png,1.0,Bicycle,112-010.png
,12565,image-button-response,23,,168728,685c6ca90f751d3aae6b1794,685c6e5dc87a6a4df7f8c7b6,54,False,False,Tree,https://kisumu-drawings.s3-us-west-1.amazonaws.com/10-011.png,10.0,Tree,10-011.png
,2824,image-button-response,24,,172069,685c6ca90f751d3aae6b1794,685c6e5dc87a6a4df7f8c7b6,54,False,False,Airplane,https://kisumu-drawings.s3-us-west-1.amazonaws.com/73-005.png,0.0,Airplane,73-005.png
,2399,image-button-response,25,,174972,685c6ca90f751d3aae6b1794,685c6e5dc87a6a4df7f8c7b6,54,False,False,Chair,https://kisumu-drawings.s3-us-west-1.amazonaws.com/30-010.png,5.0,Chair,30-010.png
,2198,image-button-response,26,,177679,685c6ca90f751d3aae6b1794,685c6e5dc87a6a4df7f8c7b6,54,False,False,Tree,https://kisumu-drawings.s3-us-west-1.amazonaws.com/30-015.png,10.0,Tree,30-015.png
,2495,image-button-response,27,,180683,685c6ca90f751d3aae6b1794,685c6e5dc87a6a4df7f8c7b6,54,False,False,Tree,https://kisumu-drawings.s3-us-west-1.amazonaws.com/70-015.png,10.0,Tree,70-015.png
,2750,image-button-response,28,,183945,685c6ca90f751d3aae6b1794,685c6e5dc87a6a4df7f8c7b6,54,False,False,Hat,https://kisumu-drawings.s3-us-west-1.amazonaws.com/97-005.png,7.0,Hat,97-005.png
,4194,image-button-response,29,,188645,685c6ca90f751d3aae6b1794,685c6e5dc87a6a4df7f8c7b6,54,False,False,Cat,https://kisumu-drawings.s3-us-west-1.amazonaws.com/10-008.png,1.0,Bicycle,10-008.png
,3088,image-button-response,30,,192242,685c6ca90f751d3aae6b1794,685c6e5dc87a6a4df7f8c7b6,54,False,False,Watch,https://kisumu-drawings.s3-us-west-1.amazonaws.com/30-016.png,3.0,Car,30-016.png
,2381,image-button-response,31,,195135,685c6ca90f751d3aae6b1794,685c6e5dc87a6a4df7f8c7b6,54,False,False,Airplane,https://kisumu-drawings.s3-us-west-1.amazonaws.com/112-015.png,0.0,Airplane,112-015.png
,2779,image-button-response,32,,198430,685c6ca90f751d3aae6b1794,685c6e5dc87a6a4df7f8c7b6,54,False,False,Chair,https://kisumu-drawings.s3-us-west-1.amazonaws.com/111-005.png,5.0,Chair,111-005.png
,4532,image-button-response,33,,203468,685c6ca90f751d3aae6b1794,685c6e5dc87a6a4df7f8c7b6,54,False,False,Bird,https://kisumu-drawings.s3-us-west-1.amazonaws.com/11-011.png,0.0,Airplane,11-011.png
,3180,image-button-response,34,,207154,685c6ca90f751d3aae6b1794,685c6e5dc87a6a4df7f8c7b6,54,False,False,Cup,https://kisumu-drawings.s3-us-west-1.amazonaws.com/54-013.png,6.0,Cup,54-013.png
,3827,image-button-response,35,,211485,685c6ca90f751d3aae6b1794,685c6e5dc87a6a4df7f8c7b6,54,False,False,Rabbit,https://kisumu-drawings.s3-us-west-1.amazonaws.com/70-006.png,9.0,Rabbit,70-006.png
,4893,image-button-response,36,,216882,685c6ca90f751d3aae6b1794,685c6e5dc87a6a4df7f8c7b6,54,False,False,House,https://kisumu-drawings.s3-us-west-1.amazonaws.com/97-011.png,8.0,House,97-011.png
,4845,image-button-response,37,,222236,685c6ca90f751d3aae6b1794,685c6e5dc87a6a4df7f8c7b6,54,False,False,Airplane,https://kisumu-drawings.s3-us-west-1.amazonaws.com/12-008.png,0.0,Airplane,12-008.png
,6406,image-button-response,38,,229158,685c6ca90f751d3aae6b1794,685c6e5dc87a6a4df7f8c7b6,54,False,False,Bird,https://kisumu-drawings.s3-us-west-1.amazonaws.com/112-011.png,4.0,Cat,112-011.png
,9031,image-button-response,39,,238693,685c6ca90f751d3aae6b1794,685c6e5dc87a6a4df7f8c7b6,54,False,False,Hat,https://kisumu-drawings.s3-us-west-1.amazonaws.com/53-014.png,9.0,Rabbit,53-014.png
,7835,image-button-response,40,,247047,685c6ca90f751d3aae6b1794,685c6e5dc87a6a4df7f8c7b6,54,False,False,Cup,https://kisumu-drawings.s3-us-west-1.amazonaws.com/110-013.png,6.0,Cup,110-013.png
,6605,image-button-response,41,,254164,685c6ca90f751d3aae6b1794,685c6e5dc87a6a4df7f8c7b6,54,False,False,Tree,https://kisumu-drawings.s3-us-west-1.amazonaws.com/53-012.png,2.0,Bird,53-012.png
,7604,image-button-response,42,,262277,685c6ca90f751d3aae6b1794,685c6e5dc87a6a4df7f8c7b6,54,False,False,Rabbit,https://kisumu-drawings.s3-us-west-1.amazonaws.com/96-006.png,4.0,Cat,96-006.png
,7806,image-button-response,43,,270592,685c6ca90f751d3aae6b1794,685c6e5dc87a6a4df7f8c7b6,54,False,False,Cup,https://kisumu-drawings.s3-us-west-1.amazonaws.com/96-010.png,6.0,Cup,96-010.png
,6335,image-button-response,44,,277437,685c6ca90f751d3aae6b1794,685c6e5dc87a6a4df7f8c7b6,54,False,False,Rabbit,https://kisumu-drawings.s3-us-west-1.amazonaws.com/9-014.png,7.0,Hat,9-014.png
,4161,image-button-response,45,,282117,685c6ca90f751d3aae6b1794,685c6e5dc87a6a4df7f8c7b6,54,False,False,Chair,https://kisumu-drawings.s3-us-west-1.amazonaws.com/10-016.png,5.0,Chair,10-016.png
,2531,image-button-response,46,,285167,685c6ca90f751d3aae6b1794,685c6e5dc87a6a4df7f8c7b6,54,False,False,Rabbit,https://kisumu-drawings.s3-us-west-1.amazonaws.com/29-013.png,9.0,Rabbit,29-013.png
,5039,image-button-response,47,,290712,685c6ca90f751d3aae6b1794,685c6e5dc87a6a4df7f8c7b6,54,False,False,Bicycle,https://kisumu-drawings.s3-us-west-1.amazonaws.com/32-009.png,3.0,Car,32-009.png
,4767,image-button-response,48,,295997,685c6ca90f751d3aae6b1794,685c6e5dc87a6a4df7f8c7b6,54,False,False,Rabbit,https://kisumu-drawings.s3-us-west-1.amazonaws.com/110-008.png,9.0,Rabbit,110-008.png
,3633,image-button-response,49,,300147,685c6ca90f751d3aae6b1794,685c6e5dc87a6a4df7f8c7b6,54,False,False,Tree,https://kisumu-drawings.s3-us-west-1.amazonaws.com/96-005.png,10.0,Tree,96-005.png
,7541,image-button-response,50,,308205,685c6ca90f751d3aae6b1794,685c6e5dc87a6a4df7f8c7b6,54,False,False,Watch,https://kisumu-drawings.s3-us-west-1.amazonaws.com/9-005.png,4.0,Cat,9-005.png
,9027,image-button-response,51,,317743,685c6ca90f751d3aae6b1794,685c6e5dc87a6a4df7f8c7b6,54,False,False,House,https://kisumu-drawings.s3-us-west-1.amazonaws.com/53-015.png,8.0,House,53-015.png
,7466,image-button-response,52,,325717,685c6ca90f751d3aae6b1794,685c6e5dc87a6a4df7f8c7b6,54,False,False,Cup,https://kisumu-drawings.s3-us-west-1.amazonaws.com/10-005.png,2.0,Bird,10-005.png
,6928,image-button-response,53,,333157,685c6ca90f751d3aae6b1794,685c6e5dc87a6a4df7f8c7b6,54,False,False,Cat,https://kisumu-drawings.s3-us-west-1.amazonaws.com/111-016.png,4.0,Cat,111-016.png
,3011,image-button-response,54,,336676,685c6ca90f751d3aae6b1794,685c6e5dc87a6a4df7f8c7b6,54,False,False,Watch,https://kisumu-drawings.s3-us-west-1.amazonaws.com/96-016.png,11.0,Watch,96-016.png
,2897,image-button-response,55,,340085,685c6ca90f751d3aae6b1794,685c6e5dc87a6a4df7f8c7b6,54,False,False,Cat,https://kisumu-drawings.s3-us-west-1.amazonaws.com/30-009.png,11.0,Watch,30-009.png
,7408,image-button-response,56,,348006,685c6ca90f751d3aae6b1794,685c6e5dc87a6a4df7f8c7b6,54,False,False,Bicycle,https://kisumu-drawings.s3-us-west-1.amazonaws.com/12-007.png,1.0,Bicycle,12-007.png
,2907,image-button-response,57,,351425,685c6ca90f751d3aae6b1794,685c6e5dc87a6a4df7f8c7b6,54,False,False,Airplane,https://kisumu-drawings.s3-us-west-1.amazonaws.com/99-006.png,0.0,Airplane,99-006.png
,4667,image-button-response,58,,356603,685c6ca90f751d3aae6b1794,685c6e5dc87a6a4df7f8c7b6,54,True,False,airplane,stimuli/catch_trials/0_airplane_catch.jpg,0.0,Airplane,
,5068,image-button-response,59,,362181,685c6ca90f751d3aae6b1794,685c6e5dc87a6a4df7f8c7b6,54,False,False,Car,https://kisumu-drawings.s3-us-west-1.amazonaws.com/30-008.png,7.0,Hat,30-008.png
,7511,image-button-response,60,,370210,685c6ca90f751d3aae6b1794,685c6e5dc87a6a4df7f8c7b6,54,False,False,Tree,https://kisumu-drawings.s3-us-west-1.amazonaws.com/110-009.png,10.0,Tree,110-009.png
,4522,image-button-response,61,,375245,685c6ca90f751d3aae6b1794,685c6e5dc87a6a4df7f8c7b6,54,False,False,Airplane,https://kisumu-drawings.s3-us-west-1.amazonaws.com/32-010.png,3.0,Car,32-010.png
,6613,image-button-response,62,,382376,685c6ca90f751d3aae6b1794,685c6e5dc87a6a4df7f8c7b6,54,False,False,Watch,https://kisumu-drawings.s3-us-west-1.amazonaws.com/70-016.png,11.0,Watch,70-016.png
,3560,image-button-response,63,,386441,685c6ca90f751d3aae6b1794,685c6e5dc87a6a4df7f8c7b6,54,False,False,Cat,https://kisumu-drawings.s3-us-west-1.amazonaws.com/71-016.png,4.0,Cat,71-016.png
,5298,image-button-response,64,,392257,685c6ca90f751d3aae6b1794,685c6e5dc87a6a4df7f8c7b6,54,False,False,Car,https://kisumu-drawings.s3-us-west-1.amazonaws.com/111-012.png,3.0,Car,111-012.png
,3153,image-button-response,65,,395917,685c6ca90f751d3aae6b1794,685c6e5dc87a6a4df7f8c7b6,54,False,False,Cup,https://kisumu-drawings.s3-us-west-1.amazonaws.com/30-011.png,6.0,Cup,30-011.png
,3961,image-button-response,66,,400393,685c6ca90f751d3aae6b1794,685c6e5dc87a6a4df7f8c7b6,54,False,False,Bird,https://kisumu-drawings.s3-us-west-1.amazonaws.com/71-010.png,2.0,Bird,71-010.png
,5610,image-button-response,67,,406511,685c6ca90f751d3aae6b1794,685c6e5dc87a6a4df7f8c7b6,54,False,False,House,https://kisumu-drawings.s3-us-west-1.amazonaws.com/9-015.png,8.0,House,9-015.png
,6033,image-button-response,68,,413049,685c6ca90f751d3aae6b1794,685c6e5dc87a6a4df7f8c7b6,54,False,False,Car,https://kisumu-drawings.s3-us-west-1.amazonaws.com/54-005.png,3.0,Car,54-005.png
,4934,image-button-response,69,,418496,685c6ca90f751d3aae6b1794,685c6e5dc87a6a4df7f8c7b6,54,False,False,Bird,https://kisumu-drawings.s3-us-west-1.amazonaws.com/97-007.png,0.0,Airplane,97-007.png
,4362,image-button-response,70,,423368,685c6ca90f751d3aae6b1794,685c6e5dc87a6a4df7f8c7b6,54,False,False,Hat,https://kisumu-drawings.s3-us-west-1.amazonaws.com/9-006.png,8.0,House,9-006.png
,7284,image-button-response,71,,431171,685c6ca90f751d3aae6b1794,685c6e5dc87a6a4df7f8c7b6,54,False,False,Bicycle,https://kisumu-drawings.s3-us-west-1.amazonaws.com/72-008.png,7.0,Hat,72-008.png
,4951,image-button-response,72,,436634,685c6ca90f751d3aae6b1794,685c6e5dc87a6a4df7f8c7b6,54,False,False,Cat,https://kisumu-drawings.s3-us-west-1.amazonaws.com/54-006.png,2.0,Bird,54-006.png
,3551,image-button-response,73,,440694,685c6ca90f751d3aae6b1794,685c6e5dc87a6a4df7f8c7b6,54,False,False,Car,https://kisumu-drawings.s3-us-west-1.amazonaws.com/10-006.png,3.0,Car,10-006.png
,7362,image-button-response,74,,448573,685c6ca90f751d3aae6b1794,685c6e5dc87a6a4df7f8c7b6,54,False,False,House,https://kisumu-drawings.s3-us-west-1.amazonaws.com/111-014.png,8.0,House,111-014.png
,4414,image-button-response,75,,453504,685c6ca90f751d3aae6b1794,685c6e5dc87a6a4df7f8c7b6,54,False,False,Car,https://kisumu-drawings.s3-us-west-1.amazonaws.com/98-014.png,8.0,House,98-014.png
