view_history,rt,trial_type,trial_index,plugin_version,time_elapsed,study_id,session_id,participant_id,catch_trial,prep_trial,sketcher_category,stimulus,response,response_category,sketch_id
"[{""page_index"":0,""viewing_time"":10693},{""page_index"":1,""viewing_time"":7252},{""page_index"":2,""viewing_time"":7400},{""page_index"":3,""viewing_time"":3424}]",28769,instructions,0,,28780,685c6ca90f751d3aae6b1794,685c6e840e5df71f2ddfa489,12,,,,,,,
,2485,image-button-response,1,,32272,685c6ca90f751d3aae6b1794,685c6e840e5df71f2ddfa489,12,False,True,car,stimuli/prep_trials/1_car_prep.png,3.0,Car,
,1737,image-button-response,2,,34524,685c6ca90f751d3aae6b1794,685c6e840e5df71f2ddfa489,12,False,True,cat,stimuli/prep_trials/0_cat_prep.jpg,4.0,Cat,
,17001,image-button-response,3,,52028,685c6ca90f751d3aae6b1794,685c6e840e5df71f2ddfa489,12,False,False,Tree,https://kisumu-drawings.s3-us-west-1.amazonaws.com/32-008.png,10.0,Tree,32-008.png
,3217,image-button-response,4,,55756,685c6ca90f751d3aae6b1794,685c6e840e5df71f2ddfa489,12,False,False,Cat,https://kisumu-drawings.s3-us-west-1.amazonaws.com/100-011.png,4.0,Cat,100-011.png
,14634,image-button-response,5,,70904,685c6ca90f751d3aae6b1794,685c6e840e5df71f2ddfa489,12,False,False,Rabbit,https://kisumu-drawings.s3-us-west-1.amazonaws.com/12-015.png,11.0,Watch,12-015.png
,3485,image-button-response,6,,74892,685c6ca90f751d3aae6b1794,685c6e840e5df71f2ddfa489,12,False,False,Hat,https://kisumu-drawings.s3-us-west-1.amazonaws.com/12-013.png,7.0,Hat,12-013.png
,3915,image-button-response,7,,79312,685c6ca90f751d3aae6b1794,685c6e840e5df71f2ddfa489,12,False,False,Bicycle,https://kisumu-drawings.s3-us-west-1.amazonaws.com/116-005.png,1.0,Bicycle,116-005.png
,13617,image-button-response,8,,93436,685c6ca90f751d3aae6b1794,685c6e840e5df71f2ddfa489,12,False,False,Bird,https://kisumu-drawings.s3-us-west-1.amazonaws.com/36-016.png,2.0,Bird,36-016.png
,9352,image-button-response,9,,103296,685c6ca90f751d3aae6b1794,685c6e840e5df71f2ddfa489,12,False,False,Bicycle,https://kisumu-drawings.s3-us-west-1.amazonaws.com/76-012.png,3.0,Car,76-012.png
,17815,image-button-response,10,,121628,685c6ca90f751d3aae6b1794,685c6e840e5df71f2ddfa489,12,False,False,Car,https://kisumu-drawings.s3-us-west-1.amazonaws.com/82-014.png,3.0,Car,82-014.png
,2516,image-button-response,11,,124655,685c6ca90f751d3aae6b1794,685c6e840e5df71f2ddfa489,12,False,False,Tree,https://kisumu-drawings.s3-us-west-1.amazonaws.com/99-008.png,10.0,Tree,99-008.png
,13660,image-button-response,12,,138819,685c6ca90f751d3aae6b1794,685c6e840e5df71f2ddfa489,12,False,False,Watch,https://kisumu-drawings.s3-us-west-1.amazonaws.com/112-012.png,2.0,Bird,112-012.png
,6194,image-button-response,13,,145519,685c6ca90f751d3aae6b1794,685c6e840e5df71f2ddfa489,12,False,False,Cup,https://kisumu-drawings.s3-us-west-1.amazonaws.com/33-014.png,4.0,Cat,33-014.png
,2599,image-button-response,14,,148623,685c6ca90f751d3aae6b1794,685c6e840e5df71f2ddfa489,12,False,False,Bird,https://kisumu-drawings.s3-us-west-1.amazonaws.com/81-007.png,2.0,Bird,81-007.png
,2062,image-button-response,15,,151195,685c6ca90f751d3aae6b1794,685c6e840e5df71f2ddfa489,12,False,False,Cat,https://kisumu-drawings.s3-us-west-1.amazonaws.com/75-014.png,4.0,Cat,75-014.png
,1977,image-button-response,16,,153687,685c6ca90f751d3aae6b1794,685c6e840e5df71f2ddfa489,12,False,False,House,https://kisumu-drawings.s3-us-west-1.amazonaws.com/99-010.png,8.0,House,99-010.png
,1847,image-button-response,17,,156043,685c6ca90f751d3aae6b1794,685c6e840e5df71f2ddfa489,12,False,False,House,https://kisumu-drawings.s3-us-west-1.amazonaws.com/12-014.png,8.0,House,12-014.png
,9133,image-button-response,18,,165691,685c6ca90f751d3aae6b1794,685c6e840e5df71f2ddfa489,12,False,False,Car,https://kisumu-drawings.s3-us-west-1.amazonaws.com/14-010.png,11.0,Watch,14-010.png
,44541,image-button-response,19,,210735,685c6ca90f751d3aae6b1794,685c6e840e5df71f2ddfa489,12,False,False,Bicycle,https://kisumu-drawings.s3-us-west-1.amazonaws.com/36-015.png,5.0,Chair,36-015.png
,5009,image-button-response,20,,216247,685c6ca90f751d3aae6b1794,685c6e840e5df71f2ddfa489,12,False,False,Bird,https://kisumu-drawings.s3-us-west-1.amazonaws.com/76-013.png,0.0,Airplane,76-013.png
,2481,image-button-response,21,,219243,685c6ca90f751d3aae6b1794,685c6e840e5df71f2ddfa489,12,False,False,Tree,https://kisumu-drawings.s3-us-west-1.amazonaws.com/113-010.png,10.0,Tree,113-010.png
,17177,image-button-response,22,,236935,685c6ca90f751d3aae6b1794,685c6e840e5df71f2ddfa489,12,False,False,Bicycle,https://kisumu-drawings.s3-us-west-1.amazonaws.com/16-011.png,6.0,Cup,16-011.png
,29053,image-button-response,23,,266491,685c6ca90f751d3aae6b1794,685c6e840e5df71f2ddfa489,12,False,False,Cup,https://kisumu-drawings.s3-us-west-1.amazonaws.com/13-014.png,4.0,Cat,13-014.png
,4316,image-button-response,24,,271319,685c6ca90f751d3aae6b1794,685c6e840e5df71f2ddfa489,12,False,False,Hat,https://kisumu-drawings.s3-us-west-1.amazonaws.com/41-016.png,2.0,Bird,41-016.png
,9521,image-button-response,25,,281342,685c6ca90f751d3aae6b1794,685c6e840e5df71f2ddfa489,12,False,False,Bicycle,https://kisumu-drawings.s3-us-west-1.amazonaws.com/44-007.png,0.0,Airplane,44-007.png
,2756,image-button-response,26,,284614,685c6ca90f751d3aae6b1794,685c6e840e5df71f2ddfa489,12,False,False,Watch,https://kisumu-drawings.s3-us-west-1.amazonaws.com/55-010.png,2.0,Bird,55-010.png
,2199,image-button-response,27,,287330,685c6ca90f751d3aae6b1794,685c6e840e5df71f2ddfa489,12,False,False,Chair,https://kisumu-drawings.s3-us-west-1.amazonaws.com/114-010.png,5.0,Chair,114-010.png
,23776,image-button-response,28,,311622,685c6ca90f751d3aae6b1794,685c6e840e5df71f2ddfa489,12,False,False,Watch,https://kisumu-drawings.s3-us-west-1.amazonaws.com/32-007.png,7.0,Hat,32-007.png
,4941,image-button-response,29,,317074,685c6ca90f751d3aae6b1794,685c6e840e5df71f2ddfa489,12,False,False,Chair,https://kisumu-drawings.s3-us-west-1.amazonaws.com/33-013.png,7.0,Hat,33-013.png
,2402,image-button-response,30,,319978,685c6ca90f751d3aae6b1794,685c6e840e5df71f2ddfa489,12,False,False,Airplane,https://kisumu-drawings.s3-us-west-1.amazonaws.com/83-015.png,0.0,Airplane,83-015.png
,6581,image-button-response,31,,327062,685c6ca90f751d3aae6b1794,685c6e840e5df71f2ddfa489,12,False,False,Watch,https://kisumu-drawings.s3-us-west-1.amazonaws.com/98-011.png,8.0,House,98-011.png
,5240,image-button-response,32,,332818,685c6ca90f751d3aae6b1794,685c6e840e5df71f2ddfa489,12,False,False,Rabbit,https://kisumu-drawings.s3-us-west-1.amazonaws.com/32-005.png,1.0,Bicycle,32-005.png
,2523,image-button-response,33,,335850,685c6ca90f751d3aae6b1794,685c6e840e5df71f2ddfa489,12,False,False,Cup,https://kisumu-drawings.s3-us-west-1.amazonaws.com/113-013.png,6.0,Cup,113-013.png
,2131,image-button-response,34,,338486,685c6ca90f751d3aae6b1794,685c6e840e5df71f2ddfa489,12,False,False,Chair,https://kisumu-drawings.s3-us-west-1.amazonaws.com/100-009.png,5.0,Chair,100-009.png
,2376,image-button-response,35,,341378,685c6ca90f751d3aae6b1794,685c6e840e5df71f2ddfa489,12,False,False,House,https://kisumu-drawings.s3-us-west-1.amazonaws.com/32-006.png,8.0,House,32-006.png
,2815,image-button-response,36,,344698,685c6ca90f751d3aae6b1794,685c6e840e5df71f2ddfa489,12,False,False,Airplane,https://kisumu-drawings.s3-us-west-1.amazonaws.com/44-008.png,0.0,Airplane,44-008.png
,3465,image-button-response,37,,348674,685c6ca90f751d3aae6b1794,685c6e840e5df71f2ddfa489,12,False,False,Rabbit,https://kisumu-drawings.s3-us-west-1.amazonaws.com/99-011.png,4.0,Cat,99-011.png
,7887,image-button-response,38,,357066,685c6ca90f751d3aae6b1794,685c6e840e5df71f2ddfa489,12,False,False,Hat,https://kisumu-drawings.s3-us-west-1.amazonaws.com/114-016.png,7.0,Hat,114-016.png
,2529,image-button-response,39,,360102,685c6ca90f751d3aae6b1794,685c6e840e5df71f2ddfa489,12,False,False,House,https://kisumu-drawings.s3-us-west-1.amazonaws.com/113-007.png,8.0,House,113-007.png
,2071,image-button-response,40,,362686,685c6ca90f751d3aae6b1794,685c6e840e5df71f2ddfa489,12,False,False,Tree,https://kisumu-drawings.s3-us-west-1.amazonaws.com/12-016.png,10.0,Tree,12-016.png
,2868,image-button-response,41,,366070,685c6ca90f751d3aae6b1794,685c6e840e5df71f2ddfa489,12,False,False,Cat,https://kisumu-drawings.s3-us-west-1.amazonaws.com/115-012.png,4.0,Cat,115-012.png
,1744,image-button-response,42,,368326,685c6ca90f751d3aae6b1794,685c6e840e5df71f2ddfa489,12,False,False,Tree,https://kisumu-drawings.s3-us-west-1.amazonaws.com/73-014.png,10.0,Tree,73-014.png
,1970,image-button-response,43,,370806,685c6ca90f751d3aae6b1794,685c6e840e5df71f2ddfa489,12,False,False,House,https://kisumu-drawings.s3-us-west-1.amazonaws.com/41-015.png,8.0,House,41-015.png
,18304,image-button-response,44,,389622,685c6ca90f751d3aae6b1794,685c6e840e5df71f2ddfa489,12,False,False,Hat,https://kisumu-drawings.s3-us-west-1.amazonaws.com/99-007.png,6.0,Cup,99-007.png
,8617,image-button-response,45,,398742,685c6ca90f751d3aae6b1794,685c6e840e5df71f2ddfa489,12,False,False,Bicycle,https://kisumu-drawings.s3-us-west-1.amazonaws.com/82-006.png,0.0,Airplane,82-006.png
,12081,image-button-response,46,,411326,685c6ca90f751d3aae6b1794,685c6e840e5df71f2ddfa489,12,False,False,Airplane,https://kisumu-drawings.s3-us-west-1.amazonaws.com/36-014.png,10.0,Tree,36-014.png
,2951,image-button-response,47,,414786,685c6ca90f751d3aae6b1794,685c6e840e5df71f2ddfa489,12,False,False,Cup,https://kisumu-drawings.s3-us-west-1.amazonaws.com/99-009.png,6.0,Cup,99-009.png
,7005,image-button-response,48,,422306,685c6ca90f751d3aae6b1794,685c6e840e5df71f2ddfa489,12,False,False,Watch,https://kisumu-drawings.s3-us-west-1.amazonaws.com/72-007.png,0.0,Airplane,72-007.png
,3073,image-button-response,49,,425881,685c6ca90f751d3aae6b1794,685c6e840e5df71f2ddfa489,12,False,False,Bird,https://kisumu-drawings.s3-us-west-1.amazonaws.com/14-013.png,7.0,Hat,14-013.png
,49097,image-button-response,50,,475481,685c6ca90f751d3aae6b1794,685c6e840e5df71f2ddfa489,12,False,False,Airplane,https://kisumu-drawings.s3-us-west-1.amazonaws.com/16-010.png,5.0,Chair,16-010.png
,3614,image-button-response,51,,479597,685c6ca90f751d3aae6b1794,685c6e840e5df71f2ddfa489,12,False,False,Hat,https://kisumu-drawings.s3-us-west-1.amazonaws.com/32-015.png,7.0,Hat,32-015.png
,1951,image-button-response,52,,482049,685c6ca90f751d3aae6b1794,685c6e840e5df71f2ddfa489,12,False,False,House,https://kisumu-drawings.s3-us-west-1.amazonaws.com/73-013.png,8.0,House,73-013.png
,2348,image-button-response,53,,484913,685c6ca90f751d3aae6b1794,685c6e840e5df71f2ddfa489,12,False,False,Cat,https://kisumu-drawings.s3-us-west-1.amazonaws.com/35-012.png,4.0,Cat,35-012.png
,4044,image-button-response,54,,489461,685c6ca90f751d3aae6b1794,685c6e840e5df71f2ddfa489,12,False,False,Car,https://kisumu-drawings.s3-us-west-1.amazonaws.com/75-009.png,3.0,Car,75-009.png
,14373,image-button-response,55,,504349,685c6ca90f751d3aae6b1794,685c6e840e5df71f2ddfa489,12,False,False,Car,https://kisumu-drawings.s3-us-west-1.amazonaws.com/115-015.png,3.0,Car,115-015.png
,5702,image-button-response,56,,510561,685c6ca90f751d3aae6b1794,685c6e840e5df71f2ddfa489,12,False,False,Chair,https://kisumu-drawings.s3-us-west-1.amazonaws.com/42-007.png,8.0,House,42-007.png
,4000,image-button-response,57,,515073,685c6ca90f751d3aae6b1794,685c6e840e5df71f2ddfa489,12,False,False,Rabbit,https://kisumu-drawings.s3-us-west-1.amazonaws.com/41-012.png,4.0,Cat,41-012.png
,3516,image-button-response,58,,519101,685c6ca90f751d3aae6b1794,685c6e840e5df71f2ddfa489,12,False,False,Rabbit,https://kisumu-drawings.s3-us-west-1.amazonaws.com/113-009.png,4.0,Cat,113-009.png
,7058,image-button-response,59,,526669,685c6ca90f751d3aae6b1794,685c6e840e5df71f2ddfa489,12,False,False,Cup,https://kisumu-drawings.s3-us-west-1.amazonaws.com/42-014.png,6.0,Cup,42-014.png
,2430,image-button-response,60,,529601,685c6ca90f751d3aae6b1794,685c6e840e5df71f2ddfa489,12,False,False,Cat,https://kisumu-drawings.s3-us-west-1.amazonaws.com/43-010.png,4.0,Cat,43-010.png
,1492,image-button-response,61,,531595,685c6ca90f751d3aae6b1794,685c6e840e5df71f2ddfa489,12,False,False,Bird,https://kisumu-drawings.s3-us-west-1.amazonaws.com/43-009.png,4.0,Cat,43-009.png
,1603,image-button-response,62,,533713,685c6ca90f751d3aae6b1794,685c6e840e5df71f2ddfa489,12,True,False,airplane,stimuli/catch_trials/0_airplane_catch.jpg,0.0,Airplane,
,4835,image-button-response,63,,539061,685c6ca90f751d3aae6b1794,685c6e840e5df71f2ddfa489,12,False,False,Airplane,https://kisumu-drawings.s3-us-west-1.amazonaws.com/77-006.png,0.0,Airplane,77-006.png
,2007,image-button-response,64,,541573,685c6ca90f751d3aae6b1794,685c6e840e5df71f2ddfa489,12,False,False,Tree,https://kisumu-drawings.s3-us-west-1.amazonaws.com/41-013.png,10.0,Tree,41-013.png
,3839,image-button-response,65,,545917,685c6ca90f751d3aae6b1794,685c6e840e5df71f2ddfa489,12,False,False,Rabbit,https://kisumu-drawings.s3-us-west-1.amazonaws.com/73-016.png,4.0,Cat,73-016.png
,4051,image-button-response,66,,550477,685c6ca90f751d3aae6b1794,685c6e840e5df71f2ddfa489,12,False,False,Cup,https://kisumu-drawings.s3-us-west-1.amazonaws.com/73-015.png,6.0,Cup,73-015.png
,12737,image-button-response,67,,563725,685c6ca90f751d3aae6b1794,685c6e840e5df71f2ddfa489,12,False,False,Chair,https://kisumu-drawings.s3-us-west-1.amazonaws.com/14-009.png,9.0,Rabbit,14-009.png
,2975,image-button-response,68,,567204,685c6ca90f751d3aae6b1794,685c6e840e5df71f2ddfa489,12,False,False,Car,https://kisumu-drawings.s3-us-west-1.amazonaws.com/35-009.png,3.0,Car,35-009.png
,37033,image-button-response,69,,604744,685c6ca90f751d3aae6b1794,685c6e840e5df71f2ddfa489,12,False,False,Bird,https://kisumu-drawings.s3-us-west-1.amazonaws.com/116-010.png,10.0,Tree,116-010.png
,20705,image-button-response,70,,625953,685c6ca90f751d3aae6b1794,685c6e840e5df71f2ddfa489,12,False,False,Airplane,https://kisumu-drawings.s3-us-west-1.amazonaws.com/116-014.png,10.0,Tree,116-014.png
,6373,image-button-response,71,,632836,685c6ca90f751d3aae6b1794,685c6e840e5df71f2ddfa489,12,False,False,Hat,https://kisumu-drawings.s3-us-west-1.amazonaws.com/73-011.png,7.0,Hat,73-011.png
,4516,image-button-response,72,,637856,685c6ca90f751d3aae6b1794,685c6e840e5df71f2ddfa489,12,False,False,Chair,https://kisumu-drawings.s3-us-west-1.amazonaws.com/75-008.png,5.0,Chair,75-008.png
,3620,image-button-response,73,,641992,685c6ca90f751d3aae6b1794,685c6e840e5df71f2ddfa489,12,False,False,Cat,https://kisumu-drawings.s3-us-west-1.amazonaws.com/14-014.png,7.0,Hat,14-014.png
,2221,image-button-response,74,,644720,685c6ca90f751d3aae6b1794,685c6e840e5df71f2ddfa489,12,False,False,Car,https://kisumu-drawings.s3-us-west-1.amazonaws.com/43-016.png,3.0,Car,43-016.png
,3553,image-button-response,75,,648780,685c6ca90f751d3aae6b1794,685c6e840e5df71f2ddfa489,12,False,False,Watch,https://kisumu-drawings.s3-us-west-1.amazonaws.com/11-016.png,2.0,Bird,11-016.png
