view_history,rt,trial_type,trial_index,plugin_version,time_elapsed,study_id,session_id,participant_id,catch_trial,prep_trial,sketcher_category,stimulus,response,response_category,sketch_id
"[{""page_index"":0,""viewing_time"":5797},{""page_index"":1,""viewing_time"":2390},{""page_index"":2,""viewing_time"":3442},{""page_index"":3,""viewing_time"":9145}]",20775,instructions,0,,20779,685c6ca90f751d3aae6b1794,685c6e6cd54d2fe70c14ffcc,4,,,,,,,
,2806,image-button-response,1,,24602,685c6ca90f751d3aae6b1794,685c6e6cd54d2fe70c14ffcc,4,False,True,car,stimuli/prep_trials/1_car_prep.png,3.0,Car,
,2078,image-button-response,2,,27189,685c6ca90f751d3aae6b1794,685c6e6cd54d2fe70c14ffcc,4,False,True,cat,stimuli/prep_trials/0_cat_prep.jpg,4.0,Cat,
,12671,image-button-response,3,,40364,685c6ca90f751d3aae6b1794,685c6e6cd54d2fe70c14ffcc,4,False,False,Rabbit,https://kisumu-drawings.s3-us-west-1.amazonaws.com/97-012.png,9.0,Rabbit,97-012.png
,6520,image-button-response,4,,47386,685c6ca90f751d3aae6b1794,685c6e6cd54d2fe70c14ffcc,4,False,False,Watch,https://kisumu-drawings.s3-us-west-1.amazonaws.com/71-015.png,11.0,Watch,71-015.png
,3116,image-button-response,5,,51018,685c6ca90f751d3aae6b1794,685c6e6cd54d2fe70c14ffcc,4,False,False,Bicycle,https://kisumu-drawings.s3-us-west-1.amazonaws.com/74-014.png,1.0,Bicycle,74-014.png
,11467,image-button-response,6,,63000,685c6ca90f751d3aae6b1794,685c6e6cd54d2fe70c14ffcc,4,False,False,Hat,https://kisumu-drawings.s3-us-west-1.amazonaws.com/112-014.png,7.0,Hat,112-014.png
,14487,image-button-response,7,,77989,685c6ca90f751d3aae6b1794,685c6e6cd54d2fe70c14ffcc,4,False,False,Hat,https://kisumu-drawings.s3-us-west-1.amazonaws.com/55-005.png,10.0,Tree,55-005.png
,12416,image-button-response,8,,90918,685c6ca90f751d3aae6b1794,685c6e6cd54d2fe70c14ffcc,4,False,False,Rabbit,https://kisumu-drawings.s3-us-west-1.amazonaws.com/10-010.png,1.0,Bicycle,10-010.png
,10916,image-button-response,9,,102349,685c6ca90f751d3aae6b1794,685c6e6cd54d2fe70c14ffcc,4,False,False,Bicycle,https://kisumu-drawings.s3-us-west-1.amazonaws.com/13-010.png,5.0,Chair,13-010.png
,2547,image-button-response,10,,105397,685c6ca90f751d3aae6b1794,685c6e6cd54d2fe70c14ffcc,4,False,False,Watch,https://kisumu-drawings.s3-us-west-1.amazonaws.com/111-015.png,11.0,Watch,111-015.png
,1768,image-button-response,11,,107667,685c6ca90f751d3aae6b1794,685c6e6cd54d2fe70c14ffcc,4,False,False,Cup,https://kisumu-drawings.s3-us-west-1.amazonaws.com/97-008.png,6.0,Cup,97-008.png
,1739,image-button-response,12,,109908,685c6ca90f751d3aae6b1794,685c6e6cd54d2fe70c14ffcc,4,False,False,Tree,https://kisumu-drawings.s3-us-west-1.amazonaws.com/97-016.png,10.0,Tree,97-016.png
,10173,image-button-response,13,,120583,685c6ca90f751d3aae6b1794,685c6e6cd54d2fe70c14ffcc,4,False,False,Watch,https://kisumu-drawings.s3-us-west-1.amazonaws.com/97-010.png,11.0,Watch,97-010.png
,10288,image-button-response,14,,131379,685c6ca90f751d3aae6b1794,685c6e6cd54d2fe70c14ffcc,4,False,False,Bird,https://kisumu-drawings.s3-us-west-1.amazonaws.com/13-009.png,11.0,Watch,13-009.png
,24147,image-button-response,15,,156031,685c6ca90f751d3aae6b1794,685c6e6cd54d2fe70c14ffcc,4,False,False,Cup,https://kisumu-drawings.s3-us-west-1.amazonaws.com/11-014.png,4.0,Cat,11-014.png
,9739,image-button-response,16,,166271,685c6ca90f751d3aae6b1794,685c6e6cd54d2fe70c14ffcc,4,False,False,Cat,https://kisumu-drawings.s3-us-west-1.amazonaws.com/55-012.png,2.0,Bird,55-012.png
,4062,image-button-response,17,,170849,685c6ca90f751d3aae6b1794,685c6e6cd54d2fe70c14ffcc,4,False,False,Cat,https://kisumu-drawings.s3-us-west-1.amazonaws.com/12-011.png,4.0,Cat,12-011.png
,1682,image-button-response,18,,173046,685c6ca90f751d3aae6b1794,685c6e6cd54d2fe70c14ffcc,4,False,False,Watch,https://kisumu-drawings.s3-us-west-1.amazonaws.com/30-016.png,11.0,Watch,30-016.png
,1490,image-button-response,19,,175037,685c6ca90f751d3aae6b1794,685c6e6cd54d2fe70c14ffcc,4,False,False,Tree,https://kisumu-drawings.s3-us-west-1.amazonaws.com/111-008.png,10.0,Tree,111-008.png
,1394,image-button-response,20,,176933,685c6ca90f751d3aae6b1794,685c6e6cd54d2fe70c14ffcc,4,False,False,Tree,https://kisumu-drawings.s3-us-west-1.amazonaws.com/31-015.png,10.0,Tree,31-015.png
,15697,image-button-response,21,,193132,685c6ca90f751d3aae6b1794,685c6e6cd54d2fe70c14ffcc,4,False,False,Rabbit,https://kisumu-drawings.s3-us-west-1.amazonaws.com/30-014.png,7.0,Hat,30-014.png
,1809,image-button-response,22,,195446,685c6ca90f751d3aae6b1794,685c6e6cd54d2fe70c14ffcc,4,False,False,Bird,https://kisumu-drawings.s3-us-west-1.amazonaws.com/41-008.png,0.0,Airplane,41-008.png
,2014,image-button-response,23,,197976,685c6ca90f751d3aae6b1794,685c6e6cd54d2fe70c14ffcc,4,False,False,House,https://kisumu-drawings.s3-us-west-1.amazonaws.com/71-008.png,8.0,House,71-008.png
,9097,image-button-response,24,,207580,685c6ca90f751d3aae6b1794,685c6e6cd54d2fe70c14ffcc,4,False,False,Chair,https://kisumu-drawings.s3-us-west-1.amazonaws.com/55-013.png,8.0,House,55-013.png
,3455,image-button-response,25,,211538,685c6ca90f751d3aae6b1794,685c6e6cd54d2fe70c14ffcc,4,False,False,Tree,https://kisumu-drawings.s3-us-west-1.amazonaws.com/11-007.png,9.0,Rabbit,11-007.png
,14069,image-button-response,26,,226116,685c6ca90f751d3aae6b1794,685c6e6cd54d2fe70c14ffcc,4,False,False,Airplane,https://kisumu-drawings.s3-us-west-1.amazonaws.com/33-005.png,4.0,Cat,33-005.png
,2111,image-button-response,27,,228731,685c6ca90f751d3aae6b1794,685c6e6cd54d2fe70c14ffcc,4,False,False,Airplane,https://kisumu-drawings.s3-us-west-1.amazonaws.com/81-014.png,0.0,Airplane,81-014.png
,1976,image-button-response,28,,231209,685c6ca90f751d3aae6b1794,685c6e6cd54d2fe70c14ffcc,4,False,False,Chair,https://kisumu-drawings.s3-us-west-1.amazonaws.com/98-008.png,5.0,Chair,98-008.png
,1127,image-button-response,29,,232846,685c6ca90f751d3aae6b1794,685c6e6cd54d2fe70c14ffcc,4,True,False,airplane,stimuli/catch_trials/0_airplane_catch.jpg,0.0,Airplane,
,10557,image-button-response,30,,243912,685c6ca90f751d3aae6b1794,685c6e6cd54d2fe70c14ffcc,4,False,False,Cat,https://kisumu-drawings.s3-us-west-1.amazonaws.com/31-009.png,5.0,Chair,31-009.png
,2658,image-button-response,31,,247075,685c6ca90f751d3aae6b1794,685c6e6cd54d2fe70c14ffcc,4,False,False,House,https://kisumu-drawings.s3-us-west-1.amazonaws.com/31-013.png,2.0,Bird,31-013.png
,1397,image-button-response,32,,248988,685c6ca90f751d3aae6b1794,685c6e6cd54d2fe70c14ffcc,4,False,False,Chair,https://kisumu-drawings.s3-us-west-1.amazonaws.com/72-015.png,5.0,Chair,72-015.png
,1389,image-button-response,33,,250883,685c6ca90f751d3aae6b1794,685c6e6cd54d2fe70c14ffcc,4,False,False,House,https://kisumu-drawings.s3-us-west-1.amazonaws.com/98-005.png,8.0,House,98-005.png
,1346,image-button-response,34,,252730,685c6ca90f751d3aae6b1794,685c6e6cd54d2fe70c14ffcc,4,False,False,Chair,https://kisumu-drawings.s3-us-west-1.amazonaws.com/31-010.png,5.0,Chair,31-010.png
,8706,image-button-response,35,,261938,685c6ca90f751d3aae6b1794,685c6e6cd54d2fe70c14ffcc,4,False,False,Hat,https://kisumu-drawings.s3-us-west-1.amazonaws.com/30-012.png,0.0,Airplane,30-012.png
,2159,image-button-response,36,,264606,685c6ca90f751d3aae6b1794,685c6e6cd54d2fe70c14ffcc,4,False,False,Cup,https://kisumu-drawings.s3-us-west-1.amazonaws.com/72-010.png,6.0,Cup,72-010.png
,1515,image-button-response,37,,266632,685c6ca90f751d3aae6b1794,685c6e6cd54d2fe70c14ffcc,4,False,False,House,https://kisumu-drawings.s3-us-west-1.amazonaws.com/112-007.png,8.0,House,112-007.png
,6052,image-button-response,38,,273188,685c6ca90f751d3aae6b1794,685c6e6cd54d2fe70c14ffcc,4,False,False,House,https://kisumu-drawings.s3-us-west-1.amazonaws.com/10-009.png,3.0,Car,10-009.png
,10591,image-button-response,39,,284286,685c6ca90f751d3aae6b1794,685c6e6cd54d2fe70c14ffcc,4,False,False,Tree,https://kisumu-drawings.s3-us-west-1.amazonaws.com/71-014.png,10.0,Tree,71-014.png
,1949,image-button-response,40,,286751,685c6ca90f751d3aae6b1794,685c6e6cd54d2fe70c14ffcc,4,False,False,House,https://kisumu-drawings.s3-us-west-1.amazonaws.com/54-015.png,8.0,House,54-015.png
,2964,image-button-response,41,,290224,685c6ca90f751d3aae6b1794,685c6e6cd54d2fe70c14ffcc,4,False,False,Hat,https://kisumu-drawings.s3-us-west-1.amazonaws.com/98-012.png,11.0,Watch,98-012.png
,3225,image-button-response,42,,293954,685c6ca90f751d3aae6b1794,685c6e6cd54d2fe70c14ffcc,4,False,False,Chair,https://kisumu-drawings.s3-us-west-1.amazonaws.com/11-013.png,11.0,Watch,11-013.png
,2630,image-button-response,43,,297101,685c6ca90f751d3aae6b1794,685c6e6cd54d2fe70c14ffcc,4,False,False,Bicycle,https://kisumu-drawings.s3-us-west-1.amazonaws.com/33-006.png,9.0,Rabbit,33-006.png
,1936,image-button-response,44,,299539,685c6ca90f751d3aae6b1794,685c6e6cd54d2fe70c14ffcc,4,False,False,Bicycle,https://kisumu-drawings.s3-us-west-1.amazonaws.com/42-009.png,1.0,Bicycle,42-009.png
,15022,image-button-response,45,,315068,685c6ca90f751d3aae6b1794,685c6e6cd54d2fe70c14ffcc,4,False,False,Rabbit,https://kisumu-drawings.s3-us-west-1.amazonaws.com/71-005.png,4.0,Cat,71-005.png
,7643,image-button-response,46,,323212,685c6ca90f751d3aae6b1794,685c6e6cd54d2fe70c14ffcc,4,False,False,Cup,https://kisumu-drawings.s3-us-west-1.amazonaws.com/55-015.png,11.0,Watch,55-015.png
,2488,image-button-response,47,,326205,685c6ca90f751d3aae6b1794,685c6e6cd54d2fe70c14ffcc,4,False,False,Bird,https://kisumu-drawings.s3-us-west-1.amazonaws.com/32-012.png,4.0,Cat,32-012.png
,2069,image-button-response,48,,328778,685c6ca90f751d3aae6b1794,685c6e6cd54d2fe70c14ffcc,4,False,False,Airplane,https://kisumu-drawings.s3-us-west-1.amazonaws.com/114-011.png,3.0,Car,114-011.png
,3050,image-button-response,49,,332333,685c6ca90f751d3aae6b1794,685c6e6cd54d2fe70c14ffcc,4,False,False,Chair,https://kisumu-drawings.s3-us-west-1.amazonaws.com/112-008.png,5.0,Chair,112-008.png
,1738,image-button-response,50,,334573,685c6ca90f751d3aae6b1794,685c6e6cd54d2fe70c14ffcc,4,False,False,Car,https://kisumu-drawings.s3-us-west-1.amazonaws.com/41-010.png,3.0,Car,41-010.png
,5293,image-button-response,51,,340373,685c6ca90f751d3aae6b1794,685c6e6cd54d2fe70c14ffcc,4,False,False,Rabbit,https://kisumu-drawings.s3-us-west-1.amazonaws.com/111-011.png,4.0,Cat,111-011.png
,10136,image-button-response,52,,351015,685c6ca90f751d3aae6b1794,685c6e6cd54d2fe70c14ffcc,4,False,False,Bicycle,https://kisumu-drawings.s3-us-west-1.amazonaws.com/100-010.png,0.0,Airplane,100-010.png
,2123,image-button-response,53,,353640,685c6ca90f751d3aae6b1794,685c6e6cd54d2fe70c14ffcc,4,False,False,Tree,https://kisumu-drawings.s3-us-west-1.amazonaws.com/54-011.png,10.0,Tree,54-011.png
,9468,image-button-response,54,,363611,685c6ca90f751d3aae6b1794,685c6e6cd54d2fe70c14ffcc,4,False,False,Bird,https://kisumu-drawings.s3-us-west-1.amazonaws.com/73-008.png,2.0,Bird,73-008.png
,2307,image-button-response,55,,366427,685c6ca90f751d3aae6b1794,685c6e6cd54d2fe70c14ffcc,4,False,False,Watch,https://kisumu-drawings.s3-us-west-1.amazonaws.com/54-012.png,11.0,Watch,54-012.png
,1824,image-button-response,56,,368752,685c6ca90f751d3aae6b1794,685c6e6cd54d2fe70c14ffcc,4,False,False,Hat,https://kisumu-drawings.s3-us-west-1.amazonaws.com/72-011.png,5.0,Chair,72-011.png
,2329,image-button-response,57,,371584,685c6ca90f751d3aae6b1794,685c6e6cd54d2fe70c14ffcc,4,False,False,Car,https://kisumu-drawings.s3-us-west-1.amazonaws.com/73-012.png,3.0,Car,73-012.png
,5307,image-button-response,58,,377393,685c6ca90f751d3aae6b1794,685c6e6cd54d2fe70c14ffcc,4,False,False,Cat,https://kisumu-drawings.s3-us-west-1.amazonaws.com/112-016.png,2.0,Bird,112-016.png
,2991,image-button-response,59,,380899,685c6ca90f751d3aae6b1794,685c6e6cd54d2fe70c14ffcc,4,False,False,Cat,https://kisumu-drawings.s3-us-west-1.amazonaws.com/98-009.png,4.0,Cat,98-009.png
,1292,image-button-response,60,,382696,685c6ca90f751d3aae6b1794,685c6e6cd54d2fe70c14ffcc,4,False,False,Bird,https://kisumu-drawings.s3-us-west-1.amazonaws.com/114-015.png,2.0,Bird,114-015.png
,1261,image-button-response,61,,384459,685c6ca90f751d3aae6b1794,685c6e6cd54d2fe70c14ffcc,4,False,False,Car,https://kisumu-drawings.s3-us-west-1.amazonaws.com/12-010.png,3.0,Car,12-010.png
,5751,image-button-response,62,,390714,685c6ca90f751d3aae6b1794,685c6e6cd54d2fe70c14ffcc,4,False,False,Hat,https://kisumu-drawings.s3-us-west-1.amazonaws.com/10-015.png,11.0,Watch,10-015.png
,4569,image-button-response,63,,395787,685c6ca90f751d3aae6b1794,685c6e6cd54d2fe70c14ffcc,4,False,False,Bird,https://kisumu-drawings.s3-us-west-1.amazonaws.com/99-014.png,2.0,Bird,99-014.png
,4864,image-button-response,64,,401159,685c6ca90f751d3aae6b1794,685c6e6cd54d2fe70c14ffcc,4,False,False,Cup,https://kisumu-drawings.s3-us-west-1.amazonaws.com/31-011.png,3.0,Car,31-011.png
,1369,image-button-response,65,,403032,685c6ca90f751d3aae6b1794,685c6e6cd54d2fe70c14ffcc,4,False,False,Car,https://kisumu-drawings.s3-us-west-1.amazonaws.com/100-012.png,3.0,Car,100-012.png
,5391,image-button-response,66,,408932,685c6ca90f751d3aae6b1794,685c6e6cd54d2fe70c14ffcc,4,False,False,Airplane,https://kisumu-drawings.s3-us-west-1.amazonaws.com/14-012.png,11.0,Watch,14-012.png
,1828,image-button-response,67,,411263,685c6ca90f751d3aae6b1794,685c6e6cd54d2fe70c14ffcc,4,False,False,Car,https://kisumu-drawings.s3-us-west-1.amazonaws.com/113-015.png,3.0,Car,113-015.png
,1220,image-button-response,68,,412989,685c6ca90f751d3aae6b1794,685c6e6cd54d2fe70c14ffcc,4,False,False,Car,https://kisumu-drawings.s3-us-west-1.amazonaws.com/32-011.png,3.0,Car,32-011.png
,11372,image-button-response,69,,424876,685c6ca90f751d3aae6b1794,685c6e6cd54d2fe70c14ffcc,4,False,False,Watch,https://kisumu-drawings.s3-us-west-1.amazonaws.com/10-012.png,11.0,Watch,10-012.png
,2357,image-button-response,70,,427738,685c6ca90f751d3aae6b1794,685c6e6cd54d2fe70c14ffcc,4,False,False,Cat,https://kisumu-drawings.s3-us-west-1.amazonaws.com/72-014.png,4.0,Cat,72-014.png
,1712,image-button-response,71,,429956,685c6ca90f751d3aae6b1794,685c6e6cd54d2fe70c14ffcc,4,False,False,Airplane,https://kisumu-drawings.s3-us-west-1.amazonaws.com/74-015.png,0.0,Airplane,74-015.png
,1636,image-button-response,72,,432103,685c6ca90f751d3aae6b1794,685c6e6cd54d2fe70c14ffcc,4,False,False,Bicycle,https://kisumu-drawings.s3-us-west-1.amazonaws.com/114-014.png,1.0,Bicycle,114-014.png
,14739,image-button-response,73,,447342,685c6ca90f751d3aae6b1794,685c6e6cd54d2fe70c14ffcc,4,False,False,Airplane,https://kisumu-drawings.s3-us-west-1.amazonaws.com/42-016.png,5.0,Chair,42-016.png
,3144,image-button-response,74,,450988,685c6ca90f751d3aae6b1794,685c6e6cd54d2fe70c14ffcc,4,False,False,Cup,https://kisumu-drawings.s3-us-west-1.amazonaws.com/112-009.png,6.0,Cup,112-009.png
,2220,image-button-response,75,,453717,685c6ca90f751d3aae6b1794,685c6e6cd54d2fe70c14ffcc,4,False,False,Rabbit,https://kisumu-drawings.s3-us-west-1.amazonaws.com/54-016.png,4.0,Cat,54-016.png
