view_history,rt,trial_type,trial_index,plugin_version,time_elapsed,study_id,session_id,participant_id,catch_trial,prep_trial,sketcher_category,stimulus,response,response_category,sketch_id
"[{""page_index"":0,""viewing_time"":5976},{""page_index"":1,""viewing_time"":1582},{""page_index"":2,""viewing_time"":4938},{""page_index"":3,""viewing_time"":6011}]",18507,instructions,0,,18527,685c6ca90f751d3aae6b1794,685c6e13a3bc91461e7e5c6c,102,,,,,,,
,4743,image-button-response,1,,24281,685c6ca90f751d3aae6b1794,685c6e13a3bc91461e7e5c6c,102,False,True,car,stimuli/prep_trials/1_car_prep.png,3.0,Car,
,2017,image-button-response,2,,26804,685c6ca90f751d3aae6b1794,685c6e13a3bc91461e7e5c6c,102,False,True,cat,stimuli/prep_trials/0_cat_prep.jpg,4.0,Cat,
,14534,image-button-response,3,,41844,685c6ca90f751d3aae6b1794,685c6e13a3bc91461e7e5c6c,102,False,False,Watch,https://kisumu-drawings.s3-us-west-1.amazonaws.com/59-014.png,0.0,Airplane,59-014.png
,11730,image-button-response,4,,54079,685c6ca90f751d3aae6b1794,685c6e13a3bc91461e7e5c6c,102,False,False,Bicycle,https://kisumu-drawings.s3-us-west-1.amazonaws.com/34-013.png,0.0,Airplane,34-013.png
,6615,image-button-response,5,,61200,685c6ca90f751d3aae6b1794,685c6e13a3bc91461e7e5c6c,102,False,False,Hat,https://kisumu-drawings.s3-us-west-1.amazonaws.com/91-013.png,7.0,Hat,91-013.png
,13005,image-button-response,6,,74712,685c6ca90f751d3aae6b1794,685c6e13a3bc91461e7e5c6c,102,False,False,Tree,https://kisumu-drawings.s3-us-west-1.amazonaws.com/34-010.png,10.0,Tree,34-010.png
,9377,image-button-response,7,,84595,685c6ca90f751d3aae6b1794,685c6e13a3bc91461e7e5c6c,102,False,False,Chair,https://kisumu-drawings.s3-us-west-1.amazonaws.com/4-009.png,5.0,Chair,4-009.png
,5022,image-button-response,8,,90122,685c6ca90f751d3aae6b1794,685c6e13a3bc91461e7e5c6c,102,False,False,Car,https://kisumu-drawings.s3-us-west-1.amazonaws.com/91-006.png,3.0,Car,91-006.png
,7186,image-button-response,9,,97814,685c6ca90f751d3aae6b1794,685c6e13a3bc91461e7e5c6c,102,False,False,Cat,https://kisumu-drawings.s3-us-west-1.amazonaws.com/66-010.png,4.0,Cat,66-010.png
,4413,image-button-response,10,,102734,685c6ca90f751d3aae6b1794,685c6e13a3bc91461e7e5c6c,102,False,False,Hat,https://kisumu-drawings.s3-us-west-1.amazonaws.com/59-016.png,7.0,Hat,59-016.png
,14528,image-button-response,11,,117769,685c6ca90f751d3aae6b1794,685c6e13a3bc91461e7e5c6c,102,False,False,Rabbit,https://kisumu-drawings.s3-us-west-1.amazonaws.com/4-015.png,2.0,Bird,4-015.png
,8802,image-button-response,12,,127075,685c6ca90f751d3aae6b1794,685c6e13a3bc91461e7e5c6c,102,False,False,Watch,https://kisumu-drawings.s3-us-west-1.amazonaws.com/66-006.png,11.0,Watch,66-006.png
,41686,image-button-response,13,,169269,685c6ca90f751d3aae6b1794,685c6e13a3bc91461e7e5c6c,102,False,False,Car,https://kisumu-drawings.s3-us-west-1.amazonaws.com/66-009.png,0.0,Airplane,66-009.png
,6799,image-button-response,14,,176574,685c6ca90f751d3aae6b1794,685c6e13a3bc91461e7e5c6c,102,False,False,House,https://kisumu-drawings.s3-us-west-1.amazonaws.com/34-006.png,8.0,House,34-006.png
,3700,image-button-response,15,,180778,685c6ca90f751d3aae6b1794,685c6e13a3bc91461e7e5c6c,102,False,False,Bird,https://kisumu-drawings.s3-us-west-1.amazonaws.com/105-007.png,2.0,Bird,105-007.png
,4504,image-button-response,16,,185785,685c6ca90f751d3aae6b1794,685c6e13a3bc91461e7e5c6c,102,False,False,Chair,https://kisumu-drawings.s3-us-west-1.amazonaws.com/59-007.png,5.0,Chair,59-007.png
,4745,image-button-response,17,,191034,685c6ca90f751d3aae6b1794,685c6e13a3bc91461e7e5c6c,102,False,False,Cup,https://kisumu-drawings.s3-us-west-1.amazonaws.com/66-015.png,6.0,Cup,66-015.png
,5799,image-button-response,18,,197338,685c6ca90f751d3aae6b1794,685c6e13a3bc91461e7e5c6c,102,False,False,Airplane,https://kisumu-drawings.s3-us-west-1.amazonaws.com/66-011.png,4.0,Cat,66-011.png
,8750,image-button-response,19,,206595,685c6ca90f751d3aae6b1794,685c6e13a3bc91461e7e5c6c,102,False,False,Chair,https://kisumu-drawings.s3-us-west-1.amazonaws.com/34-014.png,5.0,Chair,34-014.png
,21642,image-button-response,20,,228743,685c6ca90f751d3aae6b1794,685c6e13a3bc91461e7e5c6c,102,False,False,Hat,https://kisumu-drawings.s3-us-west-1.amazonaws.com/34-007.png,10.0,Tree,34-007.png
,5505,image-button-response,21,,234754,685c6ca90f751d3aae6b1794,685c6e13a3bc91461e7e5c6c,102,False,False,Cat,https://kisumu-drawings.s3-us-west-1.amazonaws.com/34-016.png,2.0,Bird,34-016.png
,6754,image-button-response,22,,242012,685c6ca90f751d3aae6b1794,685c6e13a3bc91461e7e5c6c,102,False,False,Rabbit,https://kisumu-drawings.s3-us-west-1.amazonaws.com/105-012.png,9.0,Rabbit,105-012.png
,28449,image-button-response,23,,270967,685c6ca90f751d3aae6b1794,685c6e13a3bc91461e7e5c6c,102,False,False,Tree,https://kisumu-drawings.s3-us-west-1.amazonaws.com/91-009.png,10.0,Tree,91-009.png
,6645,image-button-response,24,,278117,685c6ca90f751d3aae6b1794,685c6e13a3bc91461e7e5c6c,102,False,False,Cup,https://kisumu-drawings.s3-us-west-1.amazonaws.com/34-005.png,6.0,Cup,34-005.png
,16041,image-button-response,25,,294663,685c6ca90f751d3aae6b1794,685c6e13a3bc91461e7e5c6c,102,False,False,Watch,https://kisumu-drawings.s3-us-west-1.amazonaws.com/105-005.png,8.0,House,105-005.png
,20451,image-button-response,26,,315618,685c6ca90f751d3aae6b1794,685c6e13a3bc91461e7e5c6c,102,False,False,House,https://kisumu-drawings.s3-us-west-1.amazonaws.com/66-007.png,8.0,House,66-007.png
,9780,image-button-response,27,,325903,685c6ca90f751d3aae6b1794,685c6e13a3bc91461e7e5c6c,102,False,False,Bird,https://kisumu-drawings.s3-us-west-1.amazonaws.com/4-005.png,2.0,Bird,4-005.png
,1699,image-button-response,28,,328106,685c6ca90f751d3aae6b1794,685c6e13a3bc91461e7e5c6c,102,True,False,airplane,stimuli/catch_trials/0_airplane_catch.jpg,0.0,Airplane,
,13376,image-button-response,29,,341988,685c6ca90f751d3aae6b1794,685c6e13a3bc91461e7e5c6c,102,False,False,Watch,https://kisumu-drawings.s3-us-west-1.amazonaws.com/4-016.png,2.0,Bird,4-016.png
,35218,image-button-response,30,,377711,685c6ca90f751d3aae6b1794,685c6e13a3bc91461e7e5c6c,102,False,False,Car,https://kisumu-drawings.s3-us-west-1.amazonaws.com/4-008.png,3.0,Car,4-008.png
,12788,image-button-response,31,,391003,685c6ca90f751d3aae6b1794,685c6e13a3bc91461e7e5c6c,102,False,False,Hat,https://kisumu-drawings.s3-us-west-1.amazonaws.com/105-015.png,11.0,Watch,105-015.png
,8146,image-button-response,32,,399653,685c6ca90f751d3aae6b1794,685c6e13a3bc91461e7e5c6c,102,False,False,Cat,https://kisumu-drawings.s3-us-west-1.amazonaws.com/91-007.png,4.0,Cat,91-007.png
,19039,image-button-response,33,,419197,685c6ca90f751d3aae6b1794,685c6e13a3bc91461e7e5c6c,102,False,False,Tree,https://kisumu-drawings.s3-us-west-1.amazonaws.com/66-005.png,10.0,Tree,66-005.png
,9223,image-button-response,34,,428924,685c6ca90f751d3aae6b1794,685c6e13a3bc91461e7e5c6c,102,False,False,Cat,https://kisumu-drawings.s3-us-west-1.amazonaws.com/105-010.png,4.0,Cat,105-010.png
,5224,image-button-response,35,,434653,685c6ca90f751d3aae6b1794,685c6e13a3bc91461e7e5c6c,102,False,False,Cup,https://kisumu-drawings.s3-us-west-1.amazonaws.com/105-011.png,6.0,Cup,105-011.png
,3580,image-button-response,36,,438737,685c6ca90f751d3aae6b1794,685c6e13a3bc91461e7e5c6c,102,False,False,Tree,https://kisumu-drawings.s3-us-west-1.amazonaws.com/59-005.png,10.0,Tree,59-005.png
,3639,image-button-response,37,,442881,685c6ca90f751d3aae6b1794,685c6e13a3bc91461e7e5c6c,102,False,False,Cat,https://kisumu-drawings.s3-us-west-1.amazonaws.com/4-010.png,4.0,Cat,4-010.png
,12607,image-button-response,38,,455993,685c6ca90f751d3aae6b1794,685c6e13a3bc91461e7e5c6c,102,False,False,Hat,https://kisumu-drawings.s3-us-west-1.amazonaws.com/66-016.png,10.0,Tree,66-016.png
,6583,image-button-response,39,,463080,685c6ca90f751d3aae6b1794,685c6e13a3bc91461e7e5c6c,102,False,False,Bicycle,https://kisumu-drawings.s3-us-west-1.amazonaws.com/59-012.png,3.0,Car,59-012.png
,4192,image-button-response,40,,467776,685c6ca90f751d3aae6b1794,685c6e13a3bc91461e7e5c6c,102,False,False,Airplane,https://kisumu-drawings.s3-us-west-1.amazonaws.com/105-009.png,0.0,Airplane,105-009.png
,2966,image-button-response,41,,471248,685c6ca90f751d3aae6b1794,685c6e13a3bc91461e7e5c6c,102,False,False,Airplane,https://kisumu-drawings.s3-us-west-1.amazonaws.com/4-006.png,0.0,Airplane,4-006.png
,4471,image-button-response,42,,476224,685c6ca90f751d3aae6b1794,685c6e13a3bc91461e7e5c6c,102,False,False,Chair,https://kisumu-drawings.s3-us-west-1.amazonaws.com/91-008.png,6.0,Cup,91-008.png
,4957,image-button-response,43,,481686,685c6ca90f751d3aae6b1794,685c6e13a3bc91461e7e5c6c,102,False,False,Tree,https://kisumu-drawings.s3-us-west-1.amazonaws.com/4-014.png,10.0,Tree,4-014.png
,7389,image-button-response,44,,489579,685c6ca90f751d3aae6b1794,685c6e13a3bc91461e7e5c6c,102,False,False,Bicycle,https://kisumu-drawings.s3-us-west-1.amazonaws.com/66-012.png,8.0,House,66-012.png
,4079,image-button-response,45,,494162,685c6ca90f751d3aae6b1794,685c6e13a3bc91461e7e5c6c,102,False,False,Tree,https://kisumu-drawings.s3-us-west-1.amazonaws.com/105-013.png,10.0,Tree,105-013.png
,4364,image-button-response,46,,499031,685c6ca90f751d3aae6b1794,685c6e13a3bc91461e7e5c6c,102,False,False,Car,https://kisumu-drawings.s3-us-west-1.amazonaws.com/59-010.png,3.0,Car,59-010.png
,3207,image-button-response,47,,502743,685c6ca90f751d3aae6b1794,685c6e13a3bc91461e7e5c6c,102,False,False,Cup,https://kisumu-drawings.s3-us-west-1.amazonaws.com/59-015.png,6.0,Cup,59-015.png
,2497,image-button-response,48,,505744,685c6ca90f751d3aae6b1794,685c6e13a3bc91461e7e5c6c,102,False,False,Airplane,https://kisumu-drawings.s3-us-west-1.amazonaws.com/59-011.png,0.0,Airplane,59-011.png
,1973,image-button-response,49,,508222,685c6ca90f751d3aae6b1794,685c6e13a3bc91461e7e5c6c,102,False,False,Cup,https://kisumu-drawings.s3-us-west-1.amazonaws.com/4-011.png,6.0,Cup,4-011.png
,23542,image-button-response,50,,532268,685c6ca90f751d3aae6b1794,685c6e13a3bc91461e7e5c6c,102,False,False,Airplane,https://kisumu-drawings.s3-us-west-1.amazonaws.com/34-011.png,1.0,Bicycle,34-011.png
,8387,image-button-response,51,,541158,685c6ca90f751d3aae6b1794,685c6e13a3bc91461e7e5c6c,102,False,False,Watch,https://kisumu-drawings.s3-us-west-1.amazonaws.com/91-010.png,0.0,Airplane,91-010.png
,3740,image-button-response,52,,545403,685c6ca90f751d3aae6b1794,685c6e13a3bc91461e7e5c6c,102,False,False,Bird,https://kisumu-drawings.s3-us-west-1.amazonaws.com/59-009.png,0.0,Airplane,59-009.png
,24116,image-button-response,53,,570023,685c6ca90f751d3aae6b1794,685c6e13a3bc91461e7e5c6c,102,False,False,Bird,https://kisumu-drawings.s3-us-west-1.amazonaws.com/91-011.png,0.0,Airplane,91-011.png
,4095,image-button-response,54,,574622,685c6ca90f751d3aae6b1794,685c6e13a3bc91461e7e5c6c,102,False,False,Car,https://kisumu-drawings.s3-us-west-1.amazonaws.com/105-008.png,3.0,Car,105-008.png
,3405,image-button-response,55,,578532,685c6ca90f751d3aae6b1794,685c6e13a3bc91461e7e5c6c,102,False,False,Cat,https://kisumu-drawings.s3-us-west-1.amazonaws.com/58-009.png,4.0,Cat,58-009.png
,3102,image-button-response,56,,582139,685c6ca90f751d3aae6b1794,685c6e13a3bc91461e7e5c6c,102,False,False,Bicycle,https://kisumu-drawings.s3-us-west-1.amazonaws.com/105-006.png,1.0,Bicycle,105-006.png
,5366,image-button-response,57,,588012,685c6ca90f751d3aae6b1794,685c6e13a3bc91461e7e5c6c,102,False,False,Bird,https://kisumu-drawings.s3-us-west-1.amazonaws.com/66-013.png,2.0,Bird,66-013.png
,3260,image-button-response,58,,591776,685c6ca90f751d3aae6b1794,685c6e13a3bc91461e7e5c6c,102,False,False,Bicycle,https://kisumu-drawings.s3-us-west-1.amazonaws.com/91-012.png,1.0,Bicycle,91-012.png
,4419,image-button-response,59,,596698,685c6ca90f751d3aae6b1794,685c6e13a3bc91461e7e5c6c,102,False,False,House,https://kisumu-drawings.s3-us-west-1.amazonaws.com/59-013.png,8.0,House,59-013.png
,4960,image-button-response,60,,602162,685c6ca90f751d3aae6b1794,685c6e13a3bc91461e7e5c6c,102,False,False,Bird,https://kisumu-drawings.s3-us-west-1.amazonaws.com/34-012.png,0.0,Airplane,34-012.png
,9977,image-button-response,61,,612643,685c6ca90f751d3aae6b1794,685c6e13a3bc91461e7e5c6c,102,False,False,Chair,https://kisumu-drawings.s3-us-west-1.amazonaws.com/66-014.png,5.0,Chair,66-014.png
,6193,image-button-response,62,,619341,685c6ca90f751d3aae6b1794,685c6e13a3bc91461e7e5c6c,102,False,False,Hat,https://kisumu-drawings.s3-us-west-1.amazonaws.com/4-013.png,2.0,Bird,4-013.png
,6022,image-button-response,63,,625867,685c6ca90f751d3aae6b1794,685c6e13a3bc91461e7e5c6c,102,False,False,Bicycle,https://kisumu-drawings.s3-us-west-1.amazonaws.com/4-007.png,4.0,Cat,4-007.png
,6632,image-button-response,64,,633003,685c6ca90f751d3aae6b1794,685c6e13a3bc91461e7e5c6c,102,False,False,House,https://kisumu-drawings.s3-us-west-1.amazonaws.com/4-012.png,0.0,Airplane,4-012.png
,12750,image-button-response,65,,646259,685c6ca90f751d3aae6b1794,685c6e13a3bc91461e7e5c6c,102,False,False,Rabbit,https://kisumu-drawings.s3-us-west-1.amazonaws.com/34-008.png,4.0,Cat,34-008.png
,5251,image-button-response,66,,652015,685c6ca90f751d3aae6b1794,685c6e13a3bc91461e7e5c6c,102,False,False,House,https://kisumu-drawings.s3-us-west-1.amazonaws.com/91-014.png,8.0,House,91-014.png
,2383,image-button-response,67,,654902,685c6ca90f751d3aae6b1794,685c6e13a3bc91461e7e5c6c,102,False,False,House,https://kisumu-drawings.s3-us-west-1.amazonaws.com/105-016.png,8.0,House,105-016.png
,10289,image-button-response,68,,665696,685c6ca90f751d3aae6b1794,685c6e13a3bc91461e7e5c6c,102,False,False,Rabbit,https://kisumu-drawings.s3-us-west-1.amazonaws.com/91-005.png,9.0,Rabbit,91-005.png
,3980,image-button-response,69,,670182,685c6ca90f751d3aae6b1794,685c6e13a3bc91461e7e5c6c,102,False,False,Rabbit,https://kisumu-drawings.s3-us-west-1.amazonaws.com/66-008.png,4.0,Cat,66-008.png
,2594,image-button-response,70,,673281,685c6ca90f751d3aae6b1794,685c6e13a3bc91461e7e5c6c,102,False,False,Chair,https://kisumu-drawings.s3-us-west-1.amazonaws.com/105-014.png,5.0,Chair,105-014.png
,2421,image-button-response,71,,676208,685c6ca90f751d3aae6b1794,685c6e13a3bc91461e7e5c6c,102,False,False,Car,https://kisumu-drawings.s3-us-west-1.amazonaws.com/34-015.png,3.0,Car,34-015.png
,10005,image-button-response,72,,686716,685c6ca90f751d3aae6b1794,685c6e13a3bc91461e7e5c6c,102,False,False,Airplane,https://kisumu-drawings.s3-us-west-1.amazonaws.com/91-016.png,0.0,Airplane,91-016.png
,20496,image-button-response,73,,707716,685c6ca90f751d3aae6b1794,685c6e13a3bc91461e7e5c6c,102,False,False,Rabbit,https://kisumu-drawings.s3-us-west-1.amazonaws.com/59-006.png,4.0,Cat,59-006.png
,4486,image-button-response,74,,712707,685c6ca90f751d3aae6b1794,685c6e13a3bc91461e7e5c6c,102,False,False,Watch,https://kisumu-drawings.s3-us-west-1.amazonaws.com/34-009.png,0.0,Airplane,34-009.png
,6780,image-button-response,75,,719992,685c6ca90f751d3aae6b1794,685c6e13a3bc91461e7e5c6c,102,False,False,Cup,https://kisumu-drawings.s3-us-west-1.amazonaws.com/91-015.png,6.0,Cup,91-015.png
