view_history,rt,trial_type,trial_index,plugin_version,time_elapsed,study_id,session_id,participant_id,catch_trial,prep_trial,sketcher_category,stimulus,response,response_category,sketch_id
"[{""page_index"":0,""viewing_time"":7806},{""page_index"":1,""viewing_time"":4402},{""page_index"":2,""viewing_time"":5017},{""page_index"":3,""viewing_time"":12412}]",29637,instructions,0,,29656,685c6ca90f751d3aae6b1794,685c6e0fb45fbdb8360336e6,5,,,,,,,
,3407,image-button-response,1,,34079,685c6ca90f751d3aae6b1794,685c6e0fb45fbdb8360336e6,5,False,True,car,stimuli/prep_trials/1_car_prep.png,3.0,Car,
,4599,image-button-response,2,,39190,685c6ca90f751d3aae6b1794,685c6e0fb45fbdb8360336e6,5,False,True,cat,stimuli/prep_trials/0_cat_prep.jpg,4.0,Cat,
,3507,image-button-response,3,,43205,685c6ca90f751d3aae6b1794,685c6e0fb45fbdb8360336e6,5,False,False,House,https://kisumu-drawings.s3-us-west-1.amazonaws.com/103-010.png,8.0,House,103-010.png
,27524,image-button-response,4,,71239,685c6ca90f751d3aae6b1794,685c6e0fb45fbdb8360336e6,5,False,False,Rabbit,https://kisumu-drawings.s3-us-west-1.amazonaws.com/103-008.png,4.0,Cat,103-008.png
,8613,image-button-response,5,,80364,685c6ca90f751d3aae6b1794,685c6e0fb45fbdb8360336e6,5,False,False,Bird,https://kisumu-drawings.s3-us-west-1.amazonaws.com/64-005.png,2.0,Bird,64-005.png
,27289,image-button-response,6,,108160,685c6ca90f751d3aae6b1794,685c6e0fb45fbdb8360336e6,5,False,False,Airplane,https://kisumu-drawings.s3-us-west-1.amazonaws.com/57-014.png,3.0,Car,57-014.png
,4630,image-button-response,7,,113294,685c6ca90f751d3aae6b1794,685c6e0fb45fbdb8360336e6,5,False,False,Tree,https://kisumu-drawings.s3-us-west-1.amazonaws.com/23-009.png,10.0,Tree,23-009.png
,2077,image-button-response,8,,115881,685c6ca90f751d3aae6b1794,685c6e0fb45fbdb8360336e6,5,False,False,Hat,https://kisumu-drawings.s3-us-west-1.amazonaws.com/103-009.png,7.0,Hat,103-009.png
,2951,image-button-response,9,,119345,685c6ca90f751d3aae6b1794,685c6e0fb45fbdb8360336e6,5,False,False,Bicycle,https://kisumu-drawings.s3-us-west-1.amazonaws.com/103-014.png,1.0,Bicycle,103-014.png
,2055,image-button-response,10,,121911,685c6ca90f751d3aae6b1794,685c6e0fb45fbdb8360336e6,5,False,False,Cup,https://kisumu-drawings.s3-us-west-1.amazonaws.com/64-011.png,6.0,Cup,64-011.png
,17954,image-button-response,11,,140373,685c6ca90f751d3aae6b1794,685c6e0fb45fbdb8360336e6,5,False,False,Cat,https://kisumu-drawings.s3-us-west-1.amazonaws.com/56-013.png,9.0,Rabbit,56-013.png
,2472,image-button-response,12,,143356,685c6ca90f751d3aae6b1794,685c6e0fb45fbdb8360336e6,5,False,False,House,https://kisumu-drawings.s3-us-west-1.amazonaws.com/89-015.png,8.0,House,89-015.png
,21195,image-button-response,13,,165064,685c6ca90f751d3aae6b1794,685c6e0fb45fbdb8360336e6,5,False,False,Tree,https://kisumu-drawings.s3-us-west-1.amazonaws.com/57-005.png,10.0,Tree,57-005.png
,2590,image-button-response,14,,168164,685c6ca90f751d3aae6b1794,685c6e0fb45fbdb8360336e6,5,False,False,Chair,https://kisumu-drawings.s3-us-west-1.amazonaws.com/89-007.png,5.0,Chair,89-007.png
,5007,image-button-response,15,,173681,685c6ca90f751d3aae6b1794,685c6e0fb45fbdb8360336e6,5,False,False,Car,https://kisumu-drawings.s3-us-west-1.amazonaws.com/2-016.png,3.0,Car,2-016.png
,19908,image-button-response,16,,194101,685c6ca90f751d3aae6b1794,685c6e0fb45fbdb8360336e6,5,False,False,Bicycle,https://kisumu-drawings.s3-us-west-1.amazonaws.com/23-016.png,9.0,Rabbit,23-016.png
,2109,image-button-response,17,,196722,685c6ca90f751d3aae6b1794,685c6e0fb45fbdb8360336e6,5,False,False,Cup,https://kisumu-drawings.s3-us-west-1.amazonaws.com/89-008.png,6.0,Cup,89-008.png
,1438,image-button-response,18,,198669,685c6ca90f751d3aae6b1794,685c6e0fb45fbdb8360336e6,5,False,False,Cup,https://kisumu-drawings.s3-us-west-1.amazonaws.com/57-010.png,6.0,Cup,57-010.png
,17280,image-button-response,19,,216458,685c6ca90f751d3aae6b1794,685c6e0fb45fbdb8360336e6,5,False,False,Hat,https://kisumu-drawings.s3-us-west-1.amazonaws.com/89-005.png,5.0,Chair,89-005.png
,5405,image-button-response,20,,222368,685c6ca90f751d3aae6b1794,685c6e0fb45fbdb8360336e6,5,False,False,Rabbit,https://kisumu-drawings.s3-us-west-1.amazonaws.com/57-016.png,9.0,Rabbit,57-016.png
,15583,image-button-response,21,,238461,685c6ca90f751d3aae6b1794,685c6e0fb45fbdb8360336e6,5,False,False,Airplane,https://kisumu-drawings.s3-us-west-1.amazonaws.com/89-014.png,0.0,Airplane,89-014.png
,17948,image-button-response,22,,256919,685c6ca90f751d3aae6b1794,685c6e0fb45fbdb8360336e6,5,False,False,Cat,https://kisumu-drawings.s3-us-west-1.amazonaws.com/64-006.png,2.0,Bird,64-006.png
,30634,image-button-response,23,,288066,685c6ca90f751d3aae6b1794,685c6e0fb45fbdb8360336e6,5,False,False,Airplane,https://kisumu-drawings.s3-us-west-1.amazonaws.com/2-013.png,0.0,Airplane,2-013.png
,3012,image-button-response,24,,291589,685c6ca90f751d3aae6b1794,685c6e0fb45fbdb8360336e6,5,False,False,Tree,https://kisumu-drawings.s3-us-west-1.amazonaws.com/64-010.png,10.0,Tree,64-010.png
,4304,image-button-response,25,,296403,685c6ca90f751d3aae6b1794,685c6e0fb45fbdb8360336e6,5,False,False,Chair,https://kisumu-drawings.s3-us-west-1.amazonaws.com/64-012.png,5.0,Chair,64-012.png
,10551,image-button-response,26,,307466,685c6ca90f751d3aae6b1794,685c6e0fb45fbdb8360336e6,5,False,False,Airplane,https://kisumu-drawings.s3-us-west-1.amazonaws.com/64-016.png,0.0,Airplane,64-016.png
,1965,image-button-response,27,,309939,685c6ca90f751d3aae6b1794,685c6e0fb45fbdb8360336e6,5,False,False,Cup,https://kisumu-drawings.s3-us-west-1.amazonaws.com/103-006.png,6.0,Cup,103-006.png
,10585,image-button-response,28,,321032,685c6ca90f751d3aae6b1794,685c6e0fb45fbdb8360336e6,5,False,False,Rabbit,https://kisumu-drawings.s3-us-west-1.amazonaws.com/2-010.png,11.0,Watch,2-010.png
,5914,image-button-response,29,,327451,685c6ca90f751d3aae6b1794,685c6e0fb45fbdb8360336e6,5,False,False,Cat,https://kisumu-drawings.s3-us-west-1.amazonaws.com/2-015.png,4.0,Cat,2-015.png
,2399,image-button-response,30,,330358,685c6ca90f751d3aae6b1794,685c6e0fb45fbdb8360336e6,5,False,False,Watch,https://kisumu-drawings.s3-us-west-1.amazonaws.com/57-006.png,11.0,Watch,57-006.png
,2293,image-button-response,31,,333157,685c6ca90f751d3aae6b1794,685c6e0fb45fbdb8360336e6,5,False,False,Chair,https://kisumu-drawings.s3-us-west-1.amazonaws.com/57-009.png,5.0,Chair,57-009.png
,32733,image-button-response,32,,366399,685c6ca90f751d3aae6b1794,685c6e0fb45fbdb8360336e6,5,False,False,Airplane,https://kisumu-drawings.s3-us-west-1.amazonaws.com/23-012.png,8.0,House,23-012.png
,2777,image-button-response,33,,369688,685c6ca90f751d3aae6b1794,685c6e0fb45fbdb8360336e6,5,False,False,Watch,https://kisumu-drawings.s3-us-west-1.amazonaws.com/64-009.png,11.0,Watch,64-009.png
,2873,image-button-response,34,,373069,685c6ca90f751d3aae6b1794,685c6e0fb45fbdb8360336e6,5,False,False,Bird,https://kisumu-drawings.s3-us-west-1.amazonaws.com/57-012.png,2.0,Bird,57-012.png
,1651,image-button-response,35,,375229,685c6ca90f751d3aae6b1794,685c6e0fb45fbdb8360336e6,5,False,False,Watch,https://kisumu-drawings.s3-us-west-1.amazonaws.com/89-009.png,11.0,Watch,89-009.png
,17781,image-button-response,36,,393519,685c6ca90f751d3aae6b1794,685c6e0fb45fbdb8360336e6,5,False,False,Watch,https://kisumu-drawings.s3-us-west-1.amazonaws.com/103-012.png,11.0,Watch,103-012.png
,2247,image-button-response,37,,396279,685c6ca90f751d3aae6b1794,685c6e0fb45fbdb8360336e6,5,False,False,Bicycle,https://kisumu-drawings.s3-us-west-1.amazonaws.com/57-011.png,1.0,Bicycle,57-011.png
,1938,image-button-response,38,,398726,685c6ca90f751d3aae6b1794,685c6e0fb45fbdb8360336e6,5,False,False,Chair,https://kisumu-drawings.s3-us-west-1.amazonaws.com/2-005.png,5.0,Chair,2-005.png
,35755,image-button-response,39,,434996,685c6ca90f751d3aae6b1794,685c6e0fb45fbdb8360336e6,5,False,False,Hat,https://kisumu-drawings.s3-us-west-1.amazonaws.com/57-007.png,7.0,Hat,57-007.png
,4271,image-button-response,40,,439779,685c6ca90f751d3aae6b1794,685c6e0fb45fbdb8360336e6,5,False,False,Hat,https://kisumu-drawings.s3-us-west-1.amazonaws.com/64-013.png,7.0,Hat,64-013.png
,6693,image-button-response,41,,446981,685c6ca90f751d3aae6b1794,685c6e0fb45fbdb8360336e6,5,False,False,Watch,https://kisumu-drawings.s3-us-west-1.amazonaws.com/2-011.png,11.0,Watch,2-011.png
,2594,image-button-response,42,,450083,685c6ca90f751d3aae6b1794,685c6e0fb45fbdb8360336e6,5,False,False,Tree,https://kisumu-drawings.s3-us-west-1.amazonaws.com/89-006.png,10.0,Tree,89-006.png
,3468,image-button-response,43,,454059,685c6ca90f751d3aae6b1794,685c6e0fb45fbdb8360336e6,5,False,False,Chair,https://kisumu-drawings.s3-us-west-1.amazonaws.com/103-013.png,5.0,Chair,103-013.png
,27487,image-button-response,44,,482055,685c6ca90f751d3aae6b1794,685c6e0fb45fbdb8360336e6,5,False,False,Bird,https://kisumu-drawings.s3-us-west-1.amazonaws.com/23-010.png,7.0,Hat,23-010.png
,14812,image-button-response,45,,497379,685c6ca90f751d3aae6b1794,685c6e0fb45fbdb8360336e6,5,False,False,Hat,https://kisumu-drawings.s3-us-west-1.amazonaws.com/2-006.png,7.0,Hat,2-006.png
,8417,image-button-response,46,,506306,685c6ca90f751d3aae6b1794,685c6e0fb45fbdb8360336e6,5,False,False,Rabbit,https://kisumu-drawings.s3-us-west-1.amazonaws.com/23-008.png,2.0,Bird,23-008.png
,1989,image-button-response,47,,508804,685c6ca90f751d3aae6b1794,685c6e0fb45fbdb8360336e6,5,False,False,House,https://kisumu-drawings.s3-us-west-1.amazonaws.com/64-008.png,8.0,House,64-008.png
,2862,image-button-response,48,,512180,685c6ca90f751d3aae6b1794,685c6e0fb45fbdb8360336e6,5,False,False,House,https://kisumu-drawings.s3-us-west-1.amazonaws.com/2-008.png,8.0,House,2-008.png
,1333,image-button-response,49,,514022,685c6ca90f751d3aae6b1794,685c6e0fb45fbdb8360336e6,5,False,False,House,https://kisumu-drawings.s3-us-west-1.amazonaws.com/57-015.png,8.0,House,57-015.png
,4914,image-button-response,50,,519445,685c6ca90f751d3aae6b1794,685c6e0fb45fbdb8360336e6,5,False,False,Bicycle,https://kisumu-drawings.s3-us-west-1.amazonaws.com/2-012.png,3.0,Car,2-012.png
,33831,image-button-response,51,,553781,685c6ca90f751d3aae6b1794,685c6e0fb45fbdb8360336e6,5,False,False,Bird,https://kisumu-drawings.s3-us-west-1.amazonaws.com/2-014.png,2.0,Bird,2-014.png
,5348,image-button-response,52,,559636,685c6ca90f751d3aae6b1794,685c6e0fb45fbdb8360336e6,5,False,False,Car,https://kisumu-drawings.s3-us-west-1.amazonaws.com/57-013.png,3.0,Car,57-013.png
,2084,image-button-response,53,,562229,685c6ca90f751d3aae6b1794,685c6e0fb45fbdb8360336e6,5,False,False,Hat,https://kisumu-drawings.s3-us-west-1.amazonaws.com/23-014.png,7.0,Hat,23-014.png
,5538,image-button-response,54,,568278,685c6ca90f751d3aae6b1794,685c6e0fb45fbdb8360336e6,5,False,False,Cat,https://kisumu-drawings.s3-us-west-1.amazonaws.com/89-010.png,4.0,Cat,89-010.png
,2968,image-button-response,55,,571760,685c6ca90f751d3aae6b1794,685c6e0fb45fbdb8360336e6,5,False,False,Airplane,https://kisumu-drawings.s3-us-west-1.amazonaws.com/103-005.png,0.0,Airplane,103-005.png
,10613,image-button-response,56,,582884,685c6ca90f751d3aae6b1794,685c6e0fb45fbdb8360336e6,5,False,False,Rabbit,https://kisumu-drawings.s3-us-west-1.amazonaws.com/89-016.png,4.0,Cat,89-016.png
,4965,image-button-response,57,,588358,685c6ca90f751d3aae6b1794,685c6e0fb45fbdb8360336e6,5,False,False,Cat,https://kisumu-drawings.s3-us-west-1.amazonaws.com/103-011.png,4.0,Cat,103-011.png
,17327,image-button-response,58,,606189,685c6ca90f751d3aae6b1794,685c6e0fb45fbdb8360336e6,5,False,False,Car,https://kisumu-drawings.s3-us-west-1.amazonaws.com/23-011.png,0.0,Airplane,23-011.png
,26826,image-button-response,59,,633525,685c6ca90f751d3aae6b1794,685c6e0fb45fbdb8360336e6,5,False,False,Cat,https://kisumu-drawings.s3-us-west-1.amazonaws.com/23-006.png,5.0,Chair,23-006.png
,1804,image-button-response,60,,635839,685c6ca90f751d3aae6b1794,685c6e0fb45fbdb8360336e6,5,True,False,airplane,stimuli/catch_trials/0_airplane_catch.jpg,0.0,Airplane,
,7248,image-button-response,61,,643597,685c6ca90f751d3aae6b1794,685c6e0fb45fbdb8360336e6,5,False,False,Bicycle,https://kisumu-drawings.s3-us-west-1.amazonaws.com/89-011.png,1.0,Bicycle,89-011.png
,16595,image-button-response,62,,660704,685c6ca90f751d3aae6b1794,685c6e0fb45fbdb8360336e6,5,False,False,Car,https://kisumu-drawings.s3-us-west-1.amazonaws.com/64-014.png,7.0,Hat,64-014.png
,5091,image-button-response,63,,666304,685c6ca90f751d3aae6b1794,685c6e0fb45fbdb8360336e6,5,False,False,Car,https://kisumu-drawings.s3-us-west-1.amazonaws.com/89-013.png,3.0,Car,89-013.png
,2559,image-button-response,64,,669373,685c6ca90f751d3aae6b1794,685c6e0fb45fbdb8360336e6,5,False,False,Watch,https://kisumu-drawings.s3-us-west-1.amazonaws.com/23-007.png,7.0,Hat,23-007.png
,2435,image-button-response,65,,672320,685c6ca90f751d3aae6b1794,685c6e0fb45fbdb8360336e6,5,False,False,Rabbit,https://kisumu-drawings.s3-us-west-1.amazonaws.com/64-007.png,2.0,Bird,64-007.png
,3219,image-button-response,66,,676049,685c6ca90f751d3aae6b1794,685c6e0fb45fbdb8360336e6,5,False,False,House,https://kisumu-drawings.s3-us-west-1.amazonaws.com/23-015.png,8.0,House,23-015.png
,2343,image-button-response,67,,678899,685c6ca90f751d3aae6b1794,685c6e0fb45fbdb8360336e6,5,False,False,Chair,https://kisumu-drawings.s3-us-west-1.amazonaws.com/23-005.png,5.0,Chair,23-005.png
,17217,image-button-response,68,,696625,685c6ca90f751d3aae6b1794,685c6e0fb45fbdb8360336e6,5,False,False,Bird,https://kisumu-drawings.s3-us-west-1.amazonaws.com/89-012.png,0.0,Airplane,89-012.png
,2321,image-button-response,69,,699454,685c6ca90f751d3aae6b1794,685c6e0fb45fbdb8360336e6,5,False,False,Car,https://kisumu-drawings.s3-us-west-1.amazonaws.com/103-016.png,3.0,Car,103-016.png
,40425,image-button-response,70,,740389,685c6ca90f751d3aae6b1794,685c6e0fb45fbdb8360336e6,5,False,False,Bicycle,https://kisumu-drawings.s3-us-west-1.amazonaws.com/64-015.png,1.0,Bicycle,64-015.png
,2450,image-button-response,71,,743352,685c6ca90f751d3aae6b1794,685c6e0fb45fbdb8360336e6,5,False,False,Cup,https://kisumu-drawings.s3-us-west-1.amazonaws.com/23-013.png,6.0,Cup,23-013.png
,10594,image-button-response,72,,754460,685c6ca90f751d3aae6b1794,685c6e0fb45fbdb8360336e6,5,False,False,Cup,https://kisumu-drawings.s3-us-west-1.amazonaws.com/2-007.png,6.0,Cup,2-007.png
,11354,image-button-response,73,,766324,685c6ca90f751d3aae6b1794,685c6e0fb45fbdb8360336e6,5,False,False,Tree,https://kisumu-drawings.s3-us-west-1.amazonaws.com/2-009.png,10.0,Tree,2-009.png
,1706,image-button-response,74,,768542,685c6ca90f751d3aae6b1794,685c6e0fb45fbdb8360336e6,5,False,False,Tree,https://kisumu-drawings.s3-us-west-1.amazonaws.com/103-007.png,10.0,Tree,103-007.png
,2484,image-button-response,75,,771539,685c6ca90f751d3aae6b1794,685c6e0fb45fbdb8360336e6,5,False,False,Bird,https://kisumu-drawings.s3-us-west-1.amazonaws.com/103-015.png,2.0,Bird,103-015.png
