view_history,rt,trial_type,trial_index,plugin_version,time_elapsed,study_id,session_id,participant_id,catch_trial,prep_trial,sketcher_category,stimulus,response,response_category,sketch_id
"[{""page_index"":0,""viewing_time"":8276},{""page_index"":1,""viewing_time"":3941},{""page_index"":2,""viewing_time"":4921},{""page_index"":3,""viewing_time"":8734}]",25872,instructions,0,,25879,685c6ca90f751d3aae6b1794,685c6e3633033b4721211541,120,,,,,,,
,5145,image-button-response,1,,32031,685c6ca90f751d3aae6b1794,685c6e3633033b4721211541,120,False,True,car,stimuli/prep_trials/1_car_prep.png,3.0,Car,
,2681,image-button-response,2,,35226,685c6ca90f751d3aae6b1794,685c6e3633033b4721211541,120,False,True,cat,stimuli/prep_trials/0_cat_prep.jpg,4.0,Cat,
,3678,image-button-response,3,,39406,685c6ca90f751d3aae6b1794,685c6e3633033b4721211541,120,False,False,Chair,https://kisumu-drawings.s3-us-west-1.amazonaws.com/63-013.png,5.0,Chair,63-013.png
,18410,image-button-response,4,,58319,685c6ca90f751d3aae6b1794,685c6e3633033b4721211541,120,False,False,Airplane,https://kisumu-drawings.s3-us-west-1.amazonaws.com/108-014.png,0.0,Airplane,108-014.png
,67274,image-button-response,5,,126095,685c6ca90f751d3aae6b1794,685c6e3633033b4721211541,120,False,False,Bird,https://kisumu-drawings.s3-us-west-1.amazonaws.com/51-008.png,0.0,Airplane,51-008.png
,9289,image-button-response,6,,135888,685c6ca90f751d3aae6b1794,685c6e3633033b4721211541,120,False,False,Rabbit,https://kisumu-drawings.s3-us-west-1.amazonaws.com/107-005.png,4.0,Cat,107-005.png
,8849,image-button-response,7,,145238,685c6ca90f751d3aae6b1794,685c6e3633033b4721211541,120,False,False,Bicycle,https://kisumu-drawings.s3-us-west-1.amazonaws.com/7-008.png,3.0,Car,7-008.png
,2206,image-button-response,8,,147959,685c6ca90f751d3aae6b1794,685c6e3633033b4721211541,120,False,False,Car,https://kisumu-drawings.s3-us-west-1.amazonaws.com/27-016.png,3.0,Car,27-016.png
,71941,image-button-response,9,,220414,685c6ca90f751d3aae6b1794,685c6e3633033b4721211541,120,False,False,Car,https://kisumu-drawings.s3-us-west-1.amazonaws.com/7-006.png,5.0,Chair,7-006.png
,2481,image-button-response,10,,223398,685c6ca90f751d3aae6b1794,685c6e3633033b4721211541,120,False,False,Bicycle,https://kisumu-drawings.s3-us-west-1.amazonaws.com/63-012.png,1.0,Bicycle,63-012.png
,1351,image-button-response,11,,225253,685c6ca90f751d3aae6b1794,685c6e3633033b4721211541,120,True,False,airplane,stimuli/catch_trials/0_airplane_catch.jpg,0.0,Airplane,
,6388,image-button-response,12,,232153,685c6ca90f751d3aae6b1794,685c6e3633033b4721211541,120,False,False,Cup,https://kisumu-drawings.s3-us-west-1.amazonaws.com/51-010.png,6.0,Cup,51-010.png
,2119,image-button-response,13,,234784,685c6ca90f751d3aae6b1794,685c6e3633033b4721211541,120,False,False,House,https://kisumu-drawings.s3-us-west-1.amazonaws.com/107-006.png,8.0,House,107-006.png
,19908,image-button-response,14,,255194,685c6ca90f751d3aae6b1794,685c6e3633033b4721211541,120,False,False,Bicycle,https://kisumu-drawings.s3-us-west-1.amazonaws.com/27-006.png,7.0,Hat,27-006.png
,1815,image-button-response,15,,257511,685c6ca90f751d3aae6b1794,685c6e3633033b4721211541,120,False,False,House,https://kisumu-drawings.s3-us-west-1.amazonaws.com/26-014.png,8.0,House,26-014.png
,2011,image-button-response,16,,260023,685c6ca90f751d3aae6b1794,685c6e3633033b4721211541,120,False,False,Chair,https://kisumu-drawings.s3-us-west-1.amazonaws.com/51-009.png,5.0,Chair,51-009.png
,2013,image-button-response,17,,262538,685c6ca90f751d3aae6b1794,685c6e3633033b4721211541,120,False,False,Cup,https://kisumu-drawings.s3-us-west-1.amazonaws.com/7-012.png,6.0,Cup,7-012.png
,1529,image-button-response,18,,264572,685c6ca90f751d3aae6b1794,685c6e3633033b4721211541,120,False,False,Cup,https://kisumu-drawings.s3-us-west-1.amazonaws.com/63-015.png,6.0,Cup,63-015.png
,6281,image-button-response,19,,271363,685c6ca90f751d3aae6b1794,685c6e3633033b4721211541,120,False,False,Rabbit,https://kisumu-drawings.s3-us-west-1.amazonaws.com/68-005.png,9.0,Rabbit,68-005.png
,7652,image-button-response,20,,279520,685c6ca90f751d3aae6b1794,685c6e3633033b4721211541,120,False,False,Cat,https://kisumu-drawings.s3-us-west-1.amazonaws.com/51-016.png,4.0,Cat,51-016.png
,3691,image-button-response,21,,283718,685c6ca90f751d3aae6b1794,685c6e3633033b4721211541,120,False,False,Car,https://kisumu-drawings.s3-us-west-1.amazonaws.com/51-015.png,3.0,Car,51-015.png
,11210,image-button-response,22,,295434,685c6ca90f751d3aae6b1794,685c6e3633033b4721211541,120,False,False,Airplane,https://kisumu-drawings.s3-us-west-1.amazonaws.com/95-009.png,0.0,Airplane,95-009.png
,2056,image-button-response,23,,297998,685c6ca90f751d3aae6b1794,685c6e3633033b4721211541,120,False,False,House,https://kisumu-drawings.s3-us-west-1.amazonaws.com/93-010.png,8.0,House,93-010.png
,12192,image-button-response,24,,310700,685c6ca90f751d3aae6b1794,685c6e3633033b4721211541,120,False,False,Bird,https://kisumu-drawings.s3-us-west-1.amazonaws.com/7-010.png,10.0,Tree,7-010.png
,5766,image-button-response,25,,316978,685c6ca90f751d3aae6b1794,685c6e3633033b4721211541,120,False,False,Bird,https://kisumu-drawings.s3-us-west-1.amazonaws.com/27-007.png,2.0,Bird,27-007.png
,2039,image-button-response,26,,319530,685c6ca90f751d3aae6b1794,685c6e3633033b4721211541,120,False,False,Tree,https://kisumu-drawings.s3-us-west-1.amazonaws.com/26-016.png,10.0,Tree,26-016.png
,1398,image-button-response,27,,321430,685c6ca90f751d3aae6b1794,685c6e3633033b4721211541,120,False,False,Tree,https://kisumu-drawings.s3-us-west-1.amazonaws.com/93-014.png,10.0,Tree,93-014.png
,1619,image-button-response,28,,323558,685c6ca90f751d3aae6b1794,685c6e3633033b4721211541,120,False,False,Watch,https://kisumu-drawings.s3-us-west-1.amazonaws.com/107-011.png,11.0,Watch,107-011.png
,2152,image-button-response,29,,326212,685c6ca90f751d3aae6b1794,685c6e3633033b4721211541,120,False,False,Chair,https://kisumu-drawings.s3-us-west-1.amazonaws.com/27-011.png,6.0,Cup,27-011.png
,3390,image-button-response,30,,330103,685c6ca90f751d3aae6b1794,685c6e3633033b4721211541,120,False,False,Tree,https://kisumu-drawings.s3-us-west-1.amazonaws.com/107-010.png,10.0,Tree,107-010.png
,1556,image-button-response,31,,332173,685c6ca90f751d3aae6b1794,685c6e3633033b4721211541,120,False,False,Bird,https://kisumu-drawings.s3-us-west-1.amazonaws.com/63-011.png,2.0,Bird,63-011.png
,2283,image-button-response,32,,334957,685c6ca90f751d3aae6b1794,685c6e3633033b4721211541,120,False,False,Car,https://kisumu-drawings.s3-us-west-1.amazonaws.com/63-007.png,3.0,Car,63-007.png
,37352,image-button-response,33,,372810,685c6ca90f751d3aae6b1794,685c6e3633033b4721211541,120,False,False,Cat,https://kisumu-drawings.s3-us-west-1.amazonaws.com/7-005.png,10.0,Tree,7-005.png
,1856,image-button-response,34,,375172,685c6ca90f751d3aae6b1794,685c6e3633033b4721211541,120,False,False,House,https://kisumu-drawings.s3-us-west-1.amazonaws.com/68-014.png,8.0,House,68-014.png
,1333,image-button-response,35,,377014,685c6ca90f751d3aae6b1794,685c6e3633033b4721211541,120,False,False,Chair,https://kisumu-drawings.s3-us-west-1.amazonaws.com/108-007.png,5.0,Chair,108-007.png
,1971,image-button-response,36,,379487,685c6ca90f751d3aae6b1794,685c6e3633033b4721211541,120,False,False,Bird,https://kisumu-drawings.s3-us-west-1.amazonaws.com/108-011.png,2.0,Bird,108-011.png
,1739,image-button-response,37,,381728,685c6ca90f751d3aae6b1794,685c6e3633033b4721211541,120,False,False,Cat,https://kisumu-drawings.s3-us-west-1.amazonaws.com/27-008.png,2.0,Bird,27-008.png
,1782,image-button-response,38,,384018,685c6ca90f751d3aae6b1794,685c6e3633033b4721211541,120,False,False,Car,https://kisumu-drawings.s3-us-west-1.amazonaws.com/108-013.png,3.0,Car,108-013.png
,28547,image-button-response,39,,413071,685c6ca90f751d3aae6b1794,685c6e3633033b4721211541,120,False,False,Watch,https://kisumu-drawings.s3-us-west-1.amazonaws.com/6-015.png,10.0,Tree,6-015.png
,7025,image-button-response,40,,420597,685c6ca90f751d3aae6b1794,685c6e3633033b4721211541,120,False,False,Hat,https://kisumu-drawings.s3-us-west-1.amazonaws.com/107-007.png,11.0,Watch,107-007.png
,5005,image-button-response,41,,426107,685c6ca90f751d3aae6b1794,685c6e3633033b4721211541,120,False,False,Cup,https://kisumu-drawings.s3-us-west-1.amazonaws.com/27-014.png,6.0,Cup,27-014.png
,6209,image-button-response,42,,432828,685c6ca90f751d3aae6b1794,685c6e3633033b4721211541,120,False,False,Chair,https://kisumu-drawings.s3-us-west-1.amazonaws.com/94-010.png,5.0,Chair,94-010.png
,2102,image-button-response,43,,435431,685c6ca90f751d3aae6b1794,685c6e3633033b4721211541,120,False,False,Hat,https://kisumu-drawings.s3-us-west-1.amazonaws.com/26-011.png,6.0,Cup,26-011.png
,5594,image-button-response,44,,441531,685c6ca90f751d3aae6b1794,685c6e3633033b4721211541,120,False,False,Airplane,https://kisumu-drawings.s3-us-west-1.amazonaws.com/52-015.png,5.0,Chair,52-015.png
,1527,image-button-response,45,,443564,685c6ca90f751d3aae6b1794,685c6e3633033b4721211541,120,False,False,Watch,https://kisumu-drawings.s3-us-west-1.amazonaws.com/26-015.png,11.0,Watch,26-015.png
,5073,image-button-response,46,,449144,685c6ca90f751d3aae6b1794,685c6e3633033b4721211541,120,False,False,Rabbit,https://kisumu-drawings.s3-us-west-1.amazonaws.com/6-008.png,7.0,Hat,6-008.png
,20892,image-button-response,47,,470540,685c6ca90f751d3aae6b1794,685c6e3633033b4721211541,120,False,False,Bicycle,https://kisumu-drawings.s3-us-west-1.amazonaws.com/51-007.png,2.0,Bird,51-007.png
,2080,image-button-response,48,,473129,685c6ca90f751d3aae6b1794,685c6e3633033b4721211541,120,False,False,Bicycle,https://kisumu-drawings.s3-us-west-1.amazonaws.com/94-012.png,1.0,Bicycle,94-012.png
,5765,image-button-response,49,,479409,685c6ca90f751d3aae6b1794,685c6e3633033b4721211541,120,False,False,Cat,https://kisumu-drawings.s3-us-west-1.amazonaws.com/108-015.png,4.0,Cat,108-015.png
,1865,image-button-response,50,,481775,685c6ca90f751d3aae6b1794,685c6e3633033b4721211541,120,False,False,Cup,https://kisumu-drawings.s3-us-west-1.amazonaws.com/107-008.png,6.0,Cup,107-008.png
,20975,image-button-response,51,,503260,685c6ca90f751d3aae6b1794,685c6e3633033b4721211541,120,False,False,Rabbit,https://kisumu-drawings.s3-us-west-1.amazonaws.com/26-013.png,10.0,Tree,26-013.png
,2407,image-button-response,52,,506181,685c6ca90f751d3aae6b1794,685c6e3633033b4721211541,120,False,False,Cat,https://kisumu-drawings.s3-us-west-1.amazonaws.com/63-008.png,4.0,Cat,63-008.png
,7934,image-button-response,53,,514622,685c6ca90f751d3aae6b1794,685c6e3633033b4721211541,120,False,False,Tree,https://kisumu-drawings.s3-us-west-1.amazonaws.com/6-014.png,10.0,Tree,6-014.png
,13067,image-button-response,54,,528190,685c6ca90f751d3aae6b1794,685c6e3633033b4721211541,120,False,False,Airplane,https://kisumu-drawings.s3-us-west-1.amazonaws.com/28-006.png,0.0,Airplane,28-006.png
,2918,image-button-response,55,,531611,685c6ca90f751d3aae6b1794,685c6e3633033b4721211541,120,False,False,Car,https://kisumu-drawings.s3-us-west-1.amazonaws.com/94-014.png,3.0,Car,94-014.png
,3403,image-button-response,56,,535527,685c6ca90f751d3aae6b1794,685c6e3633033b4721211541,120,False,False,Rabbit,https://kisumu-drawings.s3-us-west-1.amazonaws.com/50-008.png,4.0,Cat,50-008.png
,17929,image-button-response,57,,553960,685c6ca90f751d3aae6b1794,685c6e3633033b4721211541,120,False,False,Watch,https://kisumu-drawings.s3-us-west-1.amazonaws.com/50-010.png,7.0,Hat,50-010.png
,2068,image-button-response,58,,556532,685c6ca90f751d3aae6b1794,685c6e3633033b4721211541,120,False,False,Tree,https://kisumu-drawings.s3-us-west-1.amazonaws.com/68-015.png,10.0,Tree,68-015.png
,22267,image-button-response,59,,579305,685c6ca90f751d3aae6b1794,685c6e3633033b4721211541,120,False,False,Bicycle,https://kisumu-drawings.s3-us-west-1.amazonaws.com/108-016.png,1.0,Bicycle,108-016.png
,2066,image-button-response,60,,581877,685c6ca90f751d3aae6b1794,685c6e3633033b4721211541,120,False,False,Hat,https://kisumu-drawings.s3-us-west-1.amazonaws.com/68-013.png,7.0,Hat,68-013.png
,14748,image-button-response,61,,597137,685c6ca90f751d3aae6b1794,685c6e3633033b4721211541,120,False,False,Rabbit,https://kisumu-drawings.s3-us-west-1.amazonaws.com/93-012.png,4.0,Cat,93-012.png
,10295,image-button-response,62,,607933,685c6ca90f751d3aae6b1794,685c6e3633033b4721211541,120,False,False,Airplane,https://kisumu-drawings.s3-us-west-1.amazonaws.com/8-015.png,0.0,Airplane,8-015.png
,1788,image-button-response,63,,610223,685c6ca90f751d3aae6b1794,685c6e3633033b4721211541,120,False,False,Hat,https://kisumu-drawings.s3-us-west-1.amazonaws.com/93-008.png,7.0,Hat,93-008.png
,12264,image-button-response,64,,623000,685c6ca90f751d3aae6b1794,685c6e3633033b4721211541,120,False,False,Hat,https://kisumu-drawings.s3-us-west-1.amazonaws.com/6-005.png,7.0,Hat,6-005.png
,1965,image-button-response,65,,625471,685c6ca90f751d3aae6b1794,685c6e3633033b4721211541,120,False,False,House,https://kisumu-drawings.s3-us-west-1.amazonaws.com/6-006.png,7.0,Hat,6-006.png
,1535,image-button-response,66,,627522,685c6ca90f751d3aae6b1794,685c6e3633033b4721211541,120,False,False,House,https://kisumu-drawings.s3-us-west-1.amazonaws.com/50-007.png,8.0,House,50-007.png
,1589,image-button-response,67,,629612,685c6ca90f751d3aae6b1794,685c6e3633033b4721211541,120,False,False,Tree,https://kisumu-drawings.s3-us-west-1.amazonaws.com/50-009.png,10.0,Tree,50-009.png
,1694,image-button-response,68,,631809,685c6ca90f751d3aae6b1794,685c6e3633033b4721211541,120,False,False,Watch,https://kisumu-drawings.s3-us-west-1.amazonaws.com/93-016.png,11.0,Watch,93-016.png
,6545,image-button-response,69,,638860,685c6ca90f751d3aae6b1794,685c6e3633033b4721211541,120,False,False,Bird,https://kisumu-drawings.s3-us-west-1.amazonaws.com/94-013.png,4.0,Cat,94-013.png
,1717,image-button-response,70,,641083,685c6ca90f751d3aae6b1794,685c6e3633033b4721211541,120,False,False,Hat,https://kisumu-drawings.s3-us-west-1.amazonaws.com/50-012.png,7.0,Hat,50-012.png
,12804,image-button-response,71,,654391,685c6ca90f751d3aae6b1794,685c6e3633033b4721211541,120,False,False,Cat,https://kisumu-drawings.s3-us-west-1.amazonaws.com/94-009.png,4.0,Cat,94-009.png
,3606,image-button-response,72,,658506,685c6ca90f751d3aae6b1794,685c6e3633033b4721211541,120,False,False,Chair,https://kisumu-drawings.s3-us-west-1.amazonaws.com/7-007.png,5.0,Chair,7-007.png
,1413,image-button-response,73,,660420,685c6ca90f751d3aae6b1794,685c6e3633033b4721211541,120,False,False,Cup,https://kisumu-drawings.s3-us-west-1.amazonaws.com/93-005.png,6.0,Cup,93-005.png
,1815,image-button-response,74,,662736,685c6ca90f751d3aae6b1794,685c6e3633033b4721211541,120,False,False,Airplane,https://kisumu-drawings.s3-us-west-1.amazonaws.com/69-013.png,0.0,Airplane,69-013.png
,1581,image-button-response,75,,664820,685c6ca90f751d3aae6b1794,685c6e3633033b4721211541,120,False,False,Watch,https://kisumu-drawings.s3-us-west-1.amazonaws.com/68-016.png,11.0,Watch,68-016.png
