view_history,rt,trial_type,trial_index,plugin_version,time_elapsed,study_id,session_id,participant_id,catch_trial,prep_trial,sketcher_category,stimulus,response,response_category,sketch_id
"[{""page_index"":0,""viewing_time"":15177},{""page_index"":1,""viewing_time"":4378},{""page_index"":2,""viewing_time"":4580},{""page_index"":3,""viewing_time"":2388}]",26523,instructions,0,,26527,685c6ca90f751d3aae6b1794,685c6e62dc1164dcfc02740f,44,,,,,,,
,1834,image-button-response,1,,29378,685c6ca90f751d3aae6b1794,685c6e62dc1164dcfc02740f,44,False,True,car,stimuli/prep_trials/1_car_prep.png,3.0,Car,
,1428,image-button-response,2,,31312,685c6ca90f751d3aae6b1794,685c6e62dc1164dcfc02740f,44,False,True,cat,stimuli/prep_trials/0_cat_prep.jpg,4.0,Cat,
,3915,image-button-response,3,,35737,685c6ca90f751d3aae6b1794,685c6e62dc1164dcfc02740f,44,False,False,Chair,https://kisumu-drawings.s3-us-west-1.amazonaws.com/10-016.png,5.0,Chair,10-016.png
,1710,image-button-response,4,,37956,685c6ca90f751d3aae6b1794,685c6e62dc1164dcfc02740f,44,False,False,House,https://kisumu-drawings.s3-us-west-1.amazonaws.com/54-015.png,8.0,House,54-015.png
,14769,image-button-response,5,,53238,685c6ca90f751d3aae6b1794,685c6e62dc1164dcfc02740f,44,False,False,Hat,https://kisumu-drawings.s3-us-west-1.amazonaws.com/71-006.png,9.0,Rabbit,71-006.png
,13098,image-button-response,6,,66841,685c6ca90f751d3aae6b1794,685c6e62dc1164dcfc02740f,44,False,False,House,https://kisumu-drawings.s3-us-west-1.amazonaws.com/10-009.png,8.0,House,10-009.png
,22030,image-button-response,7,,89390,685c6ca90f751d3aae6b1794,685c6e62dc1164dcfc02740f,44,False,False,Watch,https://kisumu-drawings.s3-us-west-1.amazonaws.com/10-012.png,4.0,Cat,10-012.png
,5719,image-button-response,8,,95625,685c6ca90f751d3aae6b1794,685c6e62dc1164dcfc02740f,44,False,False,Chair,https://kisumu-drawings.s3-us-west-1.amazonaws.com/30-010.png,10.0,Tree,30-010.png
,1653,image-button-response,9,,97786,685c6ca90f751d3aae6b1794,685c6e62dc1164dcfc02740f,44,True,False,airplane,stimuli/catch_trials/0_airplane_catch.jpg,0.0,Airplane,
,9806,image-button-response,10,,108108,685c6ca90f751d3aae6b1794,685c6e62dc1164dcfc02740f,44,False,False,Hat,https://kisumu-drawings.s3-us-west-1.amazonaws.com/97-005.png,6.0,Cup,97-005.png
,1972,image-button-response,11,,110597,685c6ca90f751d3aae6b1794,685c6e62dc1164dcfc02740f,44,False,False,Airplane,https://kisumu-drawings.s3-us-west-1.amazonaws.com/41-005.png,0.0,Airplane,41-005.png
,1680,image-button-response,12,,112785,685c6ca90f751d3aae6b1794,685c6e62dc1164dcfc02740f,44,False,False,House,https://kisumu-drawings.s3-us-west-1.amazonaws.com/30-013.png,8.0,House,30-013.png
,12425,image-button-response,13,,125759,685c6ca90f751d3aae6b1794,685c6e62dc1164dcfc02740f,44,False,False,Hat,https://kisumu-drawings.s3-us-west-1.amazonaws.com/9-006.png,5.0,Chair,9-006.png
,6834,image-button-response,14,,133109,685c6ca90f751d3aae6b1794,685c6e62dc1164dcfc02740f,44,False,False,Rabbit,https://kisumu-drawings.s3-us-west-1.amazonaws.com/71-005.png,9.0,Rabbit,71-005.png
,2372,image-button-response,15,,135991,685c6ca90f751d3aae6b1794,685c6e62dc1164dcfc02740f,44,False,False,Chair,https://kisumu-drawings.s3-us-west-1.amazonaws.com/111-005.png,5.0,Chair,111-005.png
,8508,image-button-response,16,,145011,685c6ca90f751d3aae6b1794,685c6e62dc1164dcfc02740f,44,False,False,Tree,https://kisumu-drawings.s3-us-west-1.amazonaws.com/10-011.png,10.0,Tree,10-011.png
,2303,image-button-response,17,,147830,685c6ca90f751d3aae6b1794,685c6e62dc1164dcfc02740f,44,False,False,Watch,https://kisumu-drawings.s3-us-west-1.amazonaws.com/111-015.png,11.0,Watch,111-015.png
,1453,image-button-response,18,,149830,685c6ca90f751d3aae6b1794,685c6e62dc1164dcfc02740f,44,False,False,Car,https://kisumu-drawings.s3-us-west-1.amazonaws.com/31-008.png,5.0,Chair,31-008.png
,1418,image-button-response,19,,151762,685c6ca90f751d3aae6b1794,685c6e62dc1164dcfc02740f,44,False,False,Tree,https://kisumu-drawings.s3-us-west-1.amazonaws.com/71-014.png,10.0,Tree,71-014.png
,11473,image-button-response,20,,163751,685c6ca90f751d3aae6b1794,685c6e62dc1164dcfc02740f,44,False,False,Cat,https://kisumu-drawings.s3-us-west-1.amazonaws.com/11-008.png,3.0,Car,11-008.png
,3252,image-button-response,21,,167533,685c6ca90f751d3aae6b1794,685c6e62dc1164dcfc02740f,44,False,False,House,https://kisumu-drawings.s3-us-west-1.amazonaws.com/71-008.png,8.0,House,71-008.png
,2245,image-button-response,22,,170347,685c6ca90f751d3aae6b1794,685c6e62dc1164dcfc02740f,44,False,False,Watch,https://kisumu-drawings.s3-us-west-1.amazonaws.com/54-012.png,11.0,Watch,54-012.png
,1934,image-button-response,23,,172788,685c6ca90f751d3aae6b1794,685c6e62dc1164dcfc02740f,44,False,False,Airplane,https://kisumu-drawings.s3-us-west-1.amazonaws.com/100-014.png,0.0,Airplane,100-014.png
,11018,image-button-response,24,,184322,685c6ca90f751d3aae6b1794,685c6e62dc1164dcfc02740f,44,False,False,Bicycle,https://kisumu-drawings.s3-us-west-1.amazonaws.com/32-009.png,9.0,Rabbit,32-009.png
,2745,image-button-response,25,,187599,685c6ca90f751d3aae6b1794,685c6e62dc1164dcfc02740f,44,False,False,Hat,https://kisumu-drawings.s3-us-west-1.amazonaws.com/54-014.png,0.0,Airplane,54-014.png
,6328,image-button-response,26,,194435,685c6ca90f751d3aae6b1794,685c6e62dc1164dcfc02740f,44,False,False,Cup,https://kisumu-drawings.s3-us-west-1.amazonaws.com/97-008.png,10.0,Tree,97-008.png
,3422,image-button-response,27,,198373,685c6ca90f751d3aae6b1794,685c6e62dc1164dcfc02740f,44,False,False,Bird,https://kisumu-drawings.s3-us-west-1.amazonaws.com/98-013.png,0.0,Airplane,98-013.png
,11177,image-button-response,28,,210058,685c6ca90f751d3aae6b1794,685c6e62dc1164dcfc02740f,44,False,False,Bird,https://kisumu-drawings.s3-us-west-1.amazonaws.com/12-009.png,2.0,Bird,12-009.png
,2130,image-button-response,29,,212699,685c6ca90f751d3aae6b1794,685c6e62dc1164dcfc02740f,44,False,False,Rabbit,https://kisumu-drawings.s3-us-west-1.amazonaws.com/111-011.png,4.0,Cat,111-011.png
,1708,image-button-response,30,,214959,685c6ca90f751d3aae6b1794,685c6e62dc1164dcfc02740f,44,False,False,Watch,https://kisumu-drawings.s3-us-west-1.amazonaws.com/71-015.png,11.0,Watch,71-015.png
,2848,image-button-response,31,,218325,685c6ca90f751d3aae6b1794,685c6e62dc1164dcfc02740f,44,False,False,House,https://kisumu-drawings.s3-us-west-1.amazonaws.com/111-014.png,8.0,House,111-014.png
,2920,image-button-response,32,,221763,685c6ca90f751d3aae6b1794,685c6e62dc1164dcfc02740f,44,False,False,Rabbit,https://kisumu-drawings.s3-us-west-1.amazonaws.com/10-010.png,1.0,Bicycle,10-010.png
,1398,image-button-response,33,,223663,685c6ca90f751d3aae6b1794,685c6e62dc1164dcfc02740f,44,False,False,Bicycle,https://kisumu-drawings.s3-us-west-1.amazonaws.com/12-007.png,1.0,Bicycle,12-007.png
,1632,image-button-response,34,,225803,685c6ca90f751d3aae6b1794,685c6e62dc1164dcfc02740f,44,False,False,Cup,https://kisumu-drawings.s3-us-west-1.amazonaws.com/30-011.png,6.0,Cup,30-011.png
,2193,image-button-response,35,,228505,685c6ca90f751d3aae6b1794,685c6e62dc1164dcfc02740f,44,False,False,Bird,https://kisumu-drawings.s3-us-west-1.amazonaws.com/113-016.png,2.0,Bird,113-016.png
,27665,image-button-response,36,,256689,685c6ca90f751d3aae6b1794,685c6e62dc1164dcfc02740f,44,False,False,Airplane,https://kisumu-drawings.s3-us-west-1.amazonaws.com/13-006.png,6.0,Cup,13-006.png
,5162,image-button-response,37,,262355,685c6ca90f751d3aae6b1794,685c6e62dc1164dcfc02740f,44,False,False,Watch,https://kisumu-drawings.s3-us-west-1.amazonaws.com/30-016.png,7.0,Hat,30-016.png
,14669,image-button-response,38,,277541,685c6ca90f751d3aae6b1794,685c6e62dc1164dcfc02740f,44,False,False,Cat,https://kisumu-drawings.s3-us-west-1.amazonaws.com/30-009.png,4.0,Cat,30-009.png
,2375,image-button-response,39,,280463,685c6ca90f751d3aae6b1794,685c6e62dc1164dcfc02740f,44,False,False,Cup,https://kisumu-drawings.s3-us-west-1.amazonaws.com/54-013.png,6.0,Cup,54-013.png
,2537,image-button-response,40,,283504,685c6ca90f751d3aae6b1794,685c6e62dc1164dcfc02740f,44,False,False,Cat,https://kisumu-drawings.s3-us-west-1.amazonaws.com/97-015.png,4.0,Cat,97-015.png
,1632,image-button-response,41,,285651,685c6ca90f751d3aae6b1794,685c6e62dc1164dcfc02740f,44,False,False,Bird,https://kisumu-drawings.s3-us-west-1.amazonaws.com/72-016.png,10.0,Tree,72-016.png
,1758,image-button-response,42,,287914,685c6ca90f751d3aae6b1794,685c6e62dc1164dcfc02740f,44,False,False,Chair,https://kisumu-drawings.s3-us-west-1.amazonaws.com/97-009.png,5.0,Chair,97-009.png
,1587,image-button-response,43,,290008,685c6ca90f751d3aae6b1794,685c6e62dc1164dcfc02740f,44,False,False,Tree,https://kisumu-drawings.s3-us-west-1.amazonaws.com/111-008.png,10.0,Tree,111-008.png
,2798,image-button-response,44,,293325,685c6ca90f751d3aae6b1794,685c6e62dc1164dcfc02740f,44,False,False,Car,https://kisumu-drawings.s3-us-west-1.amazonaws.com/111-012.png,3.0,Car,111-012.png
,1704,image-button-response,45,,295531,685c6ca90f751d3aae6b1794,685c6e62dc1164dcfc02740f,44,False,False,Chair,https://kisumu-drawings.s3-us-west-1.amazonaws.com/71-011.png,5.0,Chair,71-011.png
,5574,image-button-response,46,,301617,685c6ca90f751d3aae6b1794,685c6e62dc1164dcfc02740f,44,False,False,Airplane,https://kisumu-drawings.s3-us-west-1.amazonaws.com/33-005.png,10.0,Tree,33-005.png
,3627,image-button-response,47,,305753,685c6ca90f751d3aae6b1794,685c6e62dc1164dcfc02740f,44,False,False,Rabbit,https://kisumu-drawings.s3-us-west-1.amazonaws.com/97-012.png,2.0,Bird,97-012.png
,1842,image-button-response,48,,308109,685c6ca90f751d3aae6b1794,685c6e62dc1164dcfc02740f,44,False,False,House,https://kisumu-drawings.s3-us-west-1.amazonaws.com/97-011.png,8.0,House,97-011.png
,1926,image-button-response,49,,310577,685c6ca90f751d3aae6b1794,685c6e62dc1164dcfc02740f,44,False,False,Bicycle,https://kisumu-drawings.s3-us-west-1.amazonaws.com/113-011.png,1.0,Bicycle,113-011.png
,3019,image-button-response,50,,314129,685c6ca90f751d3aae6b1794,685c6e62dc1164dcfc02740f,44,False,False,Hat,https://kisumu-drawings.s3-us-west-1.amazonaws.com/30-012.png,7.0,Hat,30-012.png
,3169,image-button-response,51,,317811,685c6ca90f751d3aae6b1794,685c6e62dc1164dcfc02740f,44,False,False,Bird,https://kisumu-drawings.s3-us-west-1.amazonaws.com/55-007.png,2.0,Bird,55-007.png
,1577,image-button-response,52,,319906,685c6ca90f751d3aae6b1794,685c6e62dc1164dcfc02740f,44,False,False,Cup,https://kisumu-drawings.s3-us-west-1.amazonaws.com/111-006.png,6.0,Cup,111-006.png
,1343,image-button-response,53,,321765,685c6ca90f751d3aae6b1794,685c6e62dc1164dcfc02740f,44,False,False,Bicycle,https://kisumu-drawings.s3-us-west-1.amazonaws.com/99-013.png,1.0,Bicycle,99-013.png
,3198,image-button-response,54,,325475,685c6ca90f751d3aae6b1794,685c6e62dc1164dcfc02740f,44,False,False,Car,https://kisumu-drawings.s3-us-west-1.amazonaws.com/10-006.png,3.0,Car,10-006.png
,1734,image-button-response,55,,327721,685c6ca90f751d3aae6b1794,685c6e62dc1164dcfc02740f,44,False,False,Bicycle,https://kisumu-drawings.s3-us-west-1.amazonaws.com/73-007.png,1.0,Bicycle,73-007.png
,1537,image-button-response,56,,329767,685c6ca90f751d3aae6b1794,685c6e62dc1164dcfc02740f,44,False,False,Chair,https://kisumu-drawings.s3-us-west-1.amazonaws.com/54-007.png,5.0,Chair,54-007.png
,1257,image-button-response,57,,331534,685c6ca90f751d3aae6b1794,685c6e62dc1164dcfc02740f,44,False,False,Tree,https://kisumu-drawings.s3-us-west-1.amazonaws.com/54-011.png,10.0,Tree,54-011.png
,1390,image-button-response,58,,333435,685c6ca90f751d3aae6b1794,685c6e62dc1164dcfc02740f,44,False,False,Cat,https://kisumu-drawings.s3-us-west-1.amazonaws.com/72-014.png,3.0,Car,72-014.png
,1924,image-button-response,59,,335871,685c6ca90f751d3aae6b1794,685c6e62dc1164dcfc02740f,44,False,False,Hat,https://kisumu-drawings.s3-us-west-1.amazonaws.com/111-013.png,7.0,Hat,111-013.png
,2682,image-button-response,60,,339107,685c6ca90f751d3aae6b1794,685c6e62dc1164dcfc02740f,44,False,False,Airplane,https://kisumu-drawings.s3-us-west-1.amazonaws.com/74-015.png,8.0,House,74-015.png
,3483,image-button-response,61,,343109,685c6ca90f751d3aae6b1794,685c6e62dc1164dcfc02740f,44,False,False,Rabbit,https://kisumu-drawings.s3-us-west-1.amazonaws.com/30-014.png,4.0,Cat,30-014.png
,3997,image-button-response,62,,347616,685c6ca90f751d3aae6b1794,685c6e62dc1164dcfc02740f,44,False,False,Watch,https://kisumu-drawings.s3-us-west-1.amazonaws.com/97-010.png,8.0,House,97-010.png
,1922,image-button-response,63,,350055,685c6ca90f751d3aae6b1794,685c6e62dc1164dcfc02740f,44,False,False,Bicycle,https://kisumu-drawings.s3-us-west-1.amazonaws.com/41-009.png,1.0,Bicycle,41-009.png
,1873,image-button-response,64,,352441,685c6ca90f751d3aae6b1794,685c6e62dc1164dcfc02740f,44,False,False,Rabbit,https://kisumu-drawings.s3-us-west-1.amazonaws.com/54-016.png,4.0,Cat,54-016.png
,6099,image-button-response,65,,359054,685c6ca90f751d3aae6b1794,685c6e62dc1164dcfc02740f,44,False,False,Car,https://kisumu-drawings.s3-us-west-1.amazonaws.com/55-011.png,11.0,Watch,55-011.png
,2618,image-button-response,66,,362207,685c6ca90f751d3aae6b1794,685c6e62dc1164dcfc02740f,44,False,False,Cup,https://kisumu-drawings.s3-us-west-1.amazonaws.com/10-005.png,2.0,Bird,10-005.png
,3494,image-button-response,67,,366204,685c6ca90f751d3aae6b1794,685c6e62dc1164dcfc02740f,44,False,False,Bird,https://kisumu-drawings.s3-us-west-1.amazonaws.com/31-007.png,2.0,Bird,31-007.png
,1223,image-button-response,68,,367945,685c6ca90f751d3aae6b1794,685c6e62dc1164dcfc02740f,44,False,False,Tree,https://kisumu-drawings.s3-us-west-1.amazonaws.com/30-015.png,10.0,Tree,30-015.png
,3583,image-button-response,69,,372041,685c6ca90f751d3aae6b1794,685c6e62dc1164dcfc02740f,44,False,False,Car,https://kisumu-drawings.s3-us-west-1.amazonaws.com/98-014.png,7.0,Hat,98-014.png
,1832,image-button-response,70,,374390,685c6ca90f751d3aae6b1794,685c6e62dc1164dcfc02740f,44,False,False,Cat,https://kisumu-drawings.s3-us-west-1.amazonaws.com/111-016.png,4.0,Cat,111-016.png
,1803,image-button-response,71,,376701,685c6ca90f751d3aae6b1794,685c6e62dc1164dcfc02740f,44,False,False,Cat,https://kisumu-drawings.s3-us-west-1.amazonaws.com/54-006.png,4.0,Cat,54-006.png
,3189,image-button-response,72,,380405,685c6ca90f751d3aae6b1794,685c6e62dc1164dcfc02740f,44,False,False,Car,https://kisumu-drawings.s3-us-west-1.amazonaws.com/72-013.png,3.0,Car,72-013.png
,1444,image-button-response,73,,382353,685c6ca90f751d3aae6b1794,685c6e62dc1164dcfc02740f,44,False,False,Airplane,https://kisumu-drawings.s3-us-west-1.amazonaws.com/113-014.png,0.0,Airplane,113-014.png
,2913,image-button-response,74,,385767,685c6ca90f751d3aae6b1794,685c6e62dc1164dcfc02740f,44,False,False,Tree,https://kisumu-drawings.s3-us-west-1.amazonaws.com/97-016.png,10.0,Tree,97-016.png
,1611,image-button-response,75,,387941,685c6ca90f751d3aae6b1794,685c6e62dc1164dcfc02740f,44,False,False,Cup,https://kisumu-drawings.s3-us-west-1.amazonaws.com/71-007.png,6.0,Cup,71-007.png
