rt,trial_index,time_elapsed,study_id,session_id,participant_id,catch_trial,prep_trial,sketcher_category,stimulus,response_category,sketch_id,age_bin
15429,3,60798,685c6ca90f751d3aae6b1794,685c6e300cef5098ebdfac9c,558d8d71fdf99b534f79b352,FALSE,FALSE,Bird,https://kisumu-drawings.s3-us-west-1.amazonaws.com/63-011.png,Bird,63-011.png,4
10584,4,71883,685c6ca90f751d3aae6b1794,685c6e300cef5098ebdfac9c,558d8d71fdf99b534f79b352,FALSE,FALSE,House,https://kisumu-drawings.s3-us-west-1.amazonaws.com/94-016.png,House,94-016.png,5
7973,5,80357,685c6ca90f751d3aae6b1794,685c6e300cef5098ebdfac9c,558d8d71fdf99b534f79b352,FALSE,FALSE,Bicycle,https://kisumu-drawings.s3-us-west-1.amazonaws.com/109-016.png,Bicycle,109-016.png,6
8974,6,89837,685c6ca90f751d3aae6b1794,685c6e300cef5098ebdfac9c,558d8d71fdf99b534f79b352,FALSE,FALSE,Car,https://kisumu-drawings.s3-us-west-1.amazonaws.com/27-016.png,Cat,27-016.png,2
9125,7,99467,685c6ca90f751d3aae6b1794,685c6e300cef5098ebdfac9c,558d8d71fdf99b534f79b352,FALSE,FALSE,Bird,https://kisumu-drawings.s3-us-west-1.amazonaws.com/108-011.png,Bird,108-011.png,6
13242,8,113216,685c6ca90f751d3aae6b1794,685c6e300cef5098ebdfac9c,558d8d71fdf99b534f79b352,FALSE,FALSE,Bicycle,https://kisumu-drawings.s3-us-west-1.amazonaws.com/52-005.png,Bicycle,52-005.png,3
8672,9,122390,685c6ca90f751d3aae6b1794,685c6e300cef5098ebdfac9c,558d8d71fdf99b534f79b352,FALSE,FALSE,Rabbit,https://kisumu-drawings.s3-us-west-1.amazonaws.com/107-005.png,Cat,107-005.png,6
9088,10,131987,685c6ca90f751d3aae6b1794,685c6e300cef5098ebdfac9c,558d8d71fdf99b534f79b352,FALSE,FALSE,Tree,https://kisumu-drawings.s3-us-west-1.amazonaws.com/107-010.png,Hat,107-010.png,6
9166,11,141669,685c6ca90f751d3aae6b1794,685c6e300cef5098ebdfac9c,558d8d71fdf99b534f79b352,FALSE,FALSE,Cup,https://kisumu-drawings.s3-us-west-1.amazonaws.com/27-014.png,Chair,27-014.png,2
3248,12,145420,685c6ca90f751d3aae6b1794,685c6e300cef5098ebdfac9c,558d8d71fdf99b534f79b352,FALSE,FALSE,Watch,https://kisumu-drawings.s3-us-west-1.amazonaws.com/26-015.png,Watch,26-015.png,2
3311,13,149236,685c6ca90f751d3aae6b1794,685c6e300cef5098ebdfac9c,558d8d71fdf99b534f79b352,FALSE,FALSE,Hat,https://kisumu-drawings.s3-us-west-1.amazonaws.com/108-006.png,Hat,108-006.png,6
9316,14,159054,685c6ca90f751d3aae6b1794,685c6e300cef5098ebdfac9c,558d8d71fdf99b534f79b352,FALSE,FALSE,Chair,https://kisumu-drawings.s3-us-west-1.amazonaws.com/7-007.png,Chair,7-007.png,1
184489,15,344048,685c6ca90f751d3aae6b1794,685c6e300cef5098ebdfac9c,558d8d71fdf99b534f79b352,FALSE,FALSE,Airplane,https://kisumu-drawings.s3-us-west-1.amazonaws.com/8-015.png,Airplane,8-015.png,1
12738,16,357287,685c6ca90f751d3aae6b1794,685c6e300cef5098ebdfac9c,558d8d71fdf99b534f79b352,FALSE,FALSE,Tree,https://kisumu-drawings.s3-us-west-1.amazonaws.com/50-009.png,Tree,50-009.png,3
2859,17,360661,685c6ca90f751d3aae6b1794,685c6e300cef5098ebdfac9c,558d8d71fdf99b534f79b352,FALSE,FALSE,Watch,https://kisumu-drawings.s3-us-west-1.amazonaws.com/107-011.png,Watch,107-011.png,6
1764,18,362926,685c6ca90f751d3aae6b1794,685c6e300cef5098ebdfac9c,558d8d71fdf99b534f79b352,FALSE,FALSE,Tree,https://kisumu-drawings.s3-us-west-1.amazonaws.com/93-014.png,Tree,93-014.png,5
12022,19,375450,685c6ca90f751d3aae6b1794,685c6e300cef5098ebdfac9c,558d8d71fdf99b534f79b352,FALSE,FALSE,Rabbit,https://kisumu-drawings.s3-us-west-1.amazonaws.com/27-010.png,Bird,27-010.png,2
14472,20,390424,685c6ca90f751d3aae6b1794,685c6e300cef5098ebdfac9c,558d8d71fdf99b534f79b352,FALSE,FALSE,Chair,https://kisumu-drawings.s3-us-west-1.amazonaws.com/94-010.png,Chair,94-010.png,5
8677,21,399602,685c6ca90f751d3aae6b1794,685c6e300cef5098ebdfac9c,558d8d71fdf99b534f79b352,FALSE,FALSE,Hat,https://kisumu-drawings.s3-us-west-1.amazonaws.com/7-014.png,Cup,7-014.png,1
12264,22,412370,685c6ca90f751d3aae6b1794,685c6e300cef5098ebdfac9c,558d8d71fdf99b534f79b352,FALSE,FALSE,Watch,https://kisumu-drawings.s3-us-west-1.amazonaws.com/6-015.png,Tree,6-015.png,1
5647,23,418518,685c6ca90f751d3aae6b1794,685c6e300cef5098ebdfac9c,558d8d71fdf99b534f79b352,FALSE,FALSE,Rabbit,https://kisumu-drawings.s3-us-west-1.amazonaws.com/51-012.png,Rabbit,51-012.png,3
5351,24,424371,685c6ca90f751d3aae6b1794,685c6e300cef5098ebdfac9c,558d8d71fdf99b534f79b352,FALSE,FALSE,Hat,https://kisumu-drawings.s3-us-west-1.amazonaws.com/63-014.png,Hat,63-014.png,4
5228,25,430104,685c6ca90f751d3aae6b1794,685c6e300cef5098ebdfac9c,558d8d71fdf99b534f79b352,FALSE,FALSE,House,https://kisumu-drawings.s3-us-west-1.amazonaws.com/51-005.png,House,51-005.png,3
2472,26,433078,685c6ca90f751d3aae6b1794,685c6e300cef5098ebdfac9c,558d8d71fdf99b534f79b352,FALSE,FALSE,Watch,https://kisumu-drawings.s3-us-west-1.amazonaws.com/93-016.png,Watch,93-016.png,5
5144,27,438723,685c6ca90f751d3aae6b1794,685c6e300cef5098ebdfac9c,558d8d71fdf99b534f79b352,FALSE,FALSE,Cup,https://kisumu-drawings.s3-us-west-1.amazonaws.com/7-012.png,Cup,7-012.png,1
4177,28,443400,685c6ca90f751d3aae6b1794,685c6e300cef5098ebdfac9c,558d8d71fdf99b534f79b352,FALSE,FALSE,Cat,https://kisumu-drawings.s3-us-west-1.amazonaws.com/63-008.png,Cat,63-008.png,4
2809,29,446711,685c6ca90f751d3aae6b1794,685c6e300cef5098ebdfac9c,558d8d71fdf99b534f79b352,FALSE,FALSE,Airplane,https://kisumu-drawings.s3-us-west-1.amazonaws.com/69-013.png,Airplane,69-013.png,4
5742,30,452954,685c6ca90f751d3aae6b1794,685c6e300cef5098ebdfac9c,558d8d71fdf99b534f79b352,FALSE,FALSE,Chair,https://kisumu-drawings.s3-us-west-1.amazonaws.com/27-011.png,Chair,27-011.png,2
13008,31,466467,685c6ca90f751d3aae6b1794,685c6e300cef5098ebdfac9c,558d8d71fdf99b534f79b352,FALSE,FALSE,Bicycle,https://kisumu-drawings.s3-us-west-1.amazonaws.com/95-010.png,Car,95-010.png,5
3172,32,470140,685c6ca90f751d3aae6b1794,685c6e300cef5098ebdfac9c,558d8d71fdf99b534f79b352,FALSE,FALSE,Cup,https://kisumu-drawings.s3-us-west-1.amazonaws.com/51-010.png,Cup,51-010.png,3
7756,33,478398,685c6ca90f751d3aae6b1794,685c6e300cef5098ebdfac9c,558d8d71fdf99b534f79b352,FALSE,FALSE,Car,https://kisumu-drawings.s3-us-west-1.amazonaws.com/7-006.png,Chair,7-006.png,1
1488,34,480387,685c6ca90f751d3aae6b1794,685c6e300cef5098ebdfac9c,558d8d71fdf99b534f79b352,TRUE,FALSE,airplane,stimuli/catch_trials/0_airplane_catch.jpg,Airplane,NA,NA
3022,35,483910,685c6ca90f751d3aae6b1794,685c6e300cef5098ebdfac9c,558d8d71fdf99b534f79b352,FALSE,FALSE,Car,https://kisumu-drawings.s3-us-west-1.amazonaws.com/63-007.png,Car,63-007.png,4
3869,36,488282,685c6ca90f751d3aae6b1794,685c6e300cef5098ebdfac9c,558d8d71fdf99b534f79b352,FALSE,FALSE,Rabbit,https://kisumu-drawings.s3-us-west-1.amazonaws.com/68-005.png,Rabbit,68-005.png,4
8679,37,497463,685c6ca90f751d3aae6b1794,685c6e300cef5098ebdfac9c,558d8d71fdf99b534f79b352,FALSE,FALSE,Airplane,https://kisumu-drawings.s3-us-west-1.amazonaws.com/52-015.png,Hat,52-015.png,3
4744,38,502707,685c6ca90f751d3aae6b1794,685c6e300cef5098ebdfac9c,558d8d71fdf99b534f79b352,FALSE,FALSE,Airplane,https://kisumu-drawings.s3-us-west-1.amazonaws.com/108-014.png,Airplane,108-014.png,6
10212,39,513421,685c6ca90f751d3aae6b1794,685c6e300cef5098ebdfac9c,558d8d71fdf99b534f79b352,FALSE,FALSE,Tree,https://kisumu-drawings.s3-us-west-1.amazonaws.com/26-016.png,Hat,26-016.png,2
10812,40,524735,685c6ca90f751d3aae6b1794,685c6e300cef5098ebdfac9c,558d8d71fdf99b534f79b352,FALSE,FALSE,Cat,https://kisumu-drawings.s3-us-west-1.amazonaws.com/7-005.png,Chair,7-005.png,1
6272,41,531508,685c6ca90f751d3aae6b1794,685c6e300cef5098ebdfac9c,558d8d71fdf99b534f79b352,FALSE,FALSE,Bird,https://kisumu-drawings.s3-us-west-1.amazonaws.com/94-013.png,Cat,94-013.png,5
18143,42,550157,685c6ca90f751d3aae6b1794,685c6e300cef5098ebdfac9c,558d8d71fdf99b534f79b352,FALSE,FALSE,Bicycle,https://kisumu-drawings.s3-us-west-1.amazonaws.com/27-006.png,Cat,27-006.png,2
4018,43,554677,685c6ca90f751d3aae6b1794,685c6e300cef5098ebdfac9c,558d8d71fdf99b534f79b352,FALSE,FALSE,Bird,https://kisumu-drawings.s3-us-west-1.amazonaws.com/7-010.png,Tree,7-010.png,1
2834,44,558012,685c6ca90f751d3aae6b1794,685c6e300cef5098ebdfac9c,558d8d71fdf99b534f79b352,FALSE,FALSE,Cat,https://kisumu-drawings.s3-us-west-1.amazonaws.com/27-008.png,Bird,27-008.png,2
2069,45,560582,685c6ca90f751d3aae6b1794,685c6e300cef5098ebdfac9c,558d8d71fdf99b534f79b352,FALSE,FALSE,House,https://kisumu-drawings.s3-us-west-1.amazonaws.com/108-008.png,House,108-008.png,6
2415,46,563499,685c6ca90f751d3aae6b1794,685c6e300cef5098ebdfac9c,558d8d71fdf99b534f79b352,FALSE,FALSE,Bird,https://kisumu-drawings.s3-us-west-1.amazonaws.com/27-007.png,Airplane,27-007.png,2
2300,47,566300,685c6ca90f751d3aae6b1794,685c6e300cef5098ebdfac9c,558d8d71fdf99b534f79b352,FALSE,FALSE,Chair,https://kisumu-drawings.s3-us-west-1.amazonaws.com/63-013.png,Chair,63-013.png,4
3800,48,570601,685c6ca90f751d3aae6b1794,685c6e300cef5098ebdfac9c,558d8d71fdf99b534f79b352,FALSE,FALSE,Car,https://kisumu-drawings.s3-us-west-1.amazonaws.com/95-007.png,Car,95-007.png,5
1680,49,572783,685c6ca90f751d3aae6b1794,685c6e300cef5098ebdfac9c,558d8d71fdf99b534f79b352,FALSE,FALSE,Car,https://kisumu-drawings.s3-us-west-1.amazonaws.com/108-013.png,Car,108-013.png,6
21370,50,594660,685c6ca90f751d3aae6b1794,685c6e300cef5098ebdfac9c,558d8d71fdf99b534f79b352,FALSE,FALSE,Tree,https://kisumu-drawings.s3-us-west-1.amazonaws.com/6-014.png,Tree,6-014.png,1
3565,51,598726,685c6ca90f751d3aae6b1794,685c6e300cef5098ebdfac9c,558d8d71fdf99b534f79b352,FALSE,FALSE,Chair,https://kisumu-drawings.s3-us-west-1.amazonaws.com/51-009.png,Chair,51-009.png,3
4092,52,603319,685c6ca90f751d3aae6b1794,685c6e300cef5098ebdfac9c,558d8d71fdf99b534f79b352,FALSE,FALSE,Watch,https://kisumu-drawings.s3-us-west-1.amazonaws.com/68-016.png,Watch,68-016.png,4
2001,53,605822,685c6ca90f751d3aae6b1794,685c6e300cef5098ebdfac9c,558d8d71fdf99b534f79b352,FALSE,FALSE,Bicycle,https://kisumu-drawings.s3-us-west-1.amazonaws.com/63-012.png,Bicycle,63-012.png,4
4028,54,610352,685c6ca90f751d3aae6b1794,685c6e300cef5098ebdfac9c,558d8d71fdf99b534f79b352,FALSE,FALSE,Hat,https://kisumu-drawings.s3-us-west-1.amazonaws.com/27-015.png,Cup,27-015.png,2
12615,55,623468,685c6ca90f751d3aae6b1794,685c6e300cef5098ebdfac9c,558d8d71fdf99b534f79b352,FALSE,FALSE,Airplane,https://kisumu-drawings.s3-us-west-1.amazonaws.com/28-006.png,Airplane,28-006.png,2
4488,56,628460,685c6ca90f751d3aae6b1794,685c6e300cef5098ebdfac9c,558d8d71fdf99b534f79b352,FALSE,FALSE,Rabbit,https://kisumu-drawings.s3-us-west-1.amazonaws.com/7-011.png,Tree,7-011.png,1
4842,57,633803,685c6ca90f751d3aae6b1794,685c6e300cef5098ebdfac9c,558d8d71fdf99b534f79b352,FALSE,FALSE,Hat,https://kisumu-drawings.s3-us-west-1.amazonaws.com/94-015.png,Hat,94-015.png,5
4085,58,638390,685c6ca90f751d3aae6b1794,685c6e300cef5098ebdfac9c,558d8d71fdf99b534f79b352,FALSE,FALSE,Rabbit,https://kisumu-drawings.s3-us-west-1.amazonaws.com/93-012.png,Rabbit,93-012.png,5
3230,59,642122,685c6ca90f751d3aae6b1794,685c6e300cef5098ebdfac9c,558d8d71fdf99b534f79b352,FALSE,FALSE,Airplane,https://kisumu-drawings.s3-us-west-1.amazonaws.com/95-009.png,Car,95-009.png,5
3889,60,646512,685c6ca90f751d3aae6b1794,685c6e300cef5098ebdfac9c,558d8d71fdf99b534f79b352,FALSE,FALSE,Cat,https://kisumu-drawings.s3-us-west-1.amazonaws.com/94-009.png,Cat,94-009.png,5
16250,61,663264,685c6ca90f751d3aae6b1794,685c6e300cef5098ebdfac9c,558d8d71fdf99b534f79b352,FALSE,FALSE,Hat,https://kisumu-drawings.s3-us-west-1.amazonaws.com/51-011.png,Chair,51-011.png,3
2008,62,665773,685c6ca90f751d3aae6b1794,685c6e300cef5098ebdfac9c,558d8d71fdf99b534f79b352,FALSE,FALSE,Chair,https://kisumu-drawings.s3-us-west-1.amazonaws.com/108-007.png,Chair,108-007.png,6
2629,63,668905,685c6ca90f751d3aae6b1794,685c6e300cef5098ebdfac9c,558d8d71fdf99b534f79b352,FALSE,FALSE,House,https://kisumu-drawings.s3-us-west-1.amazonaws.com/63-006.png,House,63-006.png,4
2843,64,672249,685c6ca90f751d3aae6b1794,685c6e300cef5098ebdfac9c,558d8d71fdf99b534f79b352,FALSE,FALSE,Tree,https://kisumu-drawings.s3-us-west-1.amazonaws.com/68-015.png,Tree,68-015.png,4
2849,65,675599,685c6ca90f751d3aae6b1794,685c6e300cef5098ebdfac9c,558d8d71fdf99b534f79b352,FALSE,FALSE,Cup,https://kisumu-drawings.s3-us-west-1.amazonaws.com/94-005.png,Cup,94-005.png,5
1565,66,677665,685c6ca90f751d3aae6b1794,685c6e300cef5098ebdfac9c,558d8d71fdf99b534f79b352,FALSE,FALSE,Cup,https://kisumu-drawings.s3-us-west-1.amazonaws.com/63-015.png,Cup,63-015.png,4
1869,67,680035,685c6ca90f751d3aae6b1794,685c6e300cef5098ebdfac9c,558d8d71fdf99b534f79b352,FALSE,FALSE,House,https://kisumu-drawings.s3-us-west-1.amazonaws.com/7-013.png,House,7-013.png,1
8940,68,689477,685c6ca90f751d3aae6b1794,685c6e300cef5098ebdfac9c,558d8d71fdf99b534f79b352,FALSE,FALSE,Bird,https://kisumu-drawings.s3-us-west-1.amazonaws.com/51-008.png,Tree,51-008.png,3
2059,69,692037,685c6ca90f751d3aae6b1794,685c6e300cef5098ebdfac9c,558d8d71fdf99b534f79b352,FALSE,FALSE,Cup,https://kisumu-drawings.s3-us-west-1.amazonaws.com/108-005.png,Cup,108-005.png,6
6547,70,699085,685c6ca90f751d3aae6b1794,685c6e300cef5098ebdfac9c,558d8d71fdf99b534f79b352,FALSE,FALSE,Cat,https://kisumu-drawings.s3-us-west-1.amazonaws.com/51-016.png,Cat,51-016.png,3
2335,71,701927,685c6ca90f751d3aae6b1794,685c6e300cef5098ebdfac9c,558d8d71fdf99b534f79b352,FALSE,FALSE,House,https://kisumu-drawings.s3-us-west-1.amazonaws.com/27-009.png,House,27-009.png,2
2605,72,705034,685c6ca90f751d3aae6b1794,685c6e300cef5098ebdfac9c,558d8d71fdf99b534f79b352,FALSE,FALSE,Car,https://kisumu-drawings.s3-us-west-1.amazonaws.com/51-015.png,Car,51-015.png,3
2549,73,708084,685c6ca90f751d3aae6b1794,685c6e300cef5098ebdfac9c,558d8d71fdf99b534f79b352,FALSE,FALSE,Bicycle,https://kisumu-drawings.s3-us-west-1.amazonaws.com/7-008.png,Car,7-008.png,1
10140,74,718727,685c6ca90f751d3aae6b1794,685c6e300cef5098ebdfac9c,558d8d71fdf99b534f79b352,FALSE,FALSE,Cat,https://kisumu-drawings.s3-us-west-1.amazonaws.com/108-015.png,Cat,108-015.png,6
4855,75,724084,685c6ca90f751d3aae6b1794,685c6e300cef5098ebdfac9c,558d8d71fdf99b534f79b352,FALSE,FALSE,Watch,https://kisumu-drawings.s3-us-west-1.amazonaws.com/50-010.png,Tree,50-010.png,3
15991,3,78983,685c6ca90f751d3aae6b1794,685c6e4a07589d53a0f02702,55b9a9b0fdf99b6906d2aba4,FALSE,FALSE,House,https://kisumu-drawings.s3-us-west-1.amazonaws.com/70-005.png,House,70-005.png,4
10469,4,89968,685c6ca90f751d3aae6b1794,685c6e4a07589d53a0f02702,55b9a9b0fdf99b6906d2aba4,FALSE,FALSE,Rabbit,https://kisumu-drawings.s3-us-west-1.amazonaws.com/110-008.png,Rabbit,110-008.png,6
7969,5,98451,685c6ca90f751d3aae6b1794,685c6e4a07589d53a0f02702,55b9a9b0fdf99b6906d2aba4,FALSE,FALSE,Cat,https://kisumu-drawings.s3-us-west-1.amazonaws.com/110-011.png,Cat,110-011.png,6
8051,6,107009,685c6ca90f751d3aae6b1794,685c6e4a07589d53a0f02702,55b9a9b0fdf99b6906d2aba4,FALSE,FALSE,Tree,https://kisumu-drawings.s3-us-west-1.amazonaws.com/30-015.png,Tree,30-015.png,2
22077,7,129593,685c6ca90f751d3aae6b1794,685c6e4a07589d53a0f02702,55b9a9b0fdf99b6906d2aba4,FALSE,FALSE,House,https://kisumu-drawings.s3-us-west-1.amazonaws.com/29-011.png,Hat,29-011.png,2
9905,8,140006,685c6ca90f751d3aae6b1794,685c6e4a07589d53a0f02702,55b9a9b0fdf99b6906d2aba4,FALSE,FALSE,Cat,https://kisumu-drawings.s3-us-west-1.amazonaws.com/29-008.png,Airplane,29-008.png,2
12286,9,152802,685c6ca90f751d3aae6b1794,685c6e4a07589d53a0f02702,55b9a9b0fdf99b6906d2aba4,FALSE,FALSE,Chair,https://kisumu-drawings.s3-us-west-1.amazonaws.com/9-007.png,Car,9-007.png,1
16478,10,169784,685c6ca90f751d3aae6b1794,685c6e4a07589d53a0f02702,55b9a9b0fdf99b6906d2aba4,FALSE,FALSE,Cat,https://kisumu-drawings.s3-us-west-1.amazonaws.com/96-012.png,Bird,96-012.png,5
16182,11,186478,685c6ca90f751d3aae6b1794,685c6e4a07589d53a0f02702,55b9a9b0fdf99b6906d2aba4,FALSE,FALSE,Cat,https://kisumu-drawings.s3-us-west-1.amazonaws.com/71-016.png,Cat,71-016.png,4
4770,12,191764,685c6ca90f751d3aae6b1794,685c6e4a07589d53a0f02702,55b9a9b0fdf99b6906d2aba4,FALSE,FALSE,Cup,https://kisumu-drawings.s3-us-west-1.amazonaws.com/96-010.png,Cup,96-010.png,5
11572,13,203840,685c6ca90f751d3aae6b1794,685c6e4a07589d53a0f02702,55b9a9b0fdf99b6906d2aba4,FALSE,FALSE,Bird,https://kisumu-drawings.s3-us-west-1.amazonaws.com/30-007.png,Rabbit,30-007.png,2
6108,14,210466,685c6ca90f751d3aae6b1794,685c6e4a07589d53a0f02702,55b9a9b0fdf99b6906d2aba4,FALSE,FALSE,Bird,https://kisumu-drawings.s3-us-west-1.amazonaws.com/10-014.png,Cat,10-014.png,1
13667,15,224648,685c6ca90f751d3aae6b1794,685c6e4a07589d53a0f02702,55b9a9b0fdf99b6906d2aba4,FALSE,FALSE,Airplane,https://kisumu-drawings.s3-us-west-1.amazonaws.com/31-005.png,Tree,31-005.png,2
5706,16,230871,685c6ca90f751d3aae6b1794,685c6e4a07589d53a0f02702,55b9a9b0fdf99b6906d2aba4,FALSE,FALSE,Tree,https://kisumu-drawings.s3-us-west-1.amazonaws.com/96-005.png,Tree,96-005.png,5
3622,17,235003,685c6ca90f751d3aae6b1794,685c6e4a07589d53a0f02702,55b9a9b0fdf99b6906d2aba4,FALSE,FALSE,Bird,https://kisumu-drawings.s3-us-west-1.amazonaws.com/54-010.png,Airplane,54-010.png,3
2040,18,237555,685c6ca90f751d3aae6b1794,685c6e4a07589d53a0f02702,55b9a9b0fdf99b6906d2aba4,TRUE,FALSE,airplane,stimuli/catch_trials/0_airplane_catch.jpg,Airplane,NA,NA
12819,19,250882,685c6ca90f751d3aae6b1794,685c6e4a07589d53a0f02702,55b9a9b0fdf99b6906d2aba4,FALSE,FALSE,Tree,https://kisumu-drawings.s3-us-west-1.amazonaws.com/9-016.png,House,9-016.png,1
16303,20,267690,685c6ca90f751d3aae6b1794,685c6e4a07589d53a0f02702,55b9a9b0fdf99b6906d2aba4,FALSE,FALSE,Cat,https://kisumu-drawings.s3-us-west-1.amazonaws.com/54-006.png,Cat,54-006.png,3
5883,21,274078,685c6ca90f751d3aae6b1794,685c6e4a07589d53a0f02702,55b9a9b0fdf99b6906d2aba4,FALSE,FALSE,Airplane,https://kisumu-drawings.s3-us-west-1.amazonaws.com/55-014.png,Bird,55-014.png,3
5674,22,280270,685c6ca90f751d3aae6b1794,685c6e4a07589d53a0f02702,55b9a9b0fdf99b6906d2aba4,FALSE,FALSE,Chair,https://kisumu-drawings.s3-us-west-1.amazonaws.com/29-009.png,Bird,29-009.png,2
3113,23,283888,685c6ca90f751d3aae6b1794,685c6e4a07589d53a0f02702,55b9a9b0fdf99b6906d2aba4,FALSE,FALSE,Bird,https://kisumu-drawings.s3-us-west-1.amazonaws.com/97-007.png,Airplane,97-007.png,5
4473,24,288865,685c6ca90f751d3aae6b1794,685c6e4a07589d53a0f02702,55b9a9b0fdf99b6906d2aba4,FALSE,FALSE,Bicycle,https://kisumu-drawings.s3-us-west-1.amazonaws.com/98-006.png,Bicycle,98-006.png,5
2798,25,292171,685c6ca90f751d3aae6b1794,685c6e4a07589d53a0f02702,55b9a9b0fdf99b6906d2aba4,FALSE,FALSE,House,https://kisumu-drawings.s3-us-west-1.amazonaws.com/97-011.png,House,97-011.png,5
4658,26,297333,685c6ca90f751d3aae6b1794,685c6e4a07589d53a0f02702,55b9a9b0fdf99b6906d2aba4,FALSE,FALSE,Rabbit,https://kisumu-drawings.s3-us-west-1.amazonaws.com/29-013.png,Bird,29-013.png,2
16206,27,314054,685c6ca90f751d3aae6b1794,685c6e4a07589d53a0f02702,55b9a9b0fdf99b6906d2aba4,FALSE,FALSE,Rabbit,https://kisumu-drawings.s3-us-west-1.amazonaws.com/9-014.png,House,9-014.png,1
5729,28,320302,685c6ca90f751d3aae6b1794,685c6e4a07589d53a0f02702,55b9a9b0fdf99b6906d2aba4,FALSE,FALSE,Rabbit,https://kisumu-drawings.s3-us-west-1.amazonaws.com/96-006.png,Cat,96-006.png,5
6040,29,326847,685c6ca90f751d3aae6b1794,685c6e4a07589d53a0f02702,55b9a9b0fdf99b6906d2aba4,FALSE,FALSE,Watch,https://kisumu-drawings.s3-us-west-1.amazonaws.com/70-016.png,Watch,70-016.png,4
12085,30,339448,685c6ca90f751d3aae6b1794,685c6e4a07589d53a0f02702,55b9a9b0fdf99b6906d2aba4,FALSE,FALSE,Car,https://kisumu-drawings.s3-us-west-1.amazonaws.com/9-010.png,Hat,9-010.png,1
18135,31,358098,685c6ca90f751d3aae6b1794,685c6e4a07589d53a0f02702,55b9a9b0fdf99b6906d2aba4,FALSE,FALSE,Airplane,https://kisumu-drawings.s3-us-west-1.amazonaws.com/11-010.png,Tree,11-010.png,1
11743,32,370353,685c6ca90f751d3aae6b1794,685c6e4a07589d53a0f02702,55b9a9b0fdf99b6906d2aba4,FALSE,FALSE,Bicycle,https://kisumu-drawings.s3-us-west-1.amazonaws.com/11-009.png,Tree,11-009.png,1
3146,33,374005,685c6ca90f751d3aae6b1794,685c6e4a07589d53a0f02702,55b9a9b0fdf99b6906d2aba4,FALSE,FALSE,Car,https://kisumu-drawings.s3-us-west-1.amazonaws.com/54-005.png,Car,54-005.png,3
6909,34,381419,685c6ca90f751d3aae6b1794,685c6e4a07589d53a0f02702,55b9a9b0fdf99b6906d2aba4,FALSE,FALSE,Cat,https://kisumu-drawings.s3-us-west-1.amazonaws.com/10-008.png,Cat,10-008.png,1
17404,35,399342,685c6ca90f751d3aae6b1794,685c6e4a07589d53a0f02702,55b9a9b0fdf99b6906d2aba4,FALSE,FALSE,Airplane,https://kisumu-drawings.s3-us-west-1.amazonaws.com/72-005.png,Cat,72-005.png,4
5209,36,405057,685c6ca90f751d3aae6b1794,685c6e4a07589d53a0f02702,55b9a9b0fdf99b6906d2aba4,FALSE,FALSE,Chair,https://kisumu-drawings.s3-us-west-1.amazonaws.com/71-011.png,Chair,71-011.png,4
7299,37,412863,685c6ca90f751d3aae6b1794,685c6e4a07589d53a0f02702,55b9a9b0fdf99b6906d2aba4,FALSE,FALSE,Tree,https://kisumu-drawings.s3-us-west-1.amazonaws.com/53-012.png,Airplane,53-012.png,3
5156,38,418533,685c6ca90f751d3aae6b1794,685c6e4a07589d53a0f02702,55b9a9b0fdf99b6906d2aba4,FALSE,FALSE,Chair,https://kisumu-drawings.s3-us-west-1.amazonaws.com/96-011.png,Chair,96-011.png,5
16758,39,435797,685c6ca90f751d3aae6b1794,685c6e4a07589d53a0f02702,55b9a9b0fdf99b6906d2aba4,FALSE,FALSE,Airplane,https://kisumu-drawings.s3-us-west-1.amazonaws.com/98-016.png,House,98-016.png,5
4423,40,440732,685c6ca90f751d3aae6b1794,685c6e4a07589d53a0f02702,55b9a9b0fdf99b6906d2aba4,FALSE,FALSE,Car,https://kisumu-drawings.s3-us-west-1.amazonaws.com/97-014.png,Car,97-014.png,5
17688,41,458935,685c6ca90f751d3aae6b1794,685c6e4a07589d53a0f02702,55b9a9b0fdf99b6906d2aba4,FALSE,FALSE,Watch,https://kisumu-drawings.s3-us-west-1.amazonaws.com/53-016.png,Tree,53-016.png,3
4954,42,464393,685c6ca90f751d3aae6b1794,685c6e4a07589d53a0f02702,55b9a9b0fdf99b6906d2aba4,FALSE,FALSE,Rabbit,https://kisumu-drawings.s3-us-west-1.amazonaws.com/53-011.png,Bird,53-011.png,3
2850,43,467747,685c6ca90f751d3aae6b1794,685c6e4a07589d53a0f02702,55b9a9b0fdf99b6906d2aba4,FALSE,FALSE,Hat,https://kisumu-drawings.s3-us-west-1.amazonaws.com/111-013.png,Hat,111-013.png,6
14296,44,482560,685c6ca90f751d3aae6b1794,685c6e4a07589d53a0f02702,55b9a9b0fdf99b6906d2aba4,FALSE,FALSE,Hat,https://kisumu-drawings.s3-us-west-1.amazonaws.com/96-008.png,House,96-008.png,5
3279,45,486343,685c6ca90f751d3aae6b1794,685c6e4a07589d53a0f02702,55b9a9b0fdf99b6906d2aba4,FALSE,FALSE,Bird,https://kisumu-drawings.s3-us-west-1.amazonaws.com/111-007.png,Bird,111-007.png,6
2816,46,489679,685c6ca90f751d3aae6b1794,685c6e4a07589d53a0f02702,55b9a9b0fdf99b6906d2aba4,FALSE,FALSE,House,https://kisumu-drawings.s3-us-west-1.amazonaws.com/111-014.png,House,111-014.png,6
8260,47,498450,685c6ca90f751d3aae6b1794,685c6e4a07589d53a0f02702,55b9a9b0fdf99b6906d2aba4,FALSE,FALSE,House,https://kisumu-drawings.s3-us-west-1.amazonaws.com/9-015.png,Hat,9-015.png,1
13201,48,512165,685c6ca90f751d3aae6b1794,685c6e4a07589d53a0f02702,55b9a9b0fdf99b6906d2aba4,FALSE,FALSE,Watch,https://kisumu-drawings.s3-us-west-1.amazonaws.com/29-012.png,Bird,29-012.png,2
3209,49,515883,685c6ca90f751d3aae6b1794,685c6e4a07589d53a0f02702,55b9a9b0fdf99b6906d2aba4,FALSE,FALSE,Watch,https://kisumu-drawings.s3-us-west-1.amazonaws.com/96-016.png,Watch,96-016.png,5
13786,50,530183,685c6ca90f751d3aae6b1794,685c6e4a07589d53a0f02702,55b9a9b0fdf99b6906d2aba4,FALSE,FALSE,Car,https://kisumu-drawings.s3-us-west-1.amazonaws.com/71-009.png,Tree,71-009.png,4
25294,51,555991,685c6ca90f751d3aae6b1794,685c6e4a07589d53a0f02702,55b9a9b0fdf99b6906d2aba4,FALSE,FALSE,Hat,https://kisumu-drawings.s3-us-west-1.amazonaws.com/70-014.png,Cup,70-014.png,4
5196,52,561693,685c6ca90f751d3aae6b1794,685c6e4a07589d53a0f02702,55b9a9b0fdf99b6906d2aba4,FALSE,FALSE,Bicycle,https://kisumu-drawings.s3-us-west-1.amazonaws.com/31-006.png,Bicycle,31-006.png,2
9484,53,571697,685c6ca90f751d3aae6b1794,685c6e4a07589d53a0f02702,55b9a9b0fdf99b6906d2aba4,FALSE,FALSE,Hat,https://kisumu-drawings.s3-us-west-1.amazonaws.com/53-014.png,Bird,53-014.png,3
10213,54,582414,685c6ca90f751d3aae6b1794,685c6e4a07589d53a0f02702,55b9a9b0fdf99b6906d2aba4,FALSE,FALSE,Hat,https://kisumu-drawings.s3-us-west-1.amazonaws.com/9-006.png,Bird,9-006.png,1
8904,55,591835,685c6ca90f751d3aae6b1794,685c6e4a07589d53a0f02702,55b9a9b0fdf99b6906d2aba4,FALSE,FALSE,Cup,https://kisumu-drawings.s3-us-west-1.amazonaws.com/29-010.png,Bicycle,29-010.png,2
25815,56,618159,685c6ca90f751d3aae6b1794,685c6e4a07589d53a0f02702,55b9a9b0fdf99b6906d2aba4,FALSE,FALSE,Hat,https://kisumu-drawings.s3-us-west-1.amazonaws.com/29-015.png,Chair,29-015.png,2
4207,57,622881,685c6ca90f751d3aae6b1794,685c6e4a07589d53a0f02702,55b9a9b0fdf99b6906d2aba4,FALSE,FALSE,Car,https://kisumu-drawings.s3-us-west-1.amazonaws.com/30-008.png,Chair,30-008.png,2
3462,58,626850,685c6ca90f751d3aae6b1794,685c6e4a07589d53a0f02702,55b9a9b0fdf99b6906d2aba4,FALSE,FALSE,Cup,https://kisumu-drawings.s3-us-west-1.amazonaws.com/110-013.png,Cup,110-013.png,6
3506,59,630860,685c6ca90f751d3aae6b1794,685c6e4a07589d53a0f02702,55b9a9b0fdf99b6906d2aba4,FALSE,FALSE,Airplane,https://kisumu-drawings.s3-us-west-1.amazonaws.com/112-015.png,Airplane,112-015.png,6
3031,60,634407,685c6ca90f751d3aae6b1794,685c6e4a07589d53a0f02702,55b9a9b0fdf99b6906d2aba4,FALSE,FALSE,Car,https://kisumu-drawings.s3-us-west-1.amazonaws.com/110-010.png,Car,110-010.png,6
6771,61,641683,685c6ca90f751d3aae6b1794,685c6e4a07589d53a0f02702,55b9a9b0fdf99b6906d2aba4,FALSE,FALSE,Rabbit,https://kisumu-drawings.s3-us-west-1.amazonaws.com/70-006.png,Cat,70-006.png,4
11564,62,653760,685c6ca90f751d3aae6b1794,685c6e4a07589d53a0f02702,55b9a9b0fdf99b6906d2aba4,FALSE,FALSE,Chair,https://kisumu-drawings.s3-us-west-1.amazonaws.com/110-012.png,Chair,110-012.png,6
14742,63,669007,685c6ca90f751d3aae6b1794,685c6e4a07589d53a0f02702,55b9a9b0fdf99b6906d2aba4,FALSE,FALSE,Cup,https://kisumu-drawings.s3-us-west-1.amazonaws.com/9-013.png,House,9-013.png,1
2542,64,672058,685c6ca90f751d3aae6b1794,685c6e4a07589d53a0f02702,55b9a9b0fdf99b6906d2aba4,FALSE,FALSE,House,https://kisumu-drawings.s3-us-west-1.amazonaws.com/53-015.png,House,53-015.png,3
18846,65,691408,685c6ca90f751d3aae6b1794,685c6e4a07589d53a0f02702,55b9a9b0fdf99b6906d2aba4,FALSE,FALSE,Bicycle,https://kisumu-drawings.s3-us-west-1.amazonaws.com/71-013.png,House,71-013.png,4
10406,66,702331,685c6ca90f751d3aae6b1794,685c6e4a07589d53a0f02702,55b9a9b0fdf99b6906d2aba4,FALSE,FALSE,Watch,https://kisumu-drawings.s3-us-west-1.amazonaws.com/9-005.png,Cat,9-005.png,1
13532,67,716367,685c6ca90f751d3aae6b1794,685c6e4a07589d53a0f02702,55b9a9b0fdf99b6906d2aba4,FALSE,FALSE,Chair,https://kisumu-drawings.s3-us-west-1.amazonaws.com/53-008.png,Chair,53-008.png,3
3081,68,719959,685c6ca90f751d3aae6b1794,685c6e4a07589d53a0f02702,55b9a9b0fdf99b6906d2aba4,FALSE,FALSE,Watch,https://kisumu-drawings.s3-us-west-1.amazonaws.com/110-005.png,Watch,110-005.png,6
3954,69,724419,685c6ca90f751d3aae6b1794,685c6e4a07589d53a0f02702,55b9a9b0fdf99b6906d2aba4,FALSE,FALSE,Cup,https://kisumu-drawings.s3-us-west-1.amazonaws.com/70-007.png,Cup,70-007.png,4
4771,70,729703,685c6ca90f751d3aae6b1794,685c6e4a07589d53a0f02702,55b9a9b0fdf99b6906d2aba4,FALSE,FALSE,Bicycle,https://kisumu-drawings.s3-us-west-1.amazonaws.com/55-006.png,Bicycle,55-006.png,3
7114,71,737327,685c6ca90f751d3aae6b1794,685c6e4a07589d53a0f02702,55b9a9b0fdf99b6906d2aba4,FALSE,FALSE,Cup,https://kisumu-drawings.s3-us-west-1.amazonaws.com/53-013.png,Bird,53-013.png,3
2895,72,740727,685c6ca90f751d3aae6b1794,685c6e4a07589d53a0f02702,55b9a9b0fdf99b6906d2aba4,FALSE,FALSE,Tree,https://kisumu-drawings.s3-us-west-1.amazonaws.com/70-015.png,Tree,70-015.png,4
6052,73,747291,685c6ca90f751d3aae6b1794,685c6e4a07589d53a0f02702,55b9a9b0fdf99b6906d2aba4,FALSE,FALSE,Bird,https://kisumu-drawings.s3-us-west-1.amazonaws.com/71-010.png,Bird,71-010.png,4
7872,74,755668,685c6ca90f751d3aae6b1794,685c6e4a07589d53a0f02702,55b9a9b0fdf99b6906d2aba4,FALSE,FALSE,Bicycle,https://kisumu-drawings.s3-us-west-1.amazonaws.com/111-010.png,Bicycle,111-010.png,6
4210,75,760384,685c6ca90f751d3aae6b1794,685c6e4a07589d53a0f02702,55b9a9b0fdf99b6906d2aba4,FALSE,FALSE,Tree,https://kisumu-drawings.s3-us-west-1.amazonaws.com/110-009.png,Tree,110-009.png,6
12671,3,40364,685c6ca90f751d3aae6b1794,685c6e6cd54d2fe70c14ffcc,5685850c333cbd000d4e042f,FALSE,FALSE,Rabbit,https://kisumu-drawings.s3-us-west-1.amazonaws.com/97-012.png,Rabbit,97-012.png,5
6520,4,47386,685c6ca90f751d3aae6b1794,685c6e6cd54d2fe70c14ffcc,5685850c333cbd000d4e042f,FALSE,FALSE,Watch,https://kisumu-drawings.s3-us-west-1.amazonaws.com/71-015.png,Watch,71-015.png,4
3116,5,51018,685c6ca90f751d3aae6b1794,685c6e6cd54d2fe70c14ffcc,5685850c333cbd000d4e042f,FALSE,FALSE,Bicycle,https://kisumu-drawings.s3-us-west-1.amazonaws.com/74-014.png,Bicycle,74-014.png,4
11467,6,63000,685c6ca90f751d3aae6b1794,685c6e6cd54d2fe70c14ffcc,5685850c333cbd000d4e042f,FALSE,FALSE,Hat,https://kisumu-drawings.s3-us-west-1.amazonaws.com/112-014.png,Hat,112-014.png,6
14487,7,77989,685c6ca90f751d3aae6b1794,685c6e6cd54d2fe70c14ffcc,5685850c333cbd000d4e042f,FALSE,FALSE,Hat,https://kisumu-drawings.s3-us-west-1.amazonaws.com/55-005.png,Tree,55-005.png,3
12416,8,90918,685c6ca90f751d3aae6b1794,685c6e6cd54d2fe70c14ffcc,5685850c333cbd000d4e042f,FALSE,FALSE,Rabbit,https://kisumu-drawings.s3-us-west-1.amazonaws.com/10-010.png,Bicycle,10-010.png,1
10916,9,102349,685c6ca90f751d3aae6b1794,685c6e6cd54d2fe70c14ffcc,5685850c333cbd000d4e042f,FALSE,FALSE,Bicycle,https://kisumu-drawings.s3-us-west-1.amazonaws.com/13-010.png,Chair,13-010.png,1
2547,10,105397,685c6ca90f751d3aae6b1794,685c6e6cd54d2fe70c14ffcc,5685850c333cbd000d4e042f,FALSE,FALSE,Watch,https://kisumu-drawings.s3-us-west-1.amazonaws.com/111-015.png,Watch,111-015.png,6
1768,11,107667,685c6ca90f751d3aae6b1794,685c6e6cd54d2fe70c14ffcc,5685850c333cbd000d4e042f,FALSE,FALSE,Cup,https://kisumu-drawings.s3-us-west-1.amazonaws.com/97-008.png,Cup,97-008.png,5
1739,12,109908,685c6ca90f751d3aae6b1794,685c6e6cd54d2fe70c14ffcc,5685850c333cbd000d4e042f,FALSE,FALSE,Tree,https://kisumu-drawings.s3-us-west-1.amazonaws.com/97-016.png,Tree,97-016.png,5
10173,13,120583,685c6ca90f751d3aae6b1794,685c6e6cd54d2fe70c14ffcc,5685850c333cbd000d4e042f,FALSE,FALSE,Watch,https://kisumu-drawings.s3-us-west-1.amazonaws.com/97-010.png,Watch,97-010.png,5
10288,14,131379,685c6ca90f751d3aae6b1794,685c6e6cd54d2fe70c14ffcc,5685850c333cbd000d4e042f,FALSE,FALSE,Bird,https://kisumu-drawings.s3-us-west-1.amazonaws.com/13-009.png,Watch,13-009.png,1
24147,15,156031,685c6ca90f751d3aae6b1794,685c6e6cd54d2fe70c14ffcc,5685850c333cbd000d4e042f,FALSE,FALSE,Cup,https://kisumu-drawings.s3-us-west-1.amazonaws.com/11-014.png,Cat,11-014.png,1
9739,16,166271,685c6ca90f751d3aae6b1794,685c6e6cd54d2fe70c14ffcc,5685850c333cbd000d4e042f,FALSE,FALSE,Cat,https://kisumu-drawings.s3-us-west-1.amazonaws.com/55-012.png,Bird,55-012.png,3
4062,17,170849,685c6ca90f751d3aae6b1794,685c6e6cd54d2fe70c14ffcc,5685850c333cbd000d4e042f,FALSE,FALSE,Cat,https://kisumu-drawings.s3-us-west-1.amazonaws.com/12-011.png,Cat,12-011.png,1
1682,18,173046,685c6ca90f751d3aae6b1794,685c6e6cd54d2fe70c14ffcc,5685850c333cbd000d4e042f,FALSE,FALSE,Watch,https://kisumu-drawings.s3-us-west-1.amazonaws.com/30-016.png,Watch,30-016.png,2
1490,19,175037,685c6ca90f751d3aae6b1794,685c6e6cd54d2fe70c14ffcc,5685850c333cbd000d4e042f,FALSE,FALSE,Tree,https://kisumu-drawings.s3-us-west-1.amazonaws.com/111-008.png,Tree,111-008.png,6
1394,20,176933,685c6ca90f751d3aae6b1794,685c6e6cd54d2fe70c14ffcc,5685850c333cbd000d4e042f,FALSE,FALSE,Tree,https://kisumu-drawings.s3-us-west-1.amazonaws.com/31-015.png,Tree,31-015.png,2
15697,21,193132,685c6ca90f751d3aae6b1794,685c6e6cd54d2fe70c14ffcc,5685850c333cbd000d4e042f,FALSE,FALSE,Rabbit,https://kisumu-drawings.s3-us-west-1.amazonaws.com/30-014.png,Hat,30-014.png,2
1809,22,195446,685c6ca90f751d3aae6b1794,685c6e6cd54d2fe70c14ffcc,5685850c333cbd000d4e042f,FALSE,FALSE,Bird,https://kisumu-drawings.s3-us-west-1.amazonaws.com/41-008.png,Airplane,41-008.png,3
2014,23,197976,685c6ca90f751d3aae6b1794,685c6e6cd54d2fe70c14ffcc,5685850c333cbd000d4e042f,FALSE,FALSE,House,https://kisumu-drawings.s3-us-west-1.amazonaws.com/71-008.png,House,71-008.png,4
9097,24,207580,685c6ca90f751d3aae6b1794,685c6e6cd54d2fe70c14ffcc,5685850c333cbd000d4e042f,FALSE,FALSE,Chair,https://kisumu-drawings.s3-us-west-1.amazonaws.com/55-013.png,House,55-013.png,3
3455,25,211538,685c6ca90f751d3aae6b1794,685c6e6cd54d2fe70c14ffcc,5685850c333cbd000d4e042f,FALSE,FALSE,Tree,https://kisumu-drawings.s3-us-west-1.amazonaws.com/11-007.png,Rabbit,11-007.png,1
14069,26,226116,685c6ca90f751d3aae6b1794,685c6e6cd54d2fe70c14ffcc,5685850c333cbd000d4e042f,FALSE,FALSE,Airplane,https://kisumu-drawings.s3-us-west-1.amazonaws.com/33-005.png,Cat,33-005.png,2
2111,27,228731,685c6ca90f751d3aae6b1794,685c6e6cd54d2fe70c14ffcc,5685850c333cbd000d4e042f,FALSE,FALSE,Airplane,https://kisumu-drawings.s3-us-west-1.amazonaws.com/81-014.png,Airplane,81-014.png,5
1976,28,231209,685c6ca90f751d3aae6b1794,685c6e6cd54d2fe70c14ffcc,5685850c333cbd000d4e042f,FALSE,FALSE,Chair,https://kisumu-drawings.s3-us-west-1.amazonaws.com/98-008.png,Chair,98-008.png,5
1127,29,232846,685c6ca90f751d3aae6b1794,685c6e6cd54d2fe70c14ffcc,5685850c333cbd000d4e042f,TRUE,FALSE,airplane,stimuli/catch_trials/0_airplane_catch.jpg,Airplane,NA,NA
10557,30,243912,685c6ca90f751d3aae6b1794,685c6e6cd54d2fe70c14ffcc,5685850c333cbd000d4e042f,FALSE,FALSE,Cat,https://kisumu-drawings.s3-us-west-1.amazonaws.com/31-009.png,Chair,31-009.png,2
2658,31,247075,685c6ca90f751d3aae6b1794,685c6e6cd54d2fe70c14ffcc,5685850c333cbd000d4e042f,FALSE,FALSE,House,https://kisumu-drawings.s3-us-west-1.amazonaws.com/31-013.png,Bird,31-013.png,2
1397,32,248988,685c6ca90f751d3aae6b1794,685c6e6cd54d2fe70c14ffcc,5685850c333cbd000d4e042f,FALSE,FALSE,Chair,https://kisumu-drawings.s3-us-west-1.amazonaws.com/72-015.png,Chair,72-015.png,4
1389,33,250883,685c6ca90f751d3aae6b1794,685c6e6cd54d2fe70c14ffcc,5685850c333cbd000d4e042f,FALSE,FALSE,House,https://kisumu-drawings.s3-us-west-1.amazonaws.com/98-005.png,House,98-005.png,5
1346,34,252730,685c6ca90f751d3aae6b1794,685c6e6cd54d2fe70c14ffcc,5685850c333cbd000d4e042f,FALSE,FALSE,Chair,https://kisumu-drawings.s3-us-west-1.amazonaws.com/31-010.png,Chair,31-010.png,2
8706,35,261938,685c6ca90f751d3aae6b1794,685c6e6cd54d2fe70c14ffcc,5685850c333cbd000d4e042f,FALSE,FALSE,Hat,https://kisumu-drawings.s3-us-west-1.amazonaws.com/30-012.png,Airplane,30-012.png,2
2159,36,264606,685c6ca90f751d3aae6b1794,685c6e6cd54d2fe70c14ffcc,5685850c333cbd000d4e042f,FALSE,FALSE,Cup,https://kisumu-drawings.s3-us-west-1.amazonaws.com/72-010.png,Cup,72-010.png,4
1515,37,266632,685c6ca90f751d3aae6b1794,685c6e6cd54d2fe70c14ffcc,5685850c333cbd000d4e042f,FALSE,FALSE,House,https://kisumu-drawings.s3-us-west-1.amazonaws.com/112-007.png,House,112-007.png,6
6052,38,273188,685c6ca90f751d3aae6b1794,685c6e6cd54d2fe70c14ffcc,5685850c333cbd000d4e042f,FALSE,FALSE,House,https://kisumu-drawings.s3-us-west-1.amazonaws.com/10-009.png,Car,10-009.png,1
10591,39,284286,685c6ca90f751d3aae6b1794,685c6e6cd54d2fe70c14ffcc,5685850c333cbd000d4e042f,FALSE,FALSE,Tree,https://kisumu-drawings.s3-us-west-1.amazonaws.com/71-014.png,Tree,71-014.png,4
1949,40,286751,685c6ca90f751d3aae6b1794,685c6e6cd54d2fe70c14ffcc,5685850c333cbd000d4e042f,FALSE,FALSE,House,https://kisumu-drawings.s3-us-west-1.amazonaws.com/54-015.png,House,54-015.png,3
2964,41,290224,685c6ca90f751d3aae6b1794,685c6e6cd54d2fe70c14ffcc,5685850c333cbd000d4e042f,FALSE,FALSE,Hat,https://kisumu-drawings.s3-us-west-1.amazonaws.com/98-012.png,Watch,98-012.png,5
3225,42,293954,685c6ca90f751d3aae6b1794,685c6e6cd54d2fe70c14ffcc,5685850c333cbd000d4e042f,FALSE,FALSE,Chair,https://kisumu-drawings.s3-us-west-1.amazonaws.com/11-013.png,Watch,11-013.png,1
2630,43,297101,685c6ca90f751d3aae6b1794,685c6e6cd54d2fe70c14ffcc,5685850c333cbd000d4e042f,FALSE,FALSE,Bicycle,https://kisumu-drawings.s3-us-west-1.amazonaws.com/33-006.png,Rabbit,33-006.png,2
1936,44,299539,685c6ca90f751d3aae6b1794,685c6e6cd54d2fe70c14ffcc,5685850c333cbd000d4e042f,FALSE,FALSE,Bicycle,https://kisumu-drawings.s3-us-west-1.amazonaws.com/42-009.png,Bicycle,42-009.png,3
15022,45,315068,685c6ca90f751d3aae6b1794,685c6e6cd54d2fe70c14ffcc,5685850c333cbd000d4e042f,FALSE,FALSE,Rabbit,https://kisumu-drawings.s3-us-west-1.amazonaws.com/71-005.png,Cat,71-005.png,4
7643,46,323212,685c6ca90f751d3aae6b1794,685c6e6cd54d2fe70c14ffcc,5685850c333cbd000d4e042f,FALSE,FALSE,Cup,https://kisumu-drawings.s3-us-west-1.amazonaws.com/55-015.png,Watch,55-015.png,3
2488,47,326205,685c6ca90f751d3aae6b1794,685c6e6cd54d2fe70c14ffcc,5685850c333cbd000d4e042f,FALSE,FALSE,Bird,https://kisumu-drawings.s3-us-west-1.amazonaws.com/32-012.png,Cat,32-012.png,2
2069,48,328778,685c6ca90f751d3aae6b1794,685c6e6cd54d2fe70c14ffcc,5685850c333cbd000d4e042f,FALSE,FALSE,Airplane,https://kisumu-drawings.s3-us-west-1.amazonaws.com/114-011.png,Car,114-011.png,6
3050,49,332333,685c6ca90f751d3aae6b1794,685c6e6cd54d2fe70c14ffcc,5685850c333cbd000d4e042f,FALSE,FALSE,Chair,https://kisumu-drawings.s3-us-west-1.amazonaws.com/112-008.png,Chair,112-008.png,6
1738,50,334573,685c6ca90f751d3aae6b1794,685c6e6cd54d2fe70c14ffcc,5685850c333cbd000d4e042f,FALSE,FALSE,Car,https://kisumu-drawings.s3-us-west-1.amazonaws.com/41-010.png,Car,41-010.png,3
5293,51,340373,685c6ca90f751d3aae6b1794,685c6e6cd54d2fe70c14ffcc,5685850c333cbd000d4e042f,FALSE,FALSE,Rabbit,https://kisumu-drawings.s3-us-west-1.amazonaws.com/111-011.png,Cat,111-011.png,6
10136,52,351015,685c6ca90f751d3aae6b1794,685c6e6cd54d2fe70c14ffcc,5685850c333cbd000d4e042f,FALSE,FALSE,Bicycle,https://kisumu-drawings.s3-us-west-1.amazonaws.com/100-010.png,Airplane,100-010.png,5
2123,53,353640,685c6ca90f751d3aae6b1794,685c6e6cd54d2fe70c14ffcc,5685850c333cbd000d4e042f,FALSE,FALSE,Tree,https://kisumu-drawings.s3-us-west-1.amazonaws.com/54-011.png,Tree,54-011.png,3
9468,54,363611,685c6ca90f751d3aae6b1794,685c6e6cd54d2fe70c14ffcc,5685850c333cbd000d4e042f,FALSE,FALSE,Bird,https://kisumu-drawings.s3-us-west-1.amazonaws.com/73-008.png,Bird,73-008.png,4
2307,55,366427,685c6ca90f751d3aae6b1794,685c6e6cd54d2fe70c14ffcc,5685850c333cbd000d4e042f,FALSE,FALSE,Watch,https://kisumu-drawings.s3-us-west-1.amazonaws.com/54-012.png,Watch,54-012.png,3
1824,56,368752,685c6ca90f751d3aae6b1794,685c6e6cd54d2fe70c14ffcc,5685850c333cbd000d4e042f,FALSE,FALSE,Hat,https://kisumu-drawings.s3-us-west-1.amazonaws.com/72-011.png,Chair,72-011.png,4
2329,57,371584,685c6ca90f751d3aae6b1794,685c6e6cd54d2fe70c14ffcc,5685850c333cbd000d4e042f,FALSE,FALSE,Car,https://kisumu-drawings.s3-us-west-1.amazonaws.com/73-012.png,Car,73-012.png,4
5307,58,377393,685c6ca90f751d3aae6b1794,685c6e6cd54d2fe70c14ffcc,5685850c333cbd000d4e042f,FALSE,FALSE,Cat,https://kisumu-drawings.s3-us-west-1.amazonaws.com/112-016.png,Bird,112-016.png,6
2991,59,380899,685c6ca90f751d3aae6b1794,685c6e6cd54d2fe70c14ffcc,5685850c333cbd000d4e042f,FALSE,FALSE,Cat,https://kisumu-drawings.s3-us-west-1.amazonaws.com/98-009.png,Cat,98-009.png,5
1292,60,382696,685c6ca90f751d3aae6b1794,685c6e6cd54d2fe70c14ffcc,5685850c333cbd000d4e042f,FALSE,FALSE,Bird,https://kisumu-drawings.s3-us-west-1.amazonaws.com/114-015.png,Bird,114-015.png,6
1261,61,384459,685c6ca90f751d3aae6b1794,685c6e6cd54d2fe70c14ffcc,5685850c333cbd000d4e042f,FALSE,FALSE,Car,https://kisumu-drawings.s3-us-west-1.amazonaws.com/12-010.png,Car,12-010.png,1
5751,62,390714,685c6ca90f751d3aae6b1794,685c6e6cd54d2fe70c14ffcc,5685850c333cbd000d4e042f,FALSE,FALSE,Hat,https://kisumu-drawings.s3-us-west-1.amazonaws.com/10-015.png,Watch,10-015.png,1
4569,63,395787,685c6ca90f751d3aae6b1794,685c6e6cd54d2fe70c14ffcc,5685850c333cbd000d4e042f,FALSE,FALSE,Bird,https://kisumu-drawings.s3-us-west-1.amazonaws.com/99-014.png,Bird,99-014.png,5
4864,64,401159,685c6ca90f751d3aae6b1794,685c6e6cd54d2fe70c14ffcc,5685850c333cbd000d4e042f,FALSE,FALSE,Cup,https://kisumu-drawings.s3-us-west-1.amazonaws.com/31-011.png,Car,31-011.png,2
1369,65,403032,685c6ca90f751d3aae6b1794,685c6e6cd54d2fe70c14ffcc,5685850c333cbd000d4e042f,FALSE,FALSE,Car,https://kisumu-drawings.s3-us-west-1.amazonaws.com/100-012.png,Car,100-012.png,5
5391,66,408932,685c6ca90f751d3aae6b1794,685c6e6cd54d2fe70c14ffcc,5685850c333cbd000d4e042f,FALSE,FALSE,Airplane,https://kisumu-drawings.s3-us-west-1.amazonaws.com/14-012.png,Watch,14-012.png,1
1828,67,411263,685c6ca90f751d3aae6b1794,685c6e6cd54d2fe70c14ffcc,5685850c333cbd000d4e042f,FALSE,FALSE,Car,https://kisumu-drawings.s3-us-west-1.amazonaws.com/113-015.png,Car,113-015.png,6
1220,68,412989,685c6ca90f751d3aae6b1794,685c6e6cd54d2fe70c14ffcc,5685850c333cbd000d4e042f,FALSE,FALSE,Car,https://kisumu-drawings.s3-us-west-1.amazonaws.com/32-011.png,Car,32-011.png,2
11372,69,424876,685c6ca90f751d3aae6b1794,685c6e6cd54d2fe70c14ffcc,5685850c333cbd000d4e042f,FALSE,FALSE,Watch,https://kisumu-drawings.s3-us-west-1.amazonaws.com/10-012.png,Watch,10-012.png,1
2357,70,427738,685c6ca90f751d3aae6b1794,685c6e6cd54d2fe70c14ffcc,5685850c333cbd000d4e042f,FALSE,FALSE,Cat,https://kisumu-drawings.s3-us-west-1.amazonaws.com/72-014.png,Cat,72-014.png,4
1712,71,429956,685c6ca90f751d3aae6b1794,685c6e6cd54d2fe70c14ffcc,5685850c333cbd000d4e042f,FALSE,FALSE,Airplane,https://kisumu-drawings.s3-us-west-1.amazonaws.com/74-015.png,Airplane,74-015.png,4
1636,72,432103,685c6ca90f751d3aae6b1794,685c6e6cd54d2fe70c14ffcc,5685850c333cbd000d4e042f,FALSE,FALSE,Bicycle,https://kisumu-drawings.s3-us-west-1.amazonaws.com/114-014.png,Bicycle,114-014.png,6
14739,73,447342,685c6ca90f751d3aae6b1794,685c6e6cd54d2fe70c14ffcc,5685850c333cbd000d4e042f,FALSE,FALSE,Airplane,https://kisumu-drawings.s3-us-west-1.amazonaws.com/42-016.png,Chair,42-016.png,3
3144,74,450988,685c6ca90f751d3aae6b1794,685c6e6cd54d2fe70c14ffcc,5685850c333cbd000d4e042f,FALSE,FALSE,Cup,https://kisumu-drawings.s3-us-west-1.amazonaws.com/112-009.png,Cup,112-009.png,6
2220,75,453717,685c6ca90f751d3aae6b1794,685c6e6cd54d2fe70c14ffcc,5685850c333cbd000d4e042f,FALSE,FALSE,Rabbit,https://kisumu-drawings.s3-us-west-1.amazonaws.com/54-016.png,Cat,54-016.png,3
3507,3,43205,685c6ca90f751d3aae6b1794,685c6e0fb45fbdb8360336e6,56b53292a9d33a000c8981a6,FALSE,FALSE,House,https://kisumu-drawings.s3-us-west-1.amazonaws.com/103-010.png,House,103-010.png,6
27524,4,71239,685c6ca90f751d3aae6b1794,685c6e0fb45fbdb8360336e6,56b53292a9d33a000c8981a6,FALSE,FALSE,Rabbit,https://kisumu-drawings.s3-us-west-1.amazonaws.com/103-008.png,Cat,103-008.png,6
8613,5,80364,685c6ca90f751d3aae6b1794,685c6e0fb45fbdb8360336e6,56b53292a9d33a000c8981a6,FALSE,FALSE,Bird,https://kisumu-drawings.s3-us-west-1.amazonaws.com/64-005.png,Bird,64-005.png,4
27289,6,108160,685c6ca90f751d3aae6b1794,685c6e0fb45fbdb8360336e6,56b53292a9d33a000c8981a6,FALSE,FALSE,Airplane,https://kisumu-drawings.s3-us-west-1.amazonaws.com/57-014.png,Car,57-014.png,3
4630,7,113294,685c6ca90f751d3aae6b1794,685c6e0fb45fbdb8360336e6,56b53292a9d33a000c8981a6,FALSE,FALSE,Tree,https://kisumu-drawings.s3-us-west-1.amazonaws.com/23-009.png,Tree,23-009.png,2
2077,8,115881,685c6ca90f751d3aae6b1794,685c6e0fb45fbdb8360336e6,56b53292a9d33a000c8981a6,FALSE,FALSE,Hat,https://kisumu-drawings.s3-us-west-1.amazonaws.com/103-009.png,Hat,103-009.png,6
2951,9,119345,685c6ca90f751d3aae6b1794,685c6e0fb45fbdb8360336e6,56b53292a9d33a000c8981a6,FALSE,FALSE,Bicycle,https://kisumu-drawings.s3-us-west-1.amazonaws.com/103-014.png,Bicycle,103-014.png,6
2055,10,121911,685c6ca90f751d3aae6b1794,685c6e0fb45fbdb8360336e6,56b53292a9d33a000c8981a6,FALSE,FALSE,Cup,https://kisumu-drawings.s3-us-west-1.amazonaws.com/64-011.png,Cup,64-011.png,4
17954,11,140373,685c6ca90f751d3aae6b1794,685c6e0fb45fbdb8360336e6,56b53292a9d33a000c8981a6,FALSE,FALSE,Cat,https://kisumu-drawings.s3-us-west-1.amazonaws.com/56-013.png,Rabbit,56-013.png,3
2472,12,143356,685c6ca90f751d3aae6b1794,685c6e0fb45fbdb8360336e6,56b53292a9d33a000c8981a6,FALSE,FALSE,House,https://kisumu-drawings.s3-us-west-1.amazonaws.com/89-015.png,House,89-015.png,5
21195,13,165064,685c6ca90f751d3aae6b1794,685c6e0fb45fbdb8360336e6,56b53292a9d33a000c8981a6,FALSE,FALSE,Tree,https://kisumu-drawings.s3-us-west-1.amazonaws.com/57-005.png,Tree,57-005.png,3
2590,14,168164,685c6ca90f751d3aae6b1794,685c6e0fb45fbdb8360336e6,56b53292a9d33a000c8981a6,FALSE,FALSE,Chair,https://kisumu-drawings.s3-us-west-1.amazonaws.com/89-007.png,Chair,89-007.png,5
5007,15,173681,685c6ca90f751d3aae6b1794,685c6e0fb45fbdb8360336e6,56b53292a9d33a000c8981a6,FALSE,FALSE,Car,https://kisumu-drawings.s3-us-west-1.amazonaws.com/2-016.png,Car,2-016.png,1
19908,16,194101,685c6ca90f751d3aae6b1794,685c6e0fb45fbdb8360336e6,56b53292a9d33a000c8981a6,FALSE,FALSE,Bicycle,https://kisumu-drawings.s3-us-west-1.amazonaws.com/23-016.png,Rabbit,23-016.png,2
2109,17,196722,685c6ca90f751d3aae6b1794,685c6e0fb45fbdb8360336e6,56b53292a9d33a000c8981a6,FALSE,FALSE,Cup,https://kisumu-drawings.s3-us-west-1.amazonaws.com/89-008.png,Cup,89-008.png,5
1438,18,198669,685c6ca90f751d3aae6b1794,685c6e0fb45fbdb8360336e6,56b53292a9d33a000c8981a6,FALSE,FALSE,Cup,https://kisumu-drawings.s3-us-west-1.amazonaws.com/57-010.png,Cup,57-010.png,3
17280,19,216458,685c6ca90f751d3aae6b1794,685c6e0fb45fbdb8360336e6,56b53292a9d33a000c8981a6,FALSE,FALSE,Hat,https://kisumu-drawings.s3-us-west-1.amazonaws.com/89-005.png,Chair,89-005.png,5
5405,20,222368,685c6ca90f751d3aae6b1794,685c6e0fb45fbdb8360336e6,56b53292a9d33a000c8981a6,FALSE,FALSE,Rabbit,https://kisumu-drawings.s3-us-west-1.amazonaws.com/57-016.png,Rabbit,57-016.png,3
15583,21,238461,685c6ca90f751d3aae6b1794,685c6e0fb45fbdb8360336e6,56b53292a9d33a000c8981a6,FALSE,FALSE,Airplane,https://kisumu-drawings.s3-us-west-1.amazonaws.com/89-014.png,Airplane,89-014.png,5
17948,22,256919,685c6ca90f751d3aae6b1794,685c6e0fb45fbdb8360336e6,56b53292a9d33a000c8981a6,FALSE,FALSE,Cat,https://kisumu-drawings.s3-us-west-1.amazonaws.com/64-006.png,Bird,64-006.png,4
30634,23,288066,685c6ca90f751d3aae6b1794,685c6e0fb45fbdb8360336e6,56b53292a9d33a000c8981a6,FALSE,FALSE,Airplane,https://kisumu-drawings.s3-us-west-1.amazonaws.com/2-013.png,Airplane,2-013.png,1
3012,24,291589,685c6ca90f751d3aae6b1794,685c6e0fb45fbdb8360336e6,56b53292a9d33a000c8981a6,FALSE,FALSE,Tree,https://kisumu-drawings.s3-us-west-1.amazonaws.com/64-010.png,Tree,64-010.png,4
4304,25,296403,685c6ca90f751d3aae6b1794,685c6e0fb45fbdb8360336e6,56b53292a9d33a000c8981a6,FALSE,FALSE,Chair,https://kisumu-drawings.s3-us-west-1.amazonaws.com/64-012.png,Chair,64-012.png,4
10551,26,307466,685c6ca90f751d3aae6b1794,685c6e0fb45fbdb8360336e6,56b53292a9d33a000c8981a6,FALSE,FALSE,Airplane,https://kisumu-drawings.s3-us-west-1.amazonaws.com/64-016.png,Airplane,64-016.png,4
1965,27,309939,685c6ca90f751d3aae6b1794,685c6e0fb45fbdb8360336e6,56b53292a9d33a000c8981a6,FALSE,FALSE,Cup,https://kisumu-drawings.s3-us-west-1.amazonaws.com/103-006.png,Cup,103-006.png,6
10585,28,321032,685c6ca90f751d3aae6b1794,685c6e0fb45fbdb8360336e6,56b53292a9d33a000c8981a6,FALSE,FALSE,Rabbit,https://kisumu-drawings.s3-us-west-1.amazonaws.com/2-010.png,Watch,2-010.png,1
5914,29,327451,685c6ca90f751d3aae6b1794,685c6e0fb45fbdb8360336e6,56b53292a9d33a000c8981a6,FALSE,FALSE,Cat,https://kisumu-drawings.s3-us-west-1.amazonaws.com/2-015.png,Cat,2-015.png,1
2399,30,330358,685c6ca90f751d3aae6b1794,685c6e0fb45fbdb8360336e6,56b53292a9d33a000c8981a6,FALSE,FALSE,Watch,https://kisumu-drawings.s3-us-west-1.amazonaws.com/57-006.png,Watch,57-006.png,3
2293,31,333157,685c6ca90f751d3aae6b1794,685c6e0fb45fbdb8360336e6,56b53292a9d33a000c8981a6,FALSE,FALSE,Chair,https://kisumu-drawings.s3-us-west-1.amazonaws.com/57-009.png,Chair,57-009.png,3
32733,32,366399,685c6ca90f751d3aae6b1794,685c6e0fb45fbdb8360336e6,56b53292a9d33a000c8981a6,FALSE,FALSE,Airplane,https://kisumu-drawings.s3-us-west-1.amazonaws.com/23-012.png,House,23-012.png,2
2777,33,369688,685c6ca90f751d3aae6b1794,685c6e0fb45fbdb8360336e6,56b53292a9d33a000c8981a6,FALSE,FALSE,Watch,https://kisumu-drawings.s3-us-west-1.amazonaws.com/64-009.png,Watch,64-009.png,4
2873,34,373069,685c6ca90f751d3aae6b1794,685c6e0fb45fbdb8360336e6,56b53292a9d33a000c8981a6,FALSE,FALSE,Bird,https://kisumu-drawings.s3-us-west-1.amazonaws.com/57-012.png,Bird,57-012.png,3
1651,35,375229,685c6ca90f751d3aae6b1794,685c6e0fb45fbdb8360336e6,56b53292a9d33a000c8981a6,FALSE,FALSE,Watch,https://kisumu-drawings.s3-us-west-1.amazonaws.com/89-009.png,Watch,89-009.png,5
17781,36,393519,685c6ca90f751d3aae6b1794,685c6e0fb45fbdb8360336e6,56b53292a9d33a000c8981a6,FALSE,FALSE,Watch,https://kisumu-drawings.s3-us-west-1.amazonaws.com/103-012.png,Watch,103-012.png,6
2247,37,396279,685c6ca90f751d3aae6b1794,685c6e0fb45fbdb8360336e6,56b53292a9d33a000c8981a6,FALSE,FALSE,Bicycle,https://kisumu-drawings.s3-us-west-1.amazonaws.com/57-011.png,Bicycle,57-011.png,3
1938,38,398726,685c6ca90f751d3aae6b1794,685c6e0fb45fbdb8360336e6,56b53292a9d33a000c8981a6,FALSE,FALSE,Chair,https://kisumu-drawings.s3-us-west-1.amazonaws.com/2-005.png,Chair,2-005.png,1
35755,39,434996,685c6ca90f751d3aae6b1794,685c6e0fb45fbdb8360336e6,56b53292a9d33a000c8981a6,FALSE,FALSE,Hat,https://kisumu-drawings.s3-us-west-1.amazonaws.com/57-007.png,Hat,57-007.png,3
4271,40,439779,685c6ca90f751d3aae6b1794,685c6e0fb45fbdb8360336e6,56b53292a9d33a000c8981a6,FALSE,FALSE,Hat,https://kisumu-drawings.s3-us-west-1.amazonaws.com/64-013.png,Hat,64-013.png,4
6693,41,446981,685c6ca90f751d3aae6b1794,685c6e0fb45fbdb8360336e6,56b53292a9d33a000c8981a6,FALSE,FALSE,Watch,https://kisumu-drawings.s3-us-west-1.amazonaws.com/2-011.png,Watch,2-011.png,1
2594,42,450083,685c6ca90f751d3aae6b1794,685c6e0fb45fbdb8360336e6,56b53292a9d33a000c8981a6,FALSE,FALSE,Tree,https://kisumu-drawings.s3-us-west-1.amazonaws.com/89-006.png,Tree,89-006.png,5
3468,43,454059,685c6ca90f751d3aae6b1794,685c6e0fb45fbdb8360336e6,56b53292a9d33a000c8981a6,FALSE,FALSE,Chair,https://kisumu-drawings.s3-us-west-1.amazonaws.com/103-013.png,Chair,103-013.png,6
27487,44,482055,685c6ca90f751d3aae6b1794,685c6e0fb45fbdb8360336e6,56b53292a9d33a000c8981a6,FALSE,FALSE,Bird,https://kisumu-drawings.s3-us-west-1.amazonaws.com/23-010.png,Hat,23-010.png,2
14812,45,497379,685c6ca90f751d3aae6b1794,685c6e0fb45fbdb8360336e6,56b53292a9d33a000c8981a6,FALSE,FALSE,Hat,https://kisumu-drawings.s3-us-west-1.amazonaws.com/2-006.png,Hat,2-006.png,1
8417,46,506306,685c6ca90f751d3aae6b1794,685c6e0fb45fbdb8360336e6,56b53292a9d33a000c8981a6,FALSE,FALSE,Rabbit,https://kisumu-drawings.s3-us-west-1.amazonaws.com/23-008.png,Bird,23-008.png,2
1989,47,508804,685c6ca90f751d3aae6b1794,685c6e0fb45fbdb8360336e6,56b53292a9d33a000c8981a6,FALSE,FALSE,House,https://kisumu-drawings.s3-us-west-1.amazonaws.com/64-008.png,House,64-008.png,4
2862,48,512180,685c6ca90f751d3aae6b1794,685c6e0fb45fbdb8360336e6,56b53292a9d33a000c8981a6,FALSE,FALSE,House,https://kisumu-drawings.s3-us-west-1.amazonaws.com/2-008.png,House,2-008.png,1
1333,49,514022,685c6ca90f751d3aae6b1794,685c6e0fb45fbdb8360336e6,56b53292a9d33a000c8981a6,FALSE,FALSE,House,https://kisumu-drawings.s3-us-west-1.amazonaws.com/57-015.png,House,57-015.png,3
4914,50,519445,685c6ca90f751d3aae6b1794,685c6e0fb45fbdb8360336e6,56b53292a9d33a000c8981a6,FALSE,FALSE,Bicycle,https://kisumu-drawings.s3-us-west-1.amazonaws.com/2-012.png,Car,2-012.png,1
33831,51,553781,685c6ca90f751d3aae6b1794,685c6e0fb45fbdb8360336e6,56b53292a9d33a000c8981a6,FALSE,FALSE,Bird,https://kisumu-drawings.s3-us-west-1.amazonaws.com/2-014.png,Bird,2-014.png,1
5348,52,559636,685c6ca90f751d3aae6b1794,685c6e0fb45fbdb8360336e6,56b53292a9d33a000c8981a6,FALSE,FALSE,Car,https://kisumu-drawings.s3-us-west-1.amazonaws.com/57-013.png,Car,57-013.png,3
2084,53,562229,685c6ca90f751d3aae6b1794,685c6e0fb45fbdb8360336e6,56b53292a9d33a000c8981a6,FALSE,FALSE,Hat,https://kisumu-drawings.s3-us-west-1.amazonaws.com/23-014.png,Hat,23-014.png,2
5538,54,568278,685c6ca90f751d3aae6b1794,685c6e0fb45fbdb8360336e6,56b53292a9d33a000c8981a6,FALSE,FALSE,Cat,https://kisumu-drawings.s3-us-west-1.amazonaws.com/89-010.png,Cat,89-010.png,5
2968,55,571760,685c6ca90f751d3aae6b1794,685c6e0fb45fbdb8360336e6,56b53292a9d33a000c8981a6,FALSE,FALSE,Airplane,https://kisumu-drawings.s3-us-west-1.amazonaws.com/103-005.png,Airplane,103-005.png,6
10613,56,582884,685c6ca90f751d3aae6b1794,685c6e0fb45fbdb8360336e6,56b53292a9d33a000c8981a6,FALSE,FALSE,Rabbit,https://kisumu-drawings.s3-us-west-1.amazonaws.com/89-016.png,Cat,89-016.png,5
4965,57,588358,685c6ca90f751d3aae6b1794,685c6e0fb45fbdb8360336e6,56b53292a9d33a000c8981a6,FALSE,FALSE,Cat,https://kisumu-drawings.s3-us-west-1.amazonaws.com/103-011.png,Cat,103-011.png,6
17327,58,606189,685c6ca90f751d3aae6b1794,685c6e0fb45fbdb8360336e6,56b53292a9d33a000c8981a6,FALSE,FALSE,Car,https://kisumu-drawings.s3-us-west-1.amazonaws.com/23-011.png,Airplane,23-011.png,2
26826,59,633525,685c6ca90f751d3aae6b1794,685c6e0fb45fbdb8360336e6,56b53292a9d33a000c8981a6,FALSE,FALSE,Cat,https://kisumu-drawings.s3-us-west-1.amazonaws.com/23-006.png,Chair,23-006.png,2
1804,60,635839,685c6ca90f751d3aae6b1794,685c6e0fb45fbdb8360336e6,56b53292a9d33a000c8981a6,TRUE,FALSE,airplane,stimuli/catch_trials/0_airplane_catch.jpg,Airplane,NA,NA
7248,61,643597,685c6ca90f751d3aae6b1794,685c6e0fb45fbdb8360336e6,56b53292a9d33a000c8981a6,FALSE,FALSE,Bicycle,https://kisumu-drawings.s3-us-west-1.amazonaws.com/89-011.png,Bicycle,89-011.png,5
16595,62,660704,685c6ca90f751d3aae6b1794,685c6e0fb45fbdb8360336e6,56b53292a9d33a000c8981a6,FALSE,FALSE,Car,https://kisumu-drawings.s3-us-west-1.amazonaws.com/64-014.png,Hat,64-014.png,4
5091,63,666304,685c6ca90f751d3aae6b1794,685c6e0fb45fbdb8360336e6,56b53292a9d33a000c8981a6,FALSE,FALSE,Car,https://kisumu-drawings.s3-us-west-1.amazonaws.com/89-013.png,Car,89-013.png,5
2559,64,669373,685c6ca90f751d3aae6b1794,685c6e0fb45fbdb8360336e6,56b53292a9d33a000c8981a6,FALSE,FALSE,Watch,https://kisumu-drawings.s3-us-west-1.amazonaws.com/23-007.png,Hat,23-007.png,2
2435,65,672320,685c6ca90f751d3aae6b1794,685c6e0fb45fbdb8360336e6,56b53292a9d33a000c8981a6,FALSE,FALSE,Rabbit,https://kisumu-drawings.s3-us-west-1.amazonaws.com/64-007.png,Bird,64-007.png,4
3219,66,676049,685c6ca90f751d3aae6b1794,685c6e0fb45fbdb8360336e6,56b53292a9d33a000c8981a6,FALSE,FALSE,House,https://kisumu-drawings.s3-us-west-1.amazonaws.com/23-015.png,House,23-015.png,2
2343,67,678899,685c6ca90f751d3aae6b1794,685c6e0fb45fbdb8360336e6,56b53292a9d33a000c8981a6,FALSE,FALSE,Chair,https://kisumu-drawings.s3-us-west-1.amazonaws.com/23-005.png,Chair,23-005.png,2
17217,68,696625,685c6ca90f751d3aae6b1794,685c6e0fb45fbdb8360336e6,56b53292a9d33a000c8981a6,FALSE,FALSE,Bird,https://kisumu-drawings.s3-us-west-1.amazonaws.com/89-012.png,Airplane,89-012.png,5
2321,69,699454,685c6ca90f751d3aae6b1794,685c6e0fb45fbdb8360336e6,56b53292a9d33a000c8981a6,FALSE,FALSE,Car,https://kisumu-drawings.s3-us-west-1.amazonaws.com/103-016.png,Car,103-016.png,6
40425,70,740389,685c6ca90f751d3aae6b1794,685c6e0fb45fbdb8360336e6,56b53292a9d33a000c8981a6,FALSE,FALSE,Bicycle,https://kisumu-drawings.s3-us-west-1.amazonaws.com/64-015.png,Bicycle,64-015.png,4
2450,71,743352,685c6ca90f751d3aae6b1794,685c6e0fb45fbdb8360336e6,56b53292a9d33a000c8981a6,FALSE,FALSE,Cup,https://kisumu-drawings.s3-us-west-1.amazonaws.com/23-013.png,Cup,23-013.png,2
10594,72,754460,685c6ca90f751d3aae6b1794,685c6e0fb45fbdb8360336e6,56b53292a9d33a000c8981a6,FALSE,FALSE,Cup,https://kisumu-drawings.s3-us-west-1.amazonaws.com/2-007.png,Cup,2-007.png,1
11354,73,766324,685c6ca90f751d3aae6b1794,685c6e0fb45fbdb8360336e6,56b53292a9d33a000c8981a6,FALSE,FALSE,Tree,https://kisumu-drawings.s3-us-west-1.amazonaws.com/2-009.png,Tree,2-009.png,1
1706,74,768542,685c6ca90f751d3aae6b1794,685c6e0fb45fbdb8360336e6,56b53292a9d33a000c8981a6,FALSE,FALSE,Tree,https://kisumu-drawings.s3-us-west-1.amazonaws.com/103-007.png,Tree,103-007.png,6
2484,75,771539,685c6ca90f751d3aae6b1794,685c6e0fb45fbdb8360336e6,56b53292a9d33a000c8981a6,FALSE,FALSE,Bird,https://kisumu-drawings.s3-us-west-1.amazonaws.com/103-015.png,Bird,103-015.png,6
14989,3,97992,685c6ca90f751d3aae6b1794,685c6e3f4bcca8e4d99b24a0,56e6a66af6ed900006a5867c,FALSE,FALSE,Car,https://kisumu-drawings.s3-us-west-1.amazonaws.com/8-006.png,Chair,8-006.png,1
9830,4,108327,685c6ca90f751d3aae6b1794,685c6e3f4bcca8e4d99b24a0,56e6a66af6ed900006a5867c,FALSE,FALSE,Bicycle,https://kisumu-drawings.s3-us-west-1.amazonaws.com/28-005.png,Bicycle,28-005.png,2
13993,5,122828,685c6ca90f751d3aae6b1794,685c6e3f4bcca8e4d99b24a0,56e6a66af6ed900006a5867c,FALSE,FALSE,Cat,https://kisumu-drawings.s3-us-west-1.amazonaws.com/8-007.png,Chair,8-007.png,1
15159,6,138494,685c6ca90f751d3aae6b1794,685c6e3f4bcca8e4d99b24a0,56e6a66af6ed900006a5867c,FALSE,FALSE,Cat,https://kisumu-drawings.s3-us-west-1.amazonaws.com/109-005.png,Cat,109-005.png,6
8806,7,147814,685c6ca90f751d3aae6b1794,685c6e3f4bcca8e4d99b24a0,56e6a66af6ed900006a5867c,FALSE,FALSE,Car,https://kisumu-drawings.s3-us-west-1.amazonaws.com/96-013.png,Car,96-013.png,5
22543,8,170862,685c6ca90f751d3aae6b1794,685c6e3f4bcca8e4d99b24a0,56e6a66af6ed900006a5867c,FALSE,FALSE,Hat,https://kisumu-drawings.s3-us-west-1.amazonaws.com/7-014.png,Chair,7-014.png,1
11202,9,182571,685c6ca90f751d3aae6b1794,685c6e3f4bcca8e4d99b24a0,56e6a66af6ed900006a5867c,FALSE,FALSE,Bird,https://kisumu-drawings.s3-us-west-1.amazonaws.com/28-016.png,Watch,28-016.png,2
8262,10,191347,685c6ca90f751d3aae6b1794,685c6e3f4bcca8e4d99b24a0,56e6a66af6ed900006a5867c,FALSE,FALSE,House,https://kisumu-drawings.s3-us-west-1.amazonaws.com/95-006.png,House,95-006.png,5
17110,11,208973,685c6ca90f751d3aae6b1794,685c6e3f4bcca8e4d99b24a0,56e6a66af6ed900006a5867c,FALSE,FALSE,Car,https://kisumu-drawings.s3-us-west-1.amazonaws.com/28-007.png,Car,28-007.png,2
8698,12,218187,685c6ca90f751d3aae6b1794,685c6e3f4bcca8e4d99b24a0,56e6a66af6ed900006a5867c,FALSE,FALSE,Cup,https://kisumu-drawings.s3-us-west-1.amazonaws.com/69-007.png,Cup,69-007.png,4
6581,13,225274,685c6ca90f751d3aae6b1794,685c6e3f4bcca8e4d99b24a0,56e6a66af6ed900006a5867c,FALSE,FALSE,Bird,https://kisumu-drawings.s3-us-west-1.amazonaws.com/69-015.png,Bird,69-015.png,4
4948,14,230724,685c6ca90f751d3aae6b1794,685c6e3f4bcca8e4d99b24a0,56e6a66af6ed900006a5867c,FALSE,FALSE,Rabbit,https://kisumu-drawings.s3-us-west-1.amazonaws.com/8-013.png,Chair,8-013.png,1
5637,15,236864,685c6ca90f751d3aae6b1794,685c6e3f4bcca8e4d99b24a0,56e6a66af6ed900006a5867c,FALSE,FALSE,Watch,https://kisumu-drawings.s3-us-west-1.amazonaws.com/52-013.png,Watch,52-013.png,3
9357,16,246732,685c6ca90f751d3aae6b1794,685c6e3f4bcca8e4d99b24a0,56e6a66af6ed900006a5867c,FALSE,FALSE,Tree,https://kisumu-drawings.s3-us-west-1.amazonaws.com/95-014.png,Tree,95-014.png,5
8062,17,255301,685c6ca90f751d3aae6b1794,685c6e3f4bcca8e4d99b24a0,56e6a66af6ed900006a5867c,FALSE,FALSE,Tree,https://kisumu-drawings.s3-us-west-1.amazonaws.com/8-014.png,Chair,8-014.png,1
3802,18,259617,685c6ca90f751d3aae6b1794,685c6e3f4bcca8e4d99b24a0,56e6a66af6ed900006a5867c,FALSE,FALSE,Cat,https://kisumu-drawings.s3-us-west-1.amazonaws.com/52-014.png,Cat,52-014.png,3
3028,19,263153,685c6ca90f751d3aae6b1794,685c6e3f4bcca8e4d99b24a0,56e6a66af6ed900006a5867c,FALSE,FALSE,House,https://kisumu-drawings.s3-us-west-1.amazonaws.com/28-012.png,House,28-012.png,2
3323,20,266984,685c6ca90f751d3aae6b1794,685c6e3f4bcca8e4d99b24a0,56e6a66af6ed900006a5867c,FALSE,FALSE,Chair,https://kisumu-drawings.s3-us-west-1.amazonaws.com/109-010.png,Chair,109-010.png,6
3799,21,271286,685c6ca90f751d3aae6b1794,685c6e3f4bcca8e4d99b24a0,56e6a66af6ed900006a5867c,FALSE,FALSE,Airplane,https://kisumu-drawings.s3-us-west-1.amazonaws.com/70-008.png,Airplane,70-008.png,4
3563,22,275351,685c6ca90f751d3aae6b1794,685c6e3f4bcca8e4d99b24a0,56e6a66af6ed900006a5867c,FALSE,FALSE,Hat,https://kisumu-drawings.s3-us-west-1.amazonaws.com/52-009.png,Hat,52-009.png,3
3437,23,279301,685c6ca90f751d3aae6b1794,685c6e3f4bcca8e4d99b24a0,56e6a66af6ed900006a5867c,FALSE,FALSE,Tree,https://kisumu-drawings.s3-us-west-1.amazonaws.com/28-015.png,Tree,28-015.png,2
3098,24,282911,685c6ca90f751d3aae6b1794,685c6e3f4bcca8e4d99b24a0,56e6a66af6ed900006a5867c,FALSE,FALSE,Cat,https://kisumu-drawings.s3-us-west-1.amazonaws.com/28-008.png,Cat,28-008.png,2
3154,25,286575,685c6ca90f751d3aae6b1794,685c6e3f4bcca8e4d99b24a0,56e6a66af6ed900006a5867c,FALSE,FALSE,Cup,https://kisumu-drawings.s3-us-west-1.amazonaws.com/95-013.png,Cup,95-013.png,5
3489,26,290576,685c6ca90f751d3aae6b1794,685c6e3f4bcca8e4d99b24a0,56e6a66af6ed900006a5867c,FALSE,FALSE,Tree,https://kisumu-drawings.s3-us-west-1.amazonaws.com/109-009.png,Tree,109-009.png,6
8585,27,299677,685c6ca90f751d3aae6b1794,685c6e3f4bcca8e4d99b24a0,56e6a66af6ed900006a5867c,FALSE,FALSE,Car,https://kisumu-drawings.s3-us-west-1.amazonaws.com/52-006.png,Car,52-006.png,3
26061,28,326247,685c6ca90f751d3aae6b1794,685c6e3f4bcca8e4d99b24a0,56e6a66af6ed900006a5867c,FALSE,FALSE,Bird,https://kisumu-drawings.s3-us-west-1.amazonaws.com/95-008.png,Watch,95-008.png,5
10351,29,337112,685c6ca90f751d3aae6b1794,685c6e3f4bcca8e4d99b24a0,56e6a66af6ed900006a5867c,FALSE,FALSE,Bicycle,https://kisumu-drawings.s3-us-west-1.amazonaws.com/69-014.png,Bicycle,69-014.png,4
5189,30,342812,685c6ca90f751d3aae6b1794,685c6e3f4bcca8e4d99b24a0,56e6a66af6ed900006a5867c,FALSE,FALSE,Rabbit,https://kisumu-drawings.s3-us-west-1.amazonaws.com/69-010.png,Cat,69-010.png,4
6918,31,350234,685c6ca90f751d3aae6b1794,685c6e3f4bcca8e4d99b24a0,56e6a66af6ed900006a5867c,FALSE,FALSE,Airplane,https://kisumu-drawings.s3-us-west-1.amazonaws.com/95-009.png,Car,95-009.png,5
3415,32,354165,685c6ca90f751d3aae6b1794,685c6e3f4bcca8e4d99b24a0,56e6a66af6ed900006a5867c,FALSE,FALSE,House,https://kisumu-drawings.s3-us-west-1.amazonaws.com/109-012.png,House,109-012.png,6
2834,33,357504,685c6ca90f751d3aae6b1794,685c6e3f4bcca8e4d99b24a0,56e6a66af6ed900006a5867c,FALSE,FALSE,Rabbit,https://kisumu-drawings.s3-us-west-1.amazonaws.com/95-016.png,Cat,95-016.png,5
4222,34,362232,685c6ca90f751d3aae6b1794,685c6e3f4bcca8e4d99b24a0,56e6a66af6ed900006a5867c,FALSE,FALSE,Cup,https://kisumu-drawings.s3-us-west-1.amazonaws.com/109-007.png,Cup,109-007.png,6
4528,35,367274,685c6ca90f751d3aae6b1794,685c6e3f4bcca8e4d99b24a0,56e6a66af6ed900006a5867c,FALSE,FALSE,Hat,https://kisumu-drawings.s3-us-west-1.amazonaws.com/109-011.png,Hat,109-011.png,6
4138,36,371914,685c6ca90f751d3aae6b1794,685c6e3f4bcca8e4d99b24a0,56e6a66af6ed900006a5867c,FALSE,FALSE,Rabbit,https://kisumu-drawings.s3-us-west-1.amazonaws.com/52-011.png,Cat,52-011.png,3
6362,37,378782,685c6ca90f751d3aae6b1794,685c6e3f4bcca8e4d99b24a0,56e6a66af6ed900006a5867c,FALSE,FALSE,Bicycle,https://kisumu-drawings.s3-us-west-1.amazonaws.com/109-016.png,Bicycle,109-016.png,6
2502,38,381790,685c6ca90f751d3aae6b1794,685c6e3f4bcca8e4d99b24a0,56e6a66af6ed900006a5867c,FALSE,FALSE,Chair,https://kisumu-drawings.s3-us-west-1.amazonaws.com/28-009.png,Chair,28-009.png,2
4538,39,386841,685c6ca90f751d3aae6b1794,685c6e3f4bcca8e4d99b24a0,56e6a66af6ed900006a5867c,FALSE,FALSE,House,https://kisumu-drawings.s3-us-west-1.amazonaws.com/69-009.png,House,69-009.png,4
2894,40,390241,685c6ca90f751d3aae6b1794,685c6e3f4bcca8e4d99b24a0,56e6a66af6ed900006a5867c,TRUE,FALSE,airplane,stimuli/catch_trials/0_airplane_catch.jpg,Airplane,NA,NA
8567,41,399310,685c6ca90f751d3aae6b1794,685c6e3f4bcca8e4d99b24a0,56e6a66af6ed900006a5867c,FALSE,FALSE,Bird,https://kisumu-drawings.s3-us-west-1.amazonaws.com/109-013.png,Bird,109-013.png,6
6942,42,406766,685c6ca90f751d3aae6b1794,685c6e3f4bcca8e4d99b24a0,56e6a66af6ed900006a5867c,FALSE,FALSE,Hat,https://kisumu-drawings.s3-us-west-1.amazonaws.com/69-008.png,Hat,69-008.png,4
2997,43,410265,685c6ca90f751d3aae6b1794,685c6e3f4bcca8e4d99b24a0,56e6a66af6ed900006a5867c,FALSE,FALSE,Hat,https://kisumu-drawings.s3-us-west-1.amazonaws.com/27-015.png,Cup,27-015.png,2
5945,44,416718,685c6ca90f751d3aae6b1794,685c6e3f4bcca8e4d99b24a0,56e6a66af6ed900006a5867c,FALSE,FALSE,Cat,https://kisumu-drawings.s3-us-west-1.amazonaws.com/69-005.png,Cat,69-005.png,4
2612,45,419833,685c6ca90f751d3aae6b1794,685c6e3f4bcca8e4d99b24a0,56e6a66af6ed900006a5867c,FALSE,FALSE,Watch,https://kisumu-drawings.s3-us-west-1.amazonaws.com/28-014.png,Watch,28-014.png,2
4028,46,424367,685c6ca90f751d3aae6b1794,685c6e3f4bcca8e4d99b24a0,56e6a66af6ed900006a5867c,FALSE,FALSE,Tree,https://kisumu-drawings.s3-us-west-1.amazonaws.com/69-011.png,Tree,69-011.png,4
4978,47,429851,685c6ca90f751d3aae6b1794,685c6e3f4bcca8e4d99b24a0,56e6a66af6ed900006a5867c,FALSE,FALSE,Car,https://kisumu-drawings.s3-us-west-1.amazonaws.com/109-014.png,Car,109-014.png,6
3211,48,433576,685c6ca90f751d3aae6b1794,685c6e3f4bcca8e4d99b24a0,56e6a66af6ed900006a5867c,FALSE,FALSE,Cat,https://kisumu-drawings.s3-us-west-1.amazonaws.com/95-011.png,Cat,95-011.png,5
3951,49,438035,685c6ca90f751d3aae6b1794,685c6e3f4bcca8e4d99b24a0,56e6a66af6ed900006a5867c,FALSE,FALSE,Chair,https://kisumu-drawings.s3-us-west-1.amazonaws.com/69-006.png,Chair,69-006.png,4
4396,50,442944,685c6ca90f751d3aae6b1794,685c6e3f4bcca8e4d99b24a0,56e6a66af6ed900006a5867c,FALSE,FALSE,Chair,https://kisumu-drawings.s3-us-west-1.amazonaws.com/95-012.png,Chair,95-012.png,5
3363,51,446816,685c6ca90f751d3aae6b1794,685c6e3f4bcca8e4d99b24a0,56e6a66af6ed900006a5867c,FALSE,FALSE,Bird,https://kisumu-drawings.s3-us-west-1.amazonaws.com/8-005.png,Chair,8-005.png,1
7673,52,454993,685c6ca90f751d3aae6b1794,685c6e3f4bcca8e4d99b24a0,56e6a66af6ed900006a5867c,FALSE,FALSE,Rabbit,https://kisumu-drawings.s3-us-west-1.amazonaws.com/28-013.png,Rabbit,28-013.png,2
2133,53,457626,685c6ca90f751d3aae6b1794,685c6e3f4bcca8e4d99b24a0,56e6a66af6ed900006a5867c,FALSE,FALSE,House,https://kisumu-drawings.s3-us-west-1.amazonaws.com/8-012.png,Cup,8-012.png,1
6411,54,464552,685c6ca90f751d3aae6b1794,685c6e3f4bcca8e4d99b24a0,56e6a66af6ed900006a5867c,FALSE,FALSE,Airplane,https://kisumu-drawings.s3-us-west-1.amazonaws.com/28-006.png,Watch,28-006.png,2
2701,55,467768,685c6ca90f751d3aae6b1794,685c6e3f4bcca8e4d99b24a0,56e6a66af6ed900006a5867c,FALSE,FALSE,Rabbit,https://kisumu-drawings.s3-us-west-1.amazonaws.com/109-008.png,Cat,109-008.png,6
1616,56,469894,685c6ca90f751d3aae6b1794,685c6e3f4bcca8e4d99b24a0,56e6a66af6ed900006a5867c,FALSE,FALSE,Tree,https://kisumu-drawings.s3-us-west-1.amazonaws.com/52-012.png,Tree,52-012.png,3
2526,57,472928,685c6ca90f751d3aae6b1794,685c6e3f4bcca8e4d99b24a0,56e6a66af6ed900006a5867c,FALSE,FALSE,Watch,https://kisumu-drawings.s3-us-west-1.amazonaws.com/8-009.png,Cat,8-009.png,1
1483,58,474919,685c6ca90f751d3aae6b1794,685c6e3f4bcca8e4d99b24a0,56e6a66af6ed900006a5867c,FALSE,FALSE,Chair,https://kisumu-drawings.s3-us-west-1.amazonaws.com/52-016.png,Chair,52-016.png,3
3289,59,478718,685c6ca90f751d3aae6b1794,685c6e3f4bcca8e4d99b24a0,56e6a66af6ed900006a5867c,FALSE,FALSE,Bicycle,https://kisumu-drawings.s3-us-west-1.amazonaws.com/52-005.png,Bicycle,52-005.png,3
3384,60,482611,685c6ca90f751d3aae6b1794,685c6e3f4bcca8e4d99b24a0,56e6a66af6ed900006a5867c,FALSE,FALSE,Airplane,https://kisumu-drawings.s3-us-west-1.amazonaws.com/109-015.png,Car,109-015.png,6
2132,61,485258,685c6ca90f751d3aae6b1794,685c6e3f4bcca8e4d99b24a0,56e6a66af6ed900006a5867c,FALSE,FALSE,Watch,https://kisumu-drawings.s3-us-west-1.amazonaws.com/109-006.png,Watch,109-006.png,6
2139,62,487903,685c6ca90f751d3aae6b1794,685c6e3f4bcca8e4d99b24a0,56e6a66af6ed900006a5867c,FALSE,FALSE,Cup,https://kisumu-drawings.s3-us-west-1.amazonaws.com/8-010.png,Chair,8-010.png,1
3104,63,491518,685c6ca90f751d3aae6b1794,685c6e3f4bcca8e4d99b24a0,56e6a66af6ed900006a5867c,FALSE,FALSE,Bicycle,https://kisumu-drawings.s3-us-west-1.amazonaws.com/8-016.png,Chair,8-016.png,1
4084,64,496113,685c6ca90f751d3aae6b1794,685c6e3f4bcca8e4d99b24a0,56e6a66af6ed900006a5867c,FALSE,FALSE,Car,https://kisumu-drawings.s3-us-west-1.amazonaws.com/69-016.png,Car,69-016.png,4
3461,65,500078,685c6ca90f751d3aae6b1794,685c6e3f4bcca8e4d99b24a0,56e6a66af6ed900006a5867c,FALSE,FALSE,Hat,https://kisumu-drawings.s3-us-west-1.amazonaws.com/95-005.png,Hat,95-005.png,5
11707,66,512294,685c6ca90f751d3aae6b1794,685c6e3f4bcca8e4d99b24a0,56e6a66af6ed900006a5867c,FALSE,FALSE,Airplane,https://kisumu-drawings.s3-us-west-1.amazonaws.com/52-015.png,Chair,52-015.png,3
6535,67,519344,685c6ca90f751d3aae6b1794,685c6e3f4bcca8e4d99b24a0,56e6a66af6ed900006a5867c,FALSE,FALSE,House,https://kisumu-drawings.s3-us-west-1.amazonaws.com/52-010.png,House,52-010.png,3
6667,68,526522,685c6ca90f751d3aae6b1794,685c6e3f4bcca8e4d99b24a0,56e6a66af6ed900006a5867c,FALSE,FALSE,Airplane,https://kisumu-drawings.s3-us-west-1.amazonaws.com/9-009.png,Cup,9-009.png,1
3908,69,530931,685c6ca90f751d3aae6b1794,685c6e3f4bcca8e4d99b24a0,56e6a66af6ed900006a5867c,FALSE,FALSE,Chair,https://kisumu-drawings.s3-us-west-1.amazonaws.com/8-008.png,Chair,8-008.png,1
6557,70,538003,685c6ca90f751d3aae6b1794,685c6e3f4bcca8e4d99b24a0,56e6a66af6ed900006a5867c,FALSE,FALSE,Bird,https://kisumu-drawings.s3-us-west-1.amazonaws.com/52-007.png,Bird,52-007.png,3
5589,71,544105,685c6ca90f751d3aae6b1794,685c6e3f4bcca8e4d99b24a0,56e6a66af6ed900006a5867c,FALSE,FALSE,Watch,https://kisumu-drawings.s3-us-west-1.amazonaws.com/69-012.png,Watch,69-012.png,4
2922,72,547539,685c6ca90f751d3aae6b1794,685c6e3f4bcca8e4d99b24a0,56e6a66af6ed900006a5867c,FALSE,FALSE,Watch,https://kisumu-drawings.s3-us-west-1.amazonaws.com/95-015.png,Watch,95-015.png,5
7417,73,555459,685c6ca90f751d3aae6b1794,685c6e3f4bcca8e4d99b24a0,56e6a66af6ed900006a5867c,FALSE,FALSE,Bicycle,https://kisumu-drawings.s3-us-west-1.amazonaws.com/95-010.png,Bicycle,95-010.png,5
2040,74,558013,685c6ca90f751d3aae6b1794,685c6e3f4bcca8e4d99b24a0,56e6a66af6ed900006a5867c,FALSE,FALSE,Cup,https://kisumu-drawings.s3-us-west-1.amazonaws.com/52-008.png,Cup,52-008.png,3
1247,75,559764,685c6ca90f751d3aae6b1794,685c6e3f4bcca8e4d99b24a0,56e6a66af6ed900006a5867c,FALSE,FALSE,Cup,https://kisumu-drawings.s3-us-west-1.amazonaws.com/28-010.png,Cup,28-010.png,2
7224,3,446222,685c6ca90f751d3aae6b1794,685c7660821ccc872e60f6ff,5801cfc607d709000141b5be,FALSE,FALSE,Chair,https://kisumu-drawings.s3-us-west-1.amazonaws.com/48-007.png,Hat,48-007.png,3
5961,4,452686,685c6ca90f751d3aae6b1794,685c7660821ccc872e60f6ff,5801cfc607d709000141b5be,FALSE,FALSE,Bird,https://kisumu-drawings.s3-us-west-1.amazonaws.com/54-010.png,Airplane,54-010.png,3
22726,5,475915,685c6ca90f751d3aae6b1794,685c7660821ccc872e60f6ff,5801cfc607d709000141b5be,FALSE,FALSE,Car,https://kisumu-drawings.s3-us-west-1.amazonaws.com/30-008.png,Hat,30-008.png,2
7651,6,484068,685c6ca90f751d3aae6b1794,685c7660821ccc872e60f6ff,5801cfc607d709000141b5be,FALSE,FALSE,Rabbit,https://kisumu-drawings.s3-us-west-1.amazonaws.com/66-008.png,Cat,66-008.png,4
15966,7,500537,685c6ca90f751d3aae6b1794,685c7660821ccc872e60f6ff,5801cfc607d709000141b5be,FALSE,FALSE,Cat,https://kisumu-drawings.s3-us-west-1.amazonaws.com/101-011.png,Cat,101-011.png,6
2474,8,503514,685c6ca90f751d3aae6b1794,685c7660821ccc872e60f6ff,5801cfc607d709000141b5be,FALSE,FALSE,Bird,https://kisumu-drawings.s3-us-west-1.amazonaws.com/117-011.png,Bird,117-011.png,6
33280,9,537296,685c6ca90f751d3aae6b1794,685c7660821ccc872e60f6ff,5801cfc607d709000141b5be,FALSE,FALSE,Rabbit,https://kisumu-drawings.s3-us-west-1.amazonaws.com/15-006.png,House,15-006.png,1
31396,10,569194,685c6ca90f751d3aae6b1794,685c7660821ccc872e60f6ff,5801cfc607d709000141b5be,FALSE,FALSE,Airplane,https://kisumu-drawings.s3-us-west-1.amazonaws.com/34-011.png,Bird,34-011.png,2
4000,11,573697,685c6ca90f751d3aae6b1794,685c7660821ccc872e60f6ff,5801cfc607d709000141b5be,FALSE,FALSE,Cat,https://kisumu-drawings.s3-us-west-1.amazonaws.com/68-011.png,Cat,68-011.png,4
1881,12,576079,685c6ca90f751d3aae6b1794,685c7660821ccc872e60f6ff,5801cfc607d709000141b5be,FALSE,FALSE,Chair,https://kisumu-drawings.s3-us-west-1.amazonaws.com/31-010.png,Chair,31-010.png,2
14008,13,590591,685c6ca90f751d3aae6b1794,685c7660821ccc872e60f6ff,5801cfc607d709000141b5be,FALSE,FALSE,Car,https://kisumu-drawings.s3-us-west-1.amazonaws.com/13-011.png,Cup,13-011.png,1
3922,14,595015,685c6ca90f751d3aae6b1794,685c7660821ccc872e60f6ff,5801cfc607d709000141b5be,TRUE,FALSE,airplane,stimuli/catch_trials/0_airplane_catch.jpg,Airplane,NA,NA
5004,15,600522,685c6ca90f751d3aae6b1794,685c7660821ccc872e60f6ff,5801cfc607d709000141b5be,FALSE,FALSE,Bird,https://kisumu-drawings.s3-us-west-1.amazonaws.com/14-013.png,Cup,14-013.png,1
18151,16,619176,685c6ca90f751d3aae6b1794,685c7660821ccc872e60f6ff,5801cfc607d709000141b5be,FALSE,FALSE,Watch,https://kisumu-drawings.s3-us-west-1.amazonaws.com/65-010.png,Watch,65-010.png,4
61088,17,680766,685c6ca90f751d3aae6b1794,685c7660821ccc872e60f6ff,5801cfc607d709000141b5be,FALSE,FALSE,Airplane,https://kisumu-drawings.s3-us-west-1.amazonaws.com/98-016.png,House,98-016.png,5
5976,18,687246,685c6ca90f751d3aae6b1794,685c7660821ccc872e60f6ff,5801cfc607d709000141b5be,FALSE,FALSE,Rabbit,https://kisumu-drawings.s3-us-west-1.amazonaws.com/111-011.png,Cat,111-011.png,6
5034,19,692782,685c6ca90f751d3aae6b1794,685c7660821ccc872e60f6ff,5801cfc607d709000141b5be,FALSE,FALSE,Watch,https://kisumu-drawings.s3-us-west-1.amazonaws.com/84-006.png,Watch,84-006.png,5
26318,20,719603,685c6ca90f751d3aae6b1794,685c7660821ccc872e60f6ff,5801cfc607d709000141b5be,FALSE,FALSE,Bicycle,https://kisumu-drawings.s3-us-west-1.amazonaws.com/5-015.png,Bird,5-015.png,1
6158,21,726263,685c6ca90f751d3aae6b1794,685c7660821ccc872e60f6ff,5801cfc607d709000141b5be,FALSE,FALSE,Cat,https://kisumu-drawings.s3-us-west-1.amazonaws.com/44-014.png,Cat,44-014.png,3
3156,22,729922,685c6ca90f751d3aae6b1794,685c7660821ccc872e60f6ff,5801cfc607d709000141b5be,FALSE,FALSE,House,https://kisumu-drawings.s3-us-west-1.amazonaws.com/58-005.png,House,58-005.png,3
2354,23,732779,685c6ca90f751d3aae6b1794,685c7660821ccc872e60f6ff,5801cfc607d709000141b5be,FALSE,FALSE,Airplane,https://kisumu-drawings.s3-us-west-1.amazonaws.com/58-013.png,Airplane,58-013.png,3
4275,24,737556,685c6ca90f751d3aae6b1794,685c7660821ccc872e60f6ff,5801cfc607d709000141b5be,FALSE,FALSE,Bird,https://kisumu-drawings.s3-us-west-1.amazonaws.com/74-006.png,Rabbit,74-006.png,4
2025,25,740083,685c6ca90f751d3aae6b1794,685c7660821ccc872e60f6ff,5801cfc607d709000141b5be,FALSE,FALSE,Hat,https://kisumu-drawings.s3-us-west-1.amazonaws.com/49-006.png,Hat,49-006.png,3
8559,26,749144,685c6ca90f751d3aae6b1794,685c7660821ccc872e60f6ff,5801cfc607d709000141b5be,FALSE,FALSE,House,https://kisumu-drawings.s3-us-west-1.amazonaws.com/29-011.png,Cat,29-011.png,2
4679,27,754326,685c6ca90f751d3aae6b1794,685c7660821ccc872e60f6ff,5801cfc607d709000141b5be,FALSE,FALSE,Cup,https://kisumu-drawings.s3-us-west-1.amazonaws.com/21-007.png,Chair,21-007.png,2
3628,28,758456,685c6ca90f751d3aae6b1794,685c7660821ccc872e60f6ff,5801cfc607d709000141b5be,FALSE,FALSE,Cup,https://kisumu-drawings.s3-us-west-1.amazonaws.com/51-010.png,Cup,51-010.png,3
2548,29,761505,685c6ca90f751d3aae6b1794,685c7660821ccc872e60f6ff,5801cfc607d709000141b5be,FALSE,FALSE,Car,https://kisumu-drawings.s3-us-west-1.amazonaws.com/99-016.png,Car,99-016.png,5
3286,30,765294,685c6ca90f751d3aae6b1794,685c7660821ccc872e60f6ff,5801cfc607d709000141b5be,FALSE,FALSE,Bicycle,https://kisumu-drawings.s3-us-west-1.amazonaws.com/53-010.png,Cat,53-010.png,3
2151,31,767947,685c6ca90f751d3aae6b1794,685c7660821ccc872e60f6ff,5801cfc607d709000141b5be,FALSE,FALSE,Chair,https://kisumu-drawings.s3-us-west-1.amazonaws.com/76-009.png,Chair,76-009.png,4
2094,32,770544,685c6ca90f751d3aae6b1794,685c7660821ccc872e60f6ff,5801cfc607d709000141b5be,FALSE,FALSE,Watch,https://kisumu-drawings.s3-us-west-1.amazonaws.com/55-010.png,Bird,55-010.png,3
9951,33,780996,685c6ca90f751d3aae6b1794,685c7660821ccc872e60f6ff,5801cfc607d709000141b5be,FALSE,FALSE,Watch,https://kisumu-drawings.s3-us-west-1.amazonaws.com/116-007.png,Watch,116-007.png,6
3458,34,784957,685c6ca90f751d3aae6b1794,685c7660821ccc872e60f6ff,5801cfc607d709000141b5be,FALSE,FALSE,House,https://kisumu-drawings.s3-us-west-1.amazonaws.com/72-012.png,House,72-012.png,4
148330,35,933789,685c6ca90f751d3aae6b1794,685c7660821ccc872e60f6ff,5801cfc607d709000141b5be,FALSE,FALSE,Airplane,https://kisumu-drawings.s3-us-west-1.amazonaws.com/80-009.png,Airplane,80-009.png,4
3409,36,937702,685c6ca90f751d3aae6b1794,685c7660821ccc872e60f6ff,5801cfc607d709000141b5be,FALSE,FALSE,Chair,https://kisumu-drawings.s3-us-west-1.amazonaws.com/109-010.png,Chair,109-010.png,6
27012,37,965216,685c6ca90f751d3aae6b1794,685c7660821ccc872e60f6ff,5801cfc607d709000141b5be,FALSE,FALSE,Tree,https://kisumu-drawings.s3-us-west-1.amazonaws.com/74-010.png,Rabbit,74-010.png,4
5701,38,971418,685c6ca90f751d3aae6b1794,685c7660821ccc872e60f6ff,5801cfc607d709000141b5be,FALSE,FALSE,Watch,https://kisumu-drawings.s3-us-west-1.amazonaws.com/21-009.png,Cat,21-009.png,2
2868,39,974788,685c6ca90f751d3aae6b1794,685c7660821ccc872e60f6ff,5801cfc607d709000141b5be,FALSE,FALSE,Hat,https://kisumu-drawings.s3-us-west-1.amazonaws.com/99-007.png,Hat,99-007.png,5
2069,40,977359,685c6ca90f751d3aae6b1794,685c7660821ccc872e60f6ff,5801cfc607d709000141b5be,FALSE,FALSE,Chair,https://kisumu-drawings.s3-us-west-1.amazonaws.com/96-011.png,Chair,96-011.png,5
2345,41,980206,685c6ca90f751d3aae6b1794,685c7660821ccc872e60f6ff,5801cfc607d709000141b5be,FALSE,FALSE,Airplane,https://kisumu-drawings.s3-us-west-1.amazonaws.com/110-014.png,Airplane,110-014.png,6
2148,42,982856,685c6ca90f751d3aae6b1794,685c7660821ccc872e60f6ff,5801cfc607d709000141b5be,FALSE,FALSE,Car,https://kisumu-drawings.s3-us-west-1.amazonaws.com/59-010.png,Car,59-010.png,3
3113,43,986471,685c6ca90f751d3aae6b1794,685c7660821ccc872e60f6ff,5801cfc607d709000141b5be,FALSE,FALSE,Hat,https://kisumu-drawings.s3-us-west-1.amazonaws.com/35-013.png,Hat,35-013.png,2
2872,44,989846,685c6ca90f751d3aae6b1794,685c7660821ccc872e60f6ff,5801cfc607d709000141b5be,FALSE,FALSE,Bird,https://kisumu-drawings.s3-us-west-1.amazonaws.com/92-012.png,Airplane,92-012.png,5
2281,45,992630,685c6ca90f751d3aae6b1794,685c7660821ccc872e60f6ff,5801cfc607d709000141b5be,FALSE,FALSE,Hat,https://kisumu-drawings.s3-us-west-1.amazonaws.com/79-015.png,Hat,79-015.png,4
10641,46,1003774,685c6ca90f751d3aae6b1794,685c7660821ccc872e60f6ff,5801cfc607d709000141b5be,FALSE,FALSE,Cat,https://kisumu-drawings.s3-us-west-1.amazonaws.com/33-012.png,Cat,33-012.png,2
11095,47,1015372,685c6ca90f751d3aae6b1794,685c7660821ccc872e60f6ff,5801cfc607d709000141b5be,FALSE,FALSE,Bicycle,https://kisumu-drawings.s3-us-west-1.amazonaws.com/74-014.png,Car,74-014.png,4
3711,48,1019586,685c6ca90f751d3aae6b1794,685c7660821ccc872e60f6ff,5801cfc607d709000141b5be,FALSE,FALSE,Tree,https://kisumu-drawings.s3-us-west-1.amazonaws.com/107-010.png,Rabbit,107-010.png,6
4363,49,1024452,685c6ca90f751d3aae6b1794,685c7660821ccc872e60f6ff,5801cfc607d709000141b5be,FALSE,FALSE,Airplane,https://kisumu-drawings.s3-us-west-1.amazonaws.com/9-009.png,Hat,9-009.png,1
10447,50,1035402,685c6ca90f751d3aae6b1794,685c7660821ccc872e60f6ff,5801cfc607d709000141b5be,FALSE,FALSE,Rabbit,https://kisumu-drawings.s3-us-west-1.amazonaws.com/82-009.png,Car,82-009.png,5
7800,51,1043705,685c6ca90f751d3aae6b1794,685c7660821ccc872e60f6ff,5801cfc607d709000141b5be,FALSE,FALSE,Cat,https://kisumu-drawings.s3-us-west-1.amazonaws.com/16-007.png,Chair,16-007.png,1
4996,52,1049203,685c6ca90f751d3aae6b1794,685c7660821ccc872e60f6ff,5801cfc607d709000141b5be,FALSE,FALSE,House,https://kisumu-drawings.s3-us-west-1.amazonaws.com/4-012.png,Rabbit,4-012.png,1
3278,53,1052984,685c6ca90f751d3aae6b1794,685c7660821ccc872e60f6ff,5801cfc607d709000141b5be,FALSE,FALSE,House,https://kisumu-drawings.s3-us-west-1.amazonaws.com/110-016.png,House,110-016.png,6
3312,54,1056797,685c6ca90f751d3aae6b1794,685c7660821ccc872e60f6ff,5801cfc607d709000141b5be,FALSE,FALSE,Bicycle,https://kisumu-drawings.s3-us-west-1.amazonaws.com/38-015.png,Car,38-015.png,2
5209,55,1062508,685c6ca90f751d3aae6b1794,685c7660821ccc872e60f6ff,5801cfc607d709000141b5be,FALSE,FALSE,Hat,https://kisumu-drawings.s3-us-west-1.amazonaws.com/109-011.png,Hat,109-011.png,6
6106,56,1069116,685c6ca90f751d3aae6b1794,685c7660821ccc872e60f6ff,5801cfc607d709000141b5be,FALSE,FALSE,Rabbit,https://kisumu-drawings.s3-us-west-1.amazonaws.com/34-008.png,Cat,34-008.png,2
7366,57,1076986,685c6ca90f751d3aae6b1794,685c7660821ccc872e60f6ff,5801cfc607d709000141b5be,FALSE,FALSE,Rabbit,https://kisumu-drawings.s3-us-west-1.amazonaws.com/52-011.png,Cat,52-011.png,3
3282,58,1080769,685c6ca90f751d3aae6b1794,685c7660821ccc872e60f6ff,5801cfc607d709000141b5be,FALSE,FALSE,Bird,https://kisumu-drawings.s3-us-west-1.amazonaws.com/31-007.png,Bird,31-007.png,2
2741,59,1084013,685c6ca90f751d3aae6b1794,685c7660821ccc872e60f6ff,5801cfc607d709000141b5be,FALSE,FALSE,Watch,https://kisumu-drawings.s3-us-west-1.amazonaws.com/18-008.png,Bird,18-008.png,1
2677,60,1087191,685c6ca90f751d3aae6b1794,685c7660821ccc872e60f6ff,5801cfc607d709000141b5be,FALSE,FALSE,Tree,https://kisumu-drawings.s3-us-west-1.amazonaws.com/30-015.png,Tree,30-015.png,2
3427,61,1091121,685c6ca90f751d3aae6b1794,685c7660821ccc872e60f6ff,5801cfc607d709000141b5be,FALSE,FALSE,Tree,https://kisumu-drawings.s3-us-west-1.amazonaws.com/8-014.png,Tree,8-014.png,1
2978,62,1094602,685c6ca90f751d3aae6b1794,685c7660821ccc872e60f6ff,5801cfc607d709000141b5be,FALSE,FALSE,Car,https://kisumu-drawings.s3-us-west-1.amazonaws.com/77-015.png,Car,77-015.png,4
6212,63,1101317,685c6ca90f751d3aae6b1794,685c7660821ccc872e60f6ff,5801cfc607d709000141b5be,FALSE,FALSE,Car,https://kisumu-drawings.s3-us-west-1.amazonaws.com/105-008.png,Car,105-008.png,6
1903,64,1103722,685c6ca90f751d3aae6b1794,685c7660821ccc872e60f6ff,5801cfc607d709000141b5be,FALSE,FALSE,Bicycle,https://kisumu-drawings.s3-us-west-1.amazonaws.com/101-016.png,Car,101-016.png,6
1824,65,1106048,685c6ca90f751d3aae6b1794,685c7660821ccc872e60f6ff,5801cfc607d709000141b5be,FALSE,FALSE,House,https://kisumu-drawings.s3-us-west-1.amazonaws.com/93-010.png,House,93-010.png,5
2716,66,1109268,685c6ca90f751d3aae6b1794,685c7660821ccc872e60f6ff,5801cfc607d709000141b5be,FALSE,FALSE,Bicycle,https://kisumu-drawings.s3-us-west-1.amazonaws.com/98-006.png,Car,98-006.png,5
6506,67,1116277,685c6ca90f751d3aae6b1794,685c7660821ccc872e60f6ff,5801cfc607d709000141b5be,FALSE,FALSE,Cat,https://kisumu-drawings.s3-us-west-1.amazonaws.com/97-015.png,Cat,97-015.png,5
2826,68,1119605,685c6ca90f751d3aae6b1794,685c7660821ccc872e60f6ff,5801cfc607d709000141b5be,FALSE,FALSE,Cup,https://kisumu-drawings.s3-us-west-1.amazonaws.com/65-008.png,Cup,65-008.png,4
2680,69,1122788,685c6ca90f751d3aae6b1794,685c7660821ccc872e60f6ff,5801cfc607d709000141b5be,FALSE,FALSE,Tree,https://kisumu-drawings.s3-us-west-1.amazonaws.com/98-010.png,Bird,98-010.png,5
1565,70,1124856,685c6ca90f751d3aae6b1794,685c7660821ccc872e60f6ff,5801cfc607d709000141b5be,FALSE,FALSE,Cup,https://kisumu-drawings.s3-us-west-1.amazonaws.com/110-013.png,Cup,110-013.png,6
3180,71,1128538,685c6ca90f751d3aae6b1794,685c7660821ccc872e60f6ff,5801cfc607d709000141b5be,FALSE,FALSE,Cup,https://kisumu-drawings.s3-us-west-1.amazonaws.com/19-011.png,Hat,19-011.png,1
4892,72,1133932,685c6ca90f751d3aae6b1794,685c7660821ccc872e60f6ff,5801cfc607d709000141b5be,FALSE,FALSE,Hat,https://kisumu-drawings.s3-us-west-1.amazonaws.com/7-014.png,Hat,7-014.png,1
1861,73,1136295,685c6ca90f751d3aae6b1794,685c7660821ccc872e60f6ff,5801cfc607d709000141b5be,FALSE,FALSE,Cup,https://kisumu-drawings.s3-us-west-1.amazonaws.com/88-012.png,Cup,88-012.png,5
3848,74,1140646,685c6ca90f751d3aae6b1794,685c7660821ccc872e60f6ff,5801cfc607d709000141b5be,FALSE,FALSE,Chair,https://kisumu-drawings.s3-us-west-1.amazonaws.com/6-012.png,Cup,6-012.png,1
1423,75,1142572,685c6ca90f751d3aae6b1794,685c7660821ccc872e60f6ff,5801cfc607d709000141b5be,FALSE,FALSE,Tree,https://kisumu-drawings.s3-us-west-1.amazonaws.com/58-006.png,Tree,58-006.png,3
6692,3,31691,685c6ca90f751d3aae6b1794,685c6e1cb2effb1c3ef289e7,58595b56a3149800011e156e,FALSE,FALSE,Hat,https://kisumu-drawings.s3-us-west-1.amazonaws.com/94-015.png,Hat,94-015.png,5
5958,4,38159,685c6ca90f751d3aae6b1794,685c6e1cb2effb1c3ef289e7,58595b56a3149800011e156e,FALSE,FALSE,Chair,https://kisumu-drawings.s3-us-west-1.amazonaws.com/63-013.png,Chair,63-013.png,4
11051,5,49720,685c6ca90f751d3aae6b1794,685c6e1cb2effb1c3ef289e7,58595b56a3149800011e156e,FALSE,FALSE,Tree,https://kisumu-drawings.s3-us-west-1.amazonaws.com/63-016.png,Tree,63-016.png,4
8852,6,59086,685c6ca90f751d3aae6b1794,685c6e1cb2effb1c3ef289e7,58595b56a3149800011e156e,FALSE,FALSE,Chair,https://kisumu-drawings.s3-us-west-1.amazonaws.com/50-014.png,House,50-014.png,3
6014,7,65605,685c6ca90f751d3aae6b1794,685c6e1cb2effb1c3ef289e7,58595b56a3149800011e156e,FALSE,FALSE,Hat,https://kisumu-drawings.s3-us-west-1.amazonaws.com/108-006.png,Hat,108-006.png,6
2240,8,68363,685c6ca90f751d3aae6b1794,685c6e1cb2effb1c3ef289e7,58595b56a3149800011e156e,FALSE,FALSE,Cup,https://kisumu-drawings.s3-us-west-1.amazonaws.com/63-015.png,Cup,63-015.png,4
23083,9,91952,685c6ca90f751d3aae6b1794,685c6e1cb2effb1c3ef289e7,58595b56a3149800011e156e,FALSE,FALSE,Rabbit,https://kisumu-drawings.s3-us-west-1.amazonaws.com/7-011.png,Rabbit,7-011.png,1
6448,10,98906,685c6ca90f751d3aae6b1794,685c6e1cb2effb1c3ef289e7,58595b56a3149800011e156e,FALSE,FALSE,Bicycle,https://kisumu-drawings.s3-us-west-1.amazonaws.com/26-005.png,Bicycle,26-005.png,2
4285,11,103707,685c6ca90f751d3aae6b1794,685c6e1cb2effb1c3ef289e7,58595b56a3149800011e156e,FALSE,FALSE,Cup,https://kisumu-drawings.s3-us-west-1.amazonaws.com/50-011.png,Cup,50-011.png,3
13843,12,118068,685c6ca90f751d3aae6b1794,685c6e1cb2effb1c3ef289e7,58595b56a3149800011e156e,FALSE,FALSE,Rabbit,https://kisumu-drawings.s3-us-west-1.amazonaws.com/27-010.png,Bird,27-010.png,2
7424,13,126000,685c6ca90f751d3aae6b1794,685c6e1cb2effb1c3ef289e7,58595b56a3149800011e156e,FALSE,FALSE,Chair,https://kisumu-drawings.s3-us-west-1.amazonaws.com/108-007.png,Chair,108-007.png,6
4932,14,131439,685c6ca90f751d3aae6b1794,685c6e1cb2effb1c3ef289e7,58595b56a3149800011e156e,FALSE,FALSE,Cup,https://kisumu-drawings.s3-us-west-1.amazonaws.com/107-008.png,Cup,107-008.png,6
3800,15,135744,685c6ca90f751d3aae6b1794,685c6e1cb2effb1c3ef289e7,58595b56a3149800011e156e,FALSE,FALSE,Car,https://kisumu-drawings.s3-us-west-1.amazonaws.com/26-007.png,Car,26-007.png,2
60408,16,196661,685c6ca90f751d3aae6b1794,685c6e1cb2effb1c3ef289e7,58595b56a3149800011e156e,FALSE,FALSE,Car,https://kisumu-drawings.s3-us-west-1.amazonaws.com/50-015.png,Car,50-015.png,3
14330,17,211495,685c6ca90f751d3aae6b1794,685c6e1cb2effb1c3ef289e7,58595b56a3149800011e156e,FALSE,FALSE,Tree,https://kisumu-drawings.s3-us-west-1.amazonaws.com/7-015.png,Chair,7-015.png,1
2714,18,214716,685c6ca90f751d3aae6b1794,685c6e1cb2effb1c3ef289e7,58595b56a3149800011e156e,FALSE,FALSE,Bird,https://kisumu-drawings.s3-us-west-1.amazonaws.com/68-007.png,Bird,68-007.png,4
3283,19,218501,685c6ca90f751d3aae6b1794,685c6e1cb2effb1c3ef289e7,58595b56a3149800011e156e,FALSE,FALSE,Cat,https://kisumu-drawings.s3-us-west-1.amazonaws.com/107-013.png,Cat,107-013.png,6
1770,20,220774,685c6ca90f751d3aae6b1794,685c6e1cb2effb1c3ef289e7,58595b56a3149800011e156e,FALSE,FALSE,Watch,https://kisumu-drawings.s3-us-west-1.amazonaws.com/63-005.png,Watch,63-005.png,4
2685,21,223969,685c6ca90f751d3aae6b1794,685c6e1cb2effb1c3ef289e7,58595b56a3149800011e156e,FALSE,FALSE,Bicycle,https://kisumu-drawings.s3-us-west-1.amazonaws.com/6-016.png,Airplane,6-016.png,1
3527,22,227999,685c6ca90f751d3aae6b1794,685c6e1cb2effb1c3ef289e7,58595b56a3149800011e156e,FALSE,FALSE,Rabbit,https://kisumu-drawings.s3-us-west-1.amazonaws.com/108-009.png,Cat,108-009.png,6
2629,23,231132,685c6ca90f751d3aae6b1794,685c6e1cb2effb1c3ef289e7,58595b56a3149800011e156e,FALSE,FALSE,Tree,https://kisumu-drawings.s3-us-west-1.amazonaws.com/51-013.png,Tree,51-013.png,3
2496,24,234132,685c6ca90f751d3aae6b1794,685c6e1cb2effb1c3ef289e7,58595b56a3149800011e156e,FALSE,FALSE,House,https://kisumu-drawings.s3-us-west-1.amazonaws.com/7-013.png,House,7-013.png,1
2167,25,236802,685c6ca90f751d3aae6b1794,685c6e1cb2effb1c3ef289e7,58595b56a3149800011e156e,FALSE,FALSE,Hat,https://kisumu-drawings.s3-us-west-1.amazonaws.com/50-012.png,Hat,50-012.png,3
6338,26,243652,685c6ca90f751d3aae6b1794,685c6e1cb2effb1c3ef289e7,58595b56a3149800011e156e,FALSE,FALSE,Rabbit,https://kisumu-drawings.s3-us-west-1.amazonaws.com/63-010.png,Cat,63-010.png,4
2541,27,246696,685c6ca90f751d3aae6b1794,685c6e1cb2effb1c3ef289e7,58595b56a3149800011e156e,FALSE,FALSE,Cat,https://kisumu-drawings.s3-us-west-1.amazonaws.com/50-016.png,Cat,50-016.png,3
6493,28,253693,685c6ca90f751d3aae6b1794,685c6e1cb2effb1c3ef289e7,58595b56a3149800011e156e,FALSE,FALSE,Watch,https://kisumu-drawings.s3-us-west-1.amazonaws.com/7-016.png,Cup,7-016.png,1
1253,29,255463,685c6ca90f751d3aae6b1794,685c6e1cb2effb1c3ef289e7,58595b56a3149800011e156e,TRUE,FALSE,airplane,stimuli/catch_trials/0_airplane_catch.jpg,Airplane,NA,NA
9221,30,265192,685c6ca90f751d3aae6b1794,685c6e1cb2effb1c3ef289e7,58595b56a3149800011e156e,FALSE,FALSE,Car,https://kisumu-drawings.s3-us-west-1.amazonaws.com/107-009.png,Car,107-009.png,6
4075,31,269773,685c6ca90f751d3aae6b1794,685c6e1cb2effb1c3ef289e7,58595b56a3149800011e156e,FALSE,FALSE,Cat,https://kisumu-drawings.s3-us-west-1.amazonaws.com/68-011.png,Cat,68-011.png,4
4700,32,274977,685c6ca90f751d3aae6b1794,685c6e1cb2effb1c3ef289e7,58595b56a3149800011e156e,FALSE,FALSE,House,https://kisumu-drawings.s3-us-west-1.amazonaws.com/108-008.png,House,108-008.png,6
5176,33,280656,685c6ca90f751d3aae6b1794,685c6e1cb2effb1c3ef289e7,58595b56a3149800011e156e,FALSE,FALSE,Airplane,https://kisumu-drawings.s3-us-west-1.amazonaws.com/26-006.png,Car,26-006.png,2
4418,34,285578,685c6ca90f751d3aae6b1794,685c6e1cb2effb1c3ef289e7,58595b56a3149800011e156e,FALSE,FALSE,Bicycle,https://kisumu-drawings.s3-us-west-1.amazonaws.com/68-009.png,Bicycle,68-009.png,4
3792,35,289884,685c6ca90f751d3aae6b1794,685c6e1cb2effb1c3ef289e7,58595b56a3149800011e156e,FALSE,FALSE,Airplane,https://kisumu-drawings.s3-us-west-1.amazonaws.com/68-008.png,Airplane,68-008.png,4
2389,36,292791,685c6ca90f751d3aae6b1794,685c6e1cb2effb1c3ef289e7,58595b56a3149800011e156e,FALSE,FALSE,Tree,https://kisumu-drawings.s3-us-west-1.amazonaws.com/27-012.png,Tree,27-012.png,2
4160,37,297457,685c6ca90f751d3aae6b1794,685c6e1cb2effb1c3ef289e7,58595b56a3149800011e156e,FALSE,FALSE,Car,https://kisumu-drawings.s3-us-west-1.amazonaws.com/68-010.png,Car,68-010.png,4
2713,38,300683,685c6ca90f751d3aae6b1794,685c6e1cb2effb1c3ef289e7,58595b56a3149800011e156e,FALSE,FALSE,House,https://kisumu-drawings.s3-us-west-1.amazonaws.com/63-006.png,House,63-006.png,4
4479,39,305667,685c6ca90f751d3aae6b1794,685c6e1cb2effb1c3ef289e7,58595b56a3149800011e156e,FALSE,FALSE,Airplane,https://kisumu-drawings.s3-us-west-1.amazonaws.com/107-012.png,Airplane,107-012.png,6
4264,40,310439,685c6ca90f751d3aae6b1794,685c6e1cb2effb1c3ef289e7,58595b56a3149800011e156e,FALSE,FALSE,Airplane,https://kisumu-drawings.s3-us-west-1.amazonaws.com/93-015.png,Airplane,93-015.png,5
4769,41,315713,685c6ca90f751d3aae6b1794,685c6e1cb2effb1c3ef289e7,58595b56a3149800011e156e,FALSE,FALSE,Bird,https://kisumu-drawings.s3-us-west-1.amazonaws.com/93-011.png,Bird,93-011.png,5
4452,42,320669,685c6ca90f751d3aae6b1794,685c6e1cb2effb1c3ef289e7,58595b56a3149800011e156e,FALSE,FALSE,Cat,https://kisumu-drawings.s3-us-west-1.amazonaws.com/6-011.png,Cup,6-011.png,1
4361,43,325543,685c6ca90f751d3aae6b1794,685c6e1cb2effb1c3ef289e7,58595b56a3149800011e156e,FALSE,FALSE,Car,https://kisumu-drawings.s3-us-west-1.amazonaws.com/6-010.png,Cup,6-010.png,1
4836,44,330892,685c6ca90f751d3aae6b1794,685c6e1cb2effb1c3ef289e7,58595b56a3149800011e156e,FALSE,FALSE,Cup,https://kisumu-drawings.s3-us-west-1.amazonaws.com/93-005.png,Cup,93-005.png,5
4786,45,336187,685c6ca90f751d3aae6b1794,685c6e1cb2effb1c3ef289e7,58595b56a3149800011e156e,FALSE,FALSE,Tree,https://kisumu-drawings.s3-us-west-1.amazonaws.com/94-007.png,Tree,94-007.png,5
5165,46,341857,685c6ca90f751d3aae6b1794,685c6e1cb2effb1c3ef289e7,58595b56a3149800011e156e,FALSE,FALSE,Airplane,https://kisumu-drawings.s3-us-west-1.amazonaws.com/50-005.png,Bird,50-005.png,3
3706,47,346072,685c6ca90f751d3aae6b1794,685c6e1cb2effb1c3ef289e7,58595b56a3149800011e156e,FALSE,FALSE,Watch,https://kisumu-drawings.s3-us-west-1.amazonaws.com/94-006.png,Watch,94-006.png,5
2837,48,349413,685c6ca90f751d3aae6b1794,685c6e1cb2effb1c3ef289e7,58595b56a3149800011e156e,FALSE,FALSE,House,https://kisumu-drawings.s3-us-west-1.amazonaws.com/27-009.png,House,27-009.png,2
3780,49,353707,685c6ca90f751d3aae6b1794,685c6e1cb2effb1c3ef289e7,58595b56a3149800011e156e,FALSE,FALSE,Watch,https://kisumu-drawings.s3-us-west-1.amazonaws.com/108-010.png,Watch,108-010.png,6
4573,50,358784,685c6ca90f751d3aae6b1794,685c6e1cb2effb1c3ef289e7,58595b56a3149800011e156e,FALSE,FALSE,Cat,https://kisumu-drawings.s3-us-west-1.amazonaws.com/26-010.png,Cat,26-010.png,2
10722,51,370023,685c6ca90f751d3aae6b1794,685c6e1cb2effb1c3ef289e7,58595b56a3149800011e156e,FALSE,FALSE,Hat,https://kisumu-drawings.s3-us-west-1.amazonaws.com/6-005.png,Chair,6-005.png,1
9145,52,379674,685c6ca90f751d3aae6b1794,685c6e1cb2effb1c3ef289e7,58595b56a3149800011e156e,FALSE,FALSE,Chair,https://kisumu-drawings.s3-us-west-1.amazonaws.com/93-006.png,Chair,93-006.png,5
5782,53,385964,685c6ca90f751d3aae6b1794,685c6e1cb2effb1c3ef289e7,58595b56a3149800011e156e,FALSE,FALSE,Chair,https://kisumu-drawings.s3-us-west-1.amazonaws.com/6-012.png,Hat,6-012.png,1
14738,54,401205,685c6ca90f751d3aae6b1794,685c6e1cb2effb1c3ef289e7,58595b56a3149800011e156e,FALSE,FALSE,Cat,https://kisumu-drawings.s3-us-west-1.amazonaws.com/93-007.png,Cat,93-007.png,5
3710,55,405428,685c6ca90f751d3aae6b1794,685c6e1cb2effb1c3ef289e7,58595b56a3149800011e156e,FALSE,FALSE,Bicycle,https://kisumu-drawings.s3-us-west-1.amazonaws.com/50-006.png,Car,50-006.png,3
1758,56,407696,685c6ca90f751d3aae6b1794,685c6e1cb2effb1c3ef289e7,58595b56a3149800011e156e,FALSE,FALSE,Tree,https://kisumu-drawings.s3-us-west-1.amazonaws.com/108-012.png,Tree,108-012.png,6
9920,57,418128,685c6ca90f751d3aae6b1794,685c6e1cb2effb1c3ef289e7,58595b56a3149800011e156e,FALSE,FALSE,Hat,https://kisumu-drawings.s3-us-west-1.amazonaws.com/63-014.png,Hat,63-014.png,4
7117,58,425755,685c6ca90f751d3aae6b1794,685c6e1cb2effb1c3ef289e7,58595b56a3149800011e156e,FALSE,FALSE,House,https://kisumu-drawings.s3-us-west-1.amazonaws.com/50-007.png,House,50-007.png,3
7333,59,433601,685c6ca90f751d3aae6b1794,685c6e1cb2effb1c3ef289e7,58595b56a3149800011e156e,FALSE,FALSE,Rabbit,https://kisumu-drawings.s3-us-west-1.amazonaws.com/94-008.png,Cat,94-008.png,5
3433,60,437550,685c6ca90f751d3aae6b1794,685c6e1cb2effb1c3ef289e7,58595b56a3149800011e156e,FALSE,FALSE,Cup,https://kisumu-drawings.s3-us-west-1.amazonaws.com/27-014.png,Cup,27-014.png,2
4082,61,442137,685c6ca90f751d3aae6b1794,685c6e1cb2effb1c3ef289e7,58595b56a3149800011e156e,FALSE,FALSE,Bicycle,https://kisumu-drawings.s3-us-west-1.amazonaws.com/107-015.png,Bicycle,107-015.png,6
7300,62,449952,685c6ca90f751d3aae6b1794,685c6e1cb2effb1c3ef289e7,58595b56a3149800011e156e,FALSE,FALSE,Bird,https://kisumu-drawings.s3-us-west-1.amazonaws.com/50-013.png,Airplane,50-013.png,3
5948,63,456402,685c6ca90f751d3aae6b1794,685c6e1cb2effb1c3ef289e7,58595b56a3149800011e156e,FALSE,FALSE,Car,https://kisumu-drawings.s3-us-west-1.amazonaws.com/94-014.png,Car,94-014.png,5
6108,64,463013,685c6ca90f751d3aae6b1794,685c6e1cb2effb1c3ef289e7,58595b56a3149800011e156e,FALSE,FALSE,House,https://kisumu-drawings.s3-us-west-1.amazonaws.com/94-016.png,House,94-016.png,5
2887,65,466415,685c6ca90f751d3aae6b1794,685c6e1cb2effb1c3ef289e7,58595b56a3149800011e156e,FALSE,FALSE,Watch,https://kisumu-drawings.s3-us-west-1.amazonaws.com/27-013.png,Watch,27-013.png,2
6270,66,473192,685c6ca90f751d3aae6b1794,685c6e1cb2effb1c3ef289e7,58595b56a3149800011e156e,FALSE,FALSE,Bird,https://kisumu-drawings.s3-us-west-1.amazonaws.com/6-009.png,Hat,6-009.png,1
6872,67,480574,685c6ca90f751d3aae6b1794,685c6e1cb2effb1c3ef289e7,58595b56a3149800011e156e,FALSE,FALSE,Airplane,https://kisumu-drawings.s3-us-west-1.amazonaws.com/6-007.png,Tree,6-007.png,1
7481,68,488562,685c6ca90f751d3aae6b1794,685c6e1cb2effb1c3ef289e7,58595b56a3149800011e156e,FALSE,FALSE,Bird,https://kisumu-drawings.s3-us-west-1.amazonaws.com/26-008.png,Bird,26-008.png,2
7608,69,496686,685c6ca90f751d3aae6b1794,685c6e1cb2effb1c3ef289e7,58595b56a3149800011e156e,FALSE,FALSE,Bird,https://kisumu-drawings.s3-us-west-1.amazonaws.com/107-016.png,Bird,107-016.png,6
3417,70,500613,685c6ca90f751d3aae6b1794,685c6e1cb2effb1c3ef289e7,58595b56a3149800011e156e,FALSE,FALSE,Hat,https://kisumu-drawings.s3-us-west-1.amazonaws.com/26-011.png,Cup,26-011.png,2
7912,71,509027,685c6ca90f751d3aae6b1794,685c6e1cb2effb1c3ef289e7,58595b56a3149800011e156e,FALSE,FALSE,Bicycle,https://kisumu-drawings.s3-us-west-1.amazonaws.com/93-013.png,Bicycle,93-013.png,5
7129,72,516672,685c6ca90f751d3aae6b1794,685c6e1cb2effb1c3ef289e7,58595b56a3149800011e156e,FALSE,FALSE,Cup,https://kisumu-drawings.s3-us-west-1.amazonaws.com/6-013.png,Hat,6-013.png,1
4496,73,521677,685c6ca90f751d3aae6b1794,685c6e1cb2effb1c3ef289e7,58595b56a3149800011e156e,FALSE,FALSE,Rabbit,https://kisumu-drawings.s3-us-west-1.amazonaws.com/51-012.png,Cat,51-012.png,3
6919,74,529108,685c6ca90f751d3aae6b1794,685c6e1cb2effb1c3ef289e7,58595b56a3149800011e156e,FALSE,FALSE,Chair,https://kisumu-drawings.s3-us-west-1.amazonaws.com/26-009.png,Chair,26-009.png,2
13414,75,543037,685c6ca90f751d3aae6b1794,685c6e1cb2effb1c3ef289e7,58595b56a3149800011e156e,FALSE,FALSE,Watch,https://kisumu-drawings.s3-us-west-1.amazonaws.com/51-014.png,Watch,51-014.png,3
7688,3,228047,685c6ca90f751d3aae6b1794,685c6e12c75127406c10b000,58cab9bfc7ed3f000116e2a4,FALSE,FALSE,Airplane,https://kisumu-drawings.s3-us-west-1.amazonaws.com/54-008.png,Airplane,54-008.png,3
5995,4,234557,685c6ca90f751d3aae6b1794,685c6e12c75127406c10b000,58cab9bfc7ed3f000116e2a4,FALSE,FALSE,Bird,https://kisumu-drawings.s3-us-west-1.amazonaws.com/96-015.png,Bird,96-015.png,5
29464,5,264535,685c6ca90f751d3aae6b1794,685c6e12c75127406c10b000,58cab9bfc7ed3f000116e2a4,FALSE,FALSE,Watch,https://kisumu-drawings.s3-us-west-1.amazonaws.com/109-006.png,Watch,109-006.png,6
5525,6,270566,685c6ca90f751d3aae6b1794,685c6e12c75127406c10b000,58cab9bfc7ed3f000116e2a4,FALSE,FALSE,Cat,https://kisumu-drawings.s3-us-west-1.amazonaws.com/95-011.png,Cat,95-011.png,5
13203,7,284280,685c6ca90f751d3aae6b1794,685c6e12c75127406c10b000,58cab9bfc7ed3f000116e2a4,FALSE,FALSE,Hat,https://kisumu-drawings.s3-us-west-1.amazonaws.com/8-011.png,Tree,8-011.png,1
11814,8,296599,685c6ca90f751d3aae6b1794,685c6e12c75127406c10b000,58cab9bfc7ed3f000116e2a4,FALSE,FALSE,Car,https://kisumu-drawings.s3-us-west-1.amazonaws.com/70-011.png,Car,70-011.png,4
18224,9,315335,685c6ca90f751d3aae6b1794,685c6e12c75127406c10b000,58cab9bfc7ed3f000116e2a4,FALSE,FALSE,House,https://kisumu-drawings.s3-us-west-1.amazonaws.com/29-011.png,Chair,29-011.png,2
3507,10,319346,685c6ca90f751d3aae6b1794,685c6e12c75127406c10b000,58cab9bfc7ed3f000116e2a4,FALSE,FALSE,Bird,https://kisumu-drawings.s3-us-west-1.amazonaws.com/110-007.png,Bird,110-007.png,6
7503,11,327365,685c6ca90f751d3aae6b1794,685c6e12c75127406c10b000,58cab9bfc7ed3f000116e2a4,FALSE,FALSE,Car,https://kisumu-drawings.s3-us-west-1.amazonaws.com/96-013.png,Car,96-013.png,5
11487,12,339360,685c6ca90f751d3aae6b1794,685c6e12c75127406c10b000,58cab9bfc7ed3f000116e2a4,FALSE,FALSE,Bicycle,https://kisumu-drawings.s3-us-west-1.amazonaws.com/71-013.png,Car,71-013.png,4
12545,13,352422,685c6ca90f751d3aae6b1794,685c6e12c75127406c10b000,58cab9bfc7ed3f000116e2a4,FALSE,FALSE,Hat,https://kisumu-drawings.s3-us-west-1.amazonaws.com/53-014.png,Rabbit,53-014.png,3
10028,14,362967,685c6ca90f751d3aae6b1794,685c6e12c75127406c10b000,58cab9bfc7ed3f000116e2a4,FALSE,FALSE,Airplane,https://kisumu-drawings.s3-us-west-1.amazonaws.com/97-013.png,Airplane,97-013.png,5
5370,15,368846,685c6ca90f751d3aae6b1794,685c6e12c75127406c10b000,58cab9bfc7ed3f000116e2a4,FALSE,FALSE,Bicycle,https://kisumu-drawings.s3-us-west-1.amazonaws.com/54-009.png,Bicycle,54-009.png,3
23787,16,393150,685c6ca90f751d3aae6b1794,685c6e12c75127406c10b000,58cab9bfc7ed3f000116e2a4,FALSE,FALSE,Bird,https://kisumu-drawings.s3-us-west-1.amazonaws.com/29-006.png,Cup,29-006.png,2
3655,17,397311,685c6ca90f751d3aae6b1794,685c6e12c75127406c10b000,58cab9bfc7ed3f000116e2a4,FALSE,FALSE,Chair,https://kisumu-drawings.s3-us-west-1.amazonaws.com/110-012.png,Chair,110-012.png,6
3243,18,401063,685c6ca90f751d3aae6b1794,685c6e12c75127406c10b000,58cab9bfc7ed3f000116e2a4,FALSE,FALSE,Chair,https://kisumu-drawings.s3-us-west-1.amazonaws.com/29-009.png,Bird,29-009.png,2
1851,19,403421,685c6ca90f751d3aae6b1794,685c6e12c75127406c10b000,58cab9bfc7ed3f000116e2a4,FALSE,FALSE,Rabbit,https://kisumu-drawings.s3-us-west-1.amazonaws.com/29-013.png,Bird,29-013.png,2
13244,20,417182,685c6ca90f751d3aae6b1794,685c6e12c75127406c10b000,58cab9bfc7ed3f000116e2a4,FALSE,FALSE,Watch,https://kisumu-drawings.s3-us-west-1.amazonaws.com/53-016.png,Watch,53-016.png,3
9521,21,427207,685c6ca90f751d3aae6b1794,685c6e12c75127406c10b000,58cab9bfc7ed3f000116e2a4,FALSE,FALSE,Airplane,https://kisumu-drawings.s3-us-west-1.amazonaws.com/10-013.png,Car,10-013.png,1
12254,22,439975,685c6ca90f751d3aae6b1794,685c6e12c75127406c10b000,58cab9bfc7ed3f000116e2a4,FALSE,FALSE,Cat,https://kisumu-drawings.s3-us-west-1.amazonaws.com/70-012.png,Cat,70-012.png,4
