view_history,rt,trial_type,trial_index,plugin_version,time_elapsed,study_id,session_id,participant_id,catch_trial,prep_trial,sketcher_category,stimulus,response,response_category,sketch_id
"[{""page_index"":0,""viewing_time"":10299},{""page_index"":1,""viewing_time"":9744},{""page_index"":2,""viewing_time"":8100},{""page_index"":3,""viewing_time"":15452}]",43595,instructions,0,,43608,687fdaae700966b6d573aa86,687fdd6129bb2cad3f0e8bcc,1,,,,,,,
,3248,image-button-response,1,,47864,687fdaae700966b6d573aa86,687fdd6129bb2cad3f0e8bcc,1,False,True,car,stimuli/prep_trials/1_car_prep.png,3.0,Car,
,3518,image-button-response,2,,51894,687fdaae700966b6d573aa86,687fdd6129bb2cad3f0e8bcc,1,False,True,cat,stimuli/prep_trials/0_cat_prep.jpg,4.0,Cat,
,6946,image-button-response,3,,59350,687fdaae700966b6d573aa86,687fdd6129bb2cad3f0e8bcc,1,False,False,Airplane,https://kisumu-drawings.s3-us-west-1.amazonaws.com/78-008.png,0.0,Airplane,78-008.png
,8722,image-button-response,4,,68584,687fdaae700966b6d573aa86,687fdd6129bb2cad3f0e8bcc,1,False,False,Bicycle,https://kisumu-drawings.s3-us-west-1.amazonaws.com/15-012.png,7.0,Hat,15-012.png
,7449,image-button-response,5,,76542,687fdaae700966b6d573aa86,687fdd6129bb2cad3f0e8bcc,1,False,False,Car,https://kisumu-drawings.s3-us-west-1.amazonaws.com/36-011.png,3.0,Car,36-011.png
,3983,image-button-response,6,,81042,687fdaae700966b6d573aa86,687fdd6129bb2cad3f0e8bcc,1,False,False,Airplane,https://kisumu-drawings.s3-us-west-1.amazonaws.com/99-006.png,0.0,Airplane,99-006.png
,7623,image-button-response,7,,89178,687fdaae700966b6d573aa86,687fdd6129bb2cad3f0e8bcc,1,False,False,Tree,https://kisumu-drawings.s3-us-west-1.amazonaws.com/46-005.png,10.0,Tree,46-005.png
,3354,image-button-response,8,,93038,687fdaae700966b6d573aa86,687fdd6129bb2cad3f0e8bcc,1,False,False,House,https://kisumu-drawings.s3-us-west-1.amazonaws.com/118-011.png,8.0,House,118-011.png
,3521,image-button-response,9,,97076,687fdaae700966b6d573aa86,687fdd6129bb2cad3f0e8bcc,1,False,False,Rabbit,https://kisumu-drawings.s3-us-west-1.amazonaws.com/62-006.png,4.0,Cat,62-006.png
,4294,image-button-response,10,,101882,687fdaae700966b6d573aa86,687fdd6129bb2cad3f0e8bcc,1,False,False,Chair,https://kisumu-drawings.s3-us-west-1.amazonaws.com/118-006.png,5.0,Chair,118-006.png
,3765,image-button-response,11,,106162,687fdaae700966b6d573aa86,687fdd6129bb2cad3f0e8bcc,1,False,False,Bicycle,https://kisumu-drawings.s3-us-west-1.amazonaws.com/41-009.png,1.0,Bicycle,41-009.png
,1746,image-button-response,12,,108420,687fdaae700966b6d573aa86,687fdd6129bb2cad3f0e8bcc,1,False,False,Cup,https://kisumu-drawings.s3-us-west-1.amazonaws.com/76-010.png,6.0,Cup,76-010.png
,13406,image-button-response,13,,122344,687fdaae700966b6d573aa86,687fdd6129bb2cad3f0e8bcc,1,False,False,Bird,https://kisumu-drawings.s3-us-west-1.amazonaws.com/9-011.png,8.0,House,9-011.png
,10838,image-button-response,14,,133688,687fdaae700966b6d573aa86,687fdd6129bb2cad3f0e8bcc,1,False,False,Tree,https://kisumu-drawings.s3-us-west-1.amazonaws.com/95-014.png,10.0,Tree,95-014.png
,6269,image-button-response,15,,140462,687fdaae700966b6d573aa86,687fdd6129bb2cad3f0e8bcc,1,False,False,Bird,https://kisumu-drawings.s3-us-west-1.amazonaws.com/82-013.png,2.0,Bird,82-013.png
,2152,image-button-response,16,,143120,687fdaae700966b6d573aa86,687fdd6129bb2cad3f0e8bcc,1,False,False,Chair,https://kisumu-drawings.s3-us-west-1.amazonaws.com/84-011.png,5.0,Chair,84-011.png
,2458,image-button-response,17,,146082,687fdaae700966b6d573aa86,687fdd6129bb2cad3f0e8bcc,1,False,False,House,https://kisumu-drawings.s3-us-west-1.amazonaws.com/77-016.png,8.0,House,77-016.png
,8107,image-button-response,18,,154706,687fdaae700966b6d573aa86,687fdd6129bb2cad3f0e8bcc,1,False,False,Cat,https://kisumu-drawings.s3-us-west-1.amazonaws.com/55-012.png,2.0,Bird,55-012.png
,3353,image-button-response,19,,158571,687fdaae700966b6d573aa86,687fdd6129bb2cad3f0e8bcc,1,False,False,Tree,https://kisumu-drawings.s3-us-west-1.amazonaws.com/109-009.png,10.0,Tree,109-009.png
,4614,image-button-response,20,,163690,687fdaae700966b6d573aa86,687fdd6129bb2cad3f0e8bcc,1,False,False,Bird,https://kisumu-drawings.s3-us-west-1.amazonaws.com/32-012.png,4.0,Cat,32-012.png
,17575,image-button-response,21,,181770,687fdaae700966b6d573aa86,687fdd6129bb2cad3f0e8bcc,1,False,False,Bird,https://kisumu-drawings.s3-us-west-1.amazonaws.com/116-010.png,5.0,Chair,116-010.png
,3615,image-button-response,22,,185902,687fdaae700966b6d573aa86,687fdd6129bb2cad3f0e8bcc,1,False,False,Cup,https://kisumu-drawings.s3-us-west-1.amazonaws.com/32-016.png,11.0,Watch,32-016.png
,2152,image-button-response,23,,188558,687fdaae700966b6d573aa86,687fdd6129bb2cad3f0e8bcc,1,True,False,airplane,stimuli/catch_trials/0_airplane_catch.jpg,0.0,Airplane,
,11473,image-button-response,24,,200538,687fdaae700966b6d573aa86,687fdd6129bb2cad3f0e8bcc,1,False,False,Watch,https://kisumu-drawings.s3-us-west-1.amazonaws.com/45-013.png,11.0,Watch,45-013.png
,13247,image-button-response,25,,214298,687fdaae700966b6d573aa86,687fdd6129bb2cad3f0e8bcc,1,False,False,Watch,https://kisumu-drawings.s3-us-west-1.amazonaws.com/9-005.png,4.0,Cat,9-005.png
,5888,image-button-response,26,,220704,687fdaae700966b6d573aa86,687fdd6129bb2cad3f0e8bcc,1,False,False,Bird,https://kisumu-drawings.s3-us-west-1.amazonaws.com/77-011.png,11.0,Watch,77-011.png
,8740,image-button-response,27,,229948,687fdaae700966b6d573aa86,687fdd6129bb2cad3f0e8bcc,1,False,False,Airplane,https://kisumu-drawings.s3-us-west-1.amazonaws.com/11-010.png,10.0,Tree,11-010.png
,4916,image-button-response,28,,235382,687fdaae700966b6d573aa86,687fdd6129bb2cad3f0e8bcc,1,False,False,House,https://kisumu-drawings.s3-us-west-1.amazonaws.com/93-010.png,8.0,House,93-010.png
,8882,image-button-response,29,,244773,687fdaae700966b6d573aa86,687fdd6129bb2cad3f0e8bcc,1,False,False,Hat,https://kisumu-drawings.s3-us-west-1.amazonaws.com/26-011.png,7.0,Hat,26-011.png
,4892,image-button-response,30,,250175,687fdaae700966b6d573aa86,687fdd6129bb2cad3f0e8bcc,1,False,False,Cup,https://kisumu-drawings.s3-us-west-1.amazonaws.com/106-010.png,6.0,Cup,106-010.png
,2193,image-button-response,31,,252879,687fdaae700966b6d573aa86,687fdd6129bb2cad3f0e8bcc,1,False,False,Bicycle,https://kisumu-drawings.s3-us-west-1.amazonaws.com/63-012.png,1.0,Bicycle,63-012.png
,2028,image-button-response,32,,255411,687fdaae700966b6d573aa86,687fdd6129bb2cad3f0e8bcc,1,False,False,House,https://kisumu-drawings.s3-us-west-1.amazonaws.com/17-016.png,8.0,House,17-016.png
,20911,image-button-response,33,,276829,687fdaae700966b6d573aa86,687fdd6129bb2cad3f0e8bcc,1,False,False,Airplane,https://kisumu-drawings.s3-us-west-1.amazonaws.com/33-005.png,11.0,Watch,33-005.png
,2878,image-button-response,34,,280209,687fdaae700966b6d573aa86,687fdd6129bb2cad3f0e8bcc,1,False,False,House,https://kisumu-drawings.s3-us-west-1.amazonaws.com/38-008.png,8.0,House,38-008.png
,9086,image-button-response,35,,289800,687fdaae700966b6d573aa86,687fdd6129bb2cad3f0e8bcc,1,False,False,Hat,https://kisumu-drawings.s3-us-west-1.amazonaws.com/45-009.png,11.0,Watch,45-009.png
,11647,image-button-response,36,,301957,687fdaae700966b6d573aa86,687fdd6129bb2cad3f0e8bcc,1,False,False,Cat,https://kisumu-drawings.s3-us-west-1.amazonaws.com/77-007.png,4.0,Cat,77-007.png
,2910,image-button-response,37,,305375,687fdaae700966b6d573aa86,687fdd6129bb2cad3f0e8bcc,1,False,False,Chair,https://kisumu-drawings.s3-us-west-1.amazonaws.com/78-007.png,5.0,Chair,78-007.png
,1913,image-button-response,38,,307807,687fdaae700966b6d573aa86,687fdd6129bb2cad3f0e8bcc,1,False,False,Watch,https://kisumu-drawings.s3-us-west-1.amazonaws.com/22-010.png,11.0,Watch,22-010.png
,7709,image-button-response,39,,316023,687fdaae700966b6d573aa86,687fdd6129bb2cad3f0e8bcc,1,False,False,Car,https://kisumu-drawings.s3-us-west-1.amazonaws.com/98-014.png,8.0,House,98-014.png
,14293,image-button-response,40,,330826,687fdaae700966b6d573aa86,687fdd6129bb2cad3f0e8bcc,1,False,False,Chair,https://kisumu-drawings.s3-us-west-1.amazonaws.com/45-007.png,5.0,Chair,45-007.png
,4285,image-button-response,41,,335615,687fdaae700966b6d573aa86,687fdd6129bb2cad3f0e8bcc,1,False,False,Car,https://kisumu-drawings.s3-us-west-1.amazonaws.com/114-012.png,3.0,Car,114-012.png
,13174,image-button-response,42,,349299,687fdaae700966b6d573aa86,687fdd6129bb2cad3f0e8bcc,1,False,False,Cup,https://kisumu-drawings.s3-us-west-1.amazonaws.com/16-005.png,5.0,Chair,16-005.png
,3073,image-button-response,43,,352881,687fdaae700966b6d573aa86,687fdd6129bb2cad3f0e8bcc,1,False,False,Bird,https://kisumu-drawings.s3-us-west-1.amazonaws.com/44-010.png,0.0,Airplane,44-010.png
,14561,image-button-response,44,,367951,687fdaae700966b6d573aa86,687fdd6129bb2cad3f0e8bcc,1,False,False,Tree,https://kisumu-drawings.s3-us-west-1.amazonaws.com/25-016.png,10.0,Tree,25-016.png
,23605,image-button-response,45,,392061,687fdaae700966b6d573aa86,687fdd6129bb2cad3f0e8bcc,1,False,False,Watch,https://kisumu-drawings.s3-us-west-1.amazonaws.com/75-006.png,10.0,Tree,75-006.png
,3353,image-button-response,46,,395919,687fdaae700966b6d573aa86,687fdd6129bb2cad3f0e8bcc,1,False,False,Bicycle,https://kisumu-drawings.s3-us-west-1.amazonaws.com/98-006.png,1.0,Bicycle,98-006.png
,2654,image-button-response,47,,399077,687fdaae700966b6d573aa86,687fdd6129bb2cad3f0e8bcc,1,False,False,Cat,https://kisumu-drawings.s3-us-west-1.amazonaws.com/83-006.png,4.0,Cat,83-006.png
,5867,image-button-response,48,,405459,687fdaae700966b6d573aa86,687fdd6129bb2cad3f0e8bcc,1,False,False,Rabbit,https://kisumu-drawings.s3-us-west-1.amazonaws.com/14-006.png,9.0,Rabbit,14-006.png
,5204,image-button-response,49,,411167,687fdaae700966b6d573aa86,687fdd6129bb2cad3f0e8bcc,1,False,False,Cat,https://kisumu-drawings.s3-us-west-1.amazonaws.com/12-011.png,4.0,Cat,12-011.png
,2622,image-button-response,50,,414295,687fdaae700966b6d573aa86,687fdd6129bb2cad3f0e8bcc,1,False,False,Bicycle,https://kisumu-drawings.s3-us-west-1.amazonaws.com/33-006.png,11.0,Watch,33-006.png
,7118,image-button-response,51,,421931,687fdaae700966b6d573aa86,687fdd6129bb2cad3f0e8bcc,1,False,False,Rabbit,https://kisumu-drawings.s3-us-west-1.amazonaws.com/117-005.png,4.0,Cat,117-005.png
,7986,image-button-response,52,,430423,687fdaae700966b6d573aa86,687fdd6129bb2cad3f0e8bcc,1,False,False,Car,https://kisumu-drawings.s3-us-west-1.amazonaws.com/14-010.png,7.0,Hat,14-010.png
,7508,image-button-response,53,,438435,687fdaae700966b6d573aa86,687fdd6129bb2cad3f0e8bcc,1,False,False,Chair,https://kisumu-drawings.s3-us-west-1.amazonaws.com/15-009.png,8.0,House,15-009.png
,4490,image-button-response,54,,443431,687fdaae700966b6d573aa86,687fdd6129bb2cad3f0e8bcc,1,False,False,Tree,https://kisumu-drawings.s3-us-west-1.amazonaws.com/3-015.png,10.0,Tree,3-015.png
,9978,image-button-response,55,,453913,687fdaae700966b6d573aa86,687fdd6129bb2cad3f0e8bcc,1,False,False,Rabbit,https://kisumu-drawings.s3-us-west-1.amazonaws.com/23-008.png,9.0,Rabbit,23-008.png
,9944,image-button-response,56,,464365,687fdaae700966b6d573aa86,687fdd6129bb2cad3f0e8bcc,1,False,False,Rabbit,https://kisumu-drawings.s3-us-west-1.amazonaws.com/58-007.png,4.0,Cat,58-007.png
,9941,image-button-response,57,,474809,687fdaae700966b6d573aa86,687fdd6129bb2cad3f0e8bcc,1,False,False,Hat,https://kisumu-drawings.s3-us-west-1.amazonaws.com/16-013.png,0.0,Airplane,16-013.png
,2809,image-button-response,58,,478125,687fdaae700966b6d573aa86,687fdd6129bb2cad3f0e8bcc,1,False,False,Watch,https://kisumu-drawings.s3-us-west-1.amazonaws.com/100-016.png,11.0,Watch,100-016.png
,3706,image-button-response,59,,482343,687fdaae700966b6d573aa86,687fdd6129bb2cad3f0e8bcc,1,False,False,Rabbit,https://kisumu-drawings.s3-us-west-1.amazonaws.com/87-013.png,4.0,Cat,87-013.png
,2922,image-button-response,60,,485777,687fdaae700966b6d573aa86,687fdd6129bb2cad3f0e8bcc,1,False,False,Tree,https://kisumu-drawings.s3-us-west-1.amazonaws.com/77-012.png,10.0,Tree,77-012.png
,1996,image-button-response,61,,488279,687fdaae700966b6d573aa86,687fdd6129bb2cad3f0e8bcc,1,False,False,Bicycle,https://kisumu-drawings.s3-us-west-1.amazonaws.com/116-005.png,1.0,Bicycle,116-005.png
,6412,image-button-response,62,,495203,687fdaae700966b6d573aa86,687fdd6129bb2cad3f0e8bcc,1,False,False,Chair,https://kisumu-drawings.s3-us-west-1.amazonaws.com/25-009.png,5.0,Chair,25-009.png
,4536,image-button-response,63,,500243,687fdaae700966b6d573aa86,687fdd6129bb2cad3f0e8bcc,1,False,False,Cat,https://kisumu-drawings.s3-us-west-1.amazonaws.com/112-016.png,9.0,Rabbit,112-016.png
,2036,image-button-response,64,,502793,687fdaae700966b6d573aa86,687fdd6129bb2cad3f0e8bcc,1,False,False,Hat,https://kisumu-drawings.s3-us-west-1.amazonaws.com/84-008.png,7.0,Hat,84-008.png
,2856,image-button-response,65,,506157,687fdaae700966b6d573aa86,687fdd6129bb2cad3f0e8bcc,1,False,False,Airplane,https://kisumu-drawings.s3-us-west-1.amazonaws.com/109-015.png,0.0,Airplane,109-015.png
,9045,image-button-response,66,,515705,687fdaae700966b6d573aa86,687fdd6129bb2cad3f0e8bcc,1,False,False,Cat,https://kisumu-drawings.s3-us-west-1.amazonaws.com/33-012.png,2.0,Bird,33-012.png
,13877,image-button-response,67,,530085,687fdaae700966b6d573aa86,687fdd6129bb2cad3f0e8bcc,1,False,False,Car,https://kisumu-drawings.s3-us-west-1.amazonaws.com/57-013.png,8.0,House,57-013.png
,5773,image-button-response,68,,536373,687fdaae700966b6d573aa86,687fdd6129bb2cad3f0e8bcc,1,False,False,Cup,https://kisumu-drawings.s3-us-west-1.amazonaws.com/48-015.png,9.0,Rabbit,48-015.png
,1799,image-button-response,69,,538677,687fdaae700966b6d573aa86,687fdd6129bb2cad3f0e8bcc,1,False,False,Hat,https://kisumu-drawings.s3-us-west-1.amazonaws.com/112-014.png,7.0,Hat,112-014.png
,3774,image-button-response,70,,542957,687fdaae700966b6d573aa86,687fdd6129bb2cad3f0e8bcc,1,False,False,Car,https://kisumu-drawings.s3-us-west-1.amazonaws.com/61-012.png,3.0,Car,61-012.png
,8785,image-button-response,71,,552257,687fdaae700966b6d573aa86,687fdd6129bb2cad3f0e8bcc,1,False,False,Hat,https://kisumu-drawings.s3-us-west-1.amazonaws.com/77-008.png,7.0,Hat,77-008.png
,2555,image-button-response,72,,555315,687fdaae700966b6d573aa86,687fdd6129bb2cad3f0e8bcc,1,False,False,House,https://kisumu-drawings.s3-us-west-1.amazonaws.com/46-015.png,8.0,House,46-015.png
,11440,image-button-response,73,,567265,687fdaae700966b6d573aa86,687fdd6129bb2cad3f0e8bcc,1,False,False,Airplane,https://kisumu-drawings.s3-us-west-1.amazonaws.com/55-014.png,0.0,Airplane,55-014.png
,2806,image-button-response,74,,570581,687fdaae700966b6d573aa86,687fdd6129bb2cad3f0e8bcc,1,False,False,Cup,https://kisumu-drawings.s3-us-west-1.amazonaws.com/83-011.png,6.0,Cup,83-011.png
,2432,image-button-response,75,,573521,687fdaae700966b6d573aa86,687fdd6129bb2cad3f0e8bcc,1,False,False,Watch,https://kisumu-drawings.s3-us-west-1.amazonaws.com/119-015.png,11.0,Watch,119-015.png
