"view_history","rt","trial_type","trial_index","plugin_version","time_elapsed","study_id","session_id","participant_id","tracing_type","tracing_id","catch_trial","prep_trial","stimulus","response","sketcher_category","response_category"
"[{""page_index"":0,""viewing_time"":9052},{""page_index"":1,""viewing_time"":6995},{""page_index"":2,""viewing_time"":3908},{""page_index"":3,""viewing_time"":2107},{""page_index"":4,""viewing_time"":3854}]","25917","instructions","0","null","25921","68895b4cc3548521ab78eeca","688a92f2698b75de1500e616","55ec49b67480920010aaa4e8","","","","","","","",""
"","3602","image-button-response","1","null","30531","68895b4cc3548521ab78eeca","688a92f2698b75de1500e616","55ec49b67480920010aaa4e8","5","S111_age9_trial5.png","false","false","https://kisumu-drawings.s3-us-west-1.amazonaws.com/tracings/S111_age9_trial5.png","5","",""
"","2250","image-button-response","2","null","33283","68895b4cc3548521ab78eeca","688a92f2698b75de1500e616","55ec49b67480920010aaa4e8","4","S51_age6_trial4.png","false","false","https://kisumu-drawings.s3-us-west-1.amazonaws.com/tracings/S51_age6_trial4.png","4","",""
"","3887","image-button-response","3","null","37677","68895b4cc3548521ab78eeca","688a92f2698b75de1500e616","55ec49b67480920010aaa4e8","1","S19_age4_trial1.png","false","false","https://kisumu-drawings.s3-us-west-1.amazonaws.com/tracings/S19_age4_trial1.png","3","",""
"","2167","image-button-response","4","null","40354","68895b4cc3548521ab78eeca","688a92f2698b75de1500e616","55ec49b67480920010aaa4e8","1","S32_age5_trial1.png","false","false","https://kisumu-drawings.s3-us-west-1.amazonaws.com/tracings/S32_age5_trial1.png","3","",""
"","1548","image-button-response","5","null","42414","68895b4cc3548521ab78eeca","688a92f2698b75de1500e616","55ec49b67480920010aaa4e8","5","S71_age7_trial5.png","false","false","https://kisumu-drawings.s3-us-west-1.amazonaws.com/tracings/S71_age7_trial5.png","5","",""
"","1287","image-button-response","6","null","44214","68895b4cc3548521ab78eeca","688a92f2698b75de1500e616","55ec49b67480920010aaa4e8","3","S90_age8_trial3.png","false","false","https://kisumu-drawings.s3-us-west-1.amazonaws.com/tracings/S90_age8_trial3.png","5","",""
"","1226","image-button-response","7","null","45944","68895b4cc3548521ab78eeca","688a92f2698b75de1500e616","55ec49b67480920010aaa4e8","3","S1_age4_trial3.png","false","false","https://kisumu-drawings.s3-us-west-1.amazonaws.com/tracings/S1_age4_trial3.png","4","",""
"","1322","image-button-response","8","null","47777","68895b4cc3548521ab78eeca","688a92f2698b75de1500e616","55ec49b67480920010aaa4e8","3","S52_age6_trial3.png","false","false","https://kisumu-drawings.s3-us-west-1.amazonaws.com/tracings/S52_age6_trial3.png","5","",""
"","1543","image-button-response","9","null","49833","68895b4cc3548521ab78eeca","688a92f2698b75de1500e616","55ec49b67480920010aaa4e8","5","S90_age8_trial5.png","false","false","https://kisumu-drawings.s3-us-west-1.amazonaws.com/tracings/S90_age8_trial5.png","5","",""
"","1058","image-button-response","10","null","51393","68895b4cc3548521ab78eeca","688a92f2698b75de1500e616","55ec49b67480920010aaa4e8","5","S72_age7_trial5.png","false","false","https://kisumu-drawings.s3-us-west-1.amazonaws.com/tracings/S72_age7_trial5.png","5","",""
"","1146","image-button-response","11","null","53056","68895b4cc3548521ab78eeca","688a92f2698b75de1500e616","55ec49b67480920010aaa4e8","2","S53_age6_trial2.png","false","false","https://kisumu-drawings.s3-us-west-1.amazonaws.com/tracings/S53_age6_trial2.png","5","",""
"","1248","image-button-response","12","null","54808","68895b4cc3548521ab78eeca","688a92f2698b75de1500e616","55ec49b67480920010aaa4e8","3","S31_age5_trial3.png","false","false","https://kisumu-drawings.s3-us-west-1.amazonaws.com/tracings/S31_age5_trial3.png","4","",""
"","1147","image-button-response","13","null","56462","68895b4cc3548521ab78eeca","688a92f2698b75de1500e616","55ec49b67480920010aaa4e8","5","S31_age5_trial5.png","false","false","https://kisumu-drawings.s3-us-west-1.amazonaws.com/tracings/S31_age5_trial5.png","4","",""
"","1182","image-button-response","14","null","58159","68895b4cc3548521ab78eeca","688a92f2698b75de1500e616","55ec49b67480920010aaa4e8","3","S72_age7_trial3.png","false","false","https://kisumu-drawings.s3-us-west-1.amazonaws.com/tracings/S72_age7_trial3.png","5","",""
"","1456","image-button-response","15","null","60115","68895b4cc3548521ab78eeca","688a92f2698b75de1500e616","55ec49b67480920010aaa4e8","4","S113_age9_trial4.png","false","false","https://kisumu-drawings.s3-us-west-1.amazonaws.com/tracings/S113_age9_trial4.png","5","",""
"","1133","image-button-response","16","null","61749","68895b4cc3548521ab78eeca","688a92f2698b75de1500e616","55ec49b67480920010aaa4e8","2","S112_age9_trial2.png","false","false","https://kisumu-drawings.s3-us-west-1.amazonaws.com/tracings/S112_age9_trial2.png","5","",""
"","2558","image-button-response","17","null","64808","68895b4cc3548521ab78eeca","688a92f2698b75de1500e616","55ec49b67480920010aaa4e8","5","S1_age4_trial5.png","false","false","https://kisumu-drawings.s3-us-west-1.amazonaws.com/tracings/S1_age4_trial5.png","3","",""
"","1391","image-button-response","18","null","66711","68895b4cc3548521ab78eeca","688a92f2698b75de1500e616","55ec49b67480920010aaa4e8","2","S111_age9_trial2.png","false","false","https://kisumu-drawings.s3-us-west-1.amazonaws.com/tracings/S111_age9_trial2.png","5","",""
"","1166","image-button-response","19","null","68379","68895b4cc3548521ab78eeca","688a92f2698b75de1500e616","55ec49b67480920010aaa4e8","2","S31_age5_trial2.png","false","false","https://kisumu-drawings.s3-us-west-1.amazonaws.com/tracings/S31_age5_trial2.png","4","",""
"","1019","image-button-response","20","null","69912","68895b4cc3548521ab78eeca","688a92f2698b75de1500e616","55ec49b67480920010aaa4e8","3","S71_age7_trial3.png","false","false","https://kisumu-drawings.s3-us-west-1.amazonaws.com/tracings/S71_age7_trial3.png","5","",""
"","1047","image-button-response","21","null","71461","68895b4cc3548521ab78eeca","688a92f2698b75de1500e616","55ec49b67480920010aaa4e8","5","S52_age6_trial5.png","false","false","https://kisumu-drawings.s3-us-west-1.amazonaws.com/tracings/S52_age6_trial5.png","5","",""
"","1166","image-button-response","22","null","73131","68895b4cc3548521ab78eeca","688a92f2698b75de1500e616","55ec49b67480920010aaa4e8","4","S31_age5_trial4.png","false","false","https://kisumu-drawings.s3-us-west-1.amazonaws.com/tracings/S31_age5_trial4.png","4","",""
"","1049","image-button-response","23","null","74690","68895b4cc3548521ab78eeca","688a92f2698b75de1500e616","55ec49b67480920010aaa4e8","3","S32_age5_trial3.png","false","false","https://kisumu-drawings.s3-us-west-1.amazonaws.com/tracings/S32_age5_trial3.png","5","",""
"","1261","image-button-response","24","null","76452","68895b4cc3548521ab78eeca","688a92f2698b75de1500e616","55ec49b67480920010aaa4e8","3","S112_age9_trial3.png","false","false","https://kisumu-drawings.s3-us-west-1.amazonaws.com/tracings/S112_age9_trial3.png","5","",""
"","1223","image-button-response","25","null","78187","68895b4cc3548521ab78eeca","688a92f2698b75de1500e616","55ec49b67480920010aaa4e8","2","S91_age8_trial2.png","false","false","https://kisumu-drawings.s3-us-west-1.amazonaws.com/tracings/S91_age8_trial2.png","5","",""
"","2785","image-button-response","26","null","81488","68895b4cc3548521ab78eeca","688a92f2698b75de1500e616","55ec49b67480920010aaa4e8","4","S20_age4_trial4.png","false","false","https://kisumu-drawings.s3-us-west-1.amazonaws.com/tracings/S20_age4_trial4.png","2","",""
"","1310","image-button-response","27","null","83300","68895b4cc3548521ab78eeca","688a92f2698b75de1500e616","55ec49b67480920010aaa4e8","2","S1_age4_trial2.png","false","false","https://kisumu-drawings.s3-us-west-1.amazonaws.com/tracings/S1_age4_trial2.png","4","",""
"","2044","image-button-response","28","null","85846","68895b4cc3548521ab78eeca","688a92f2698b75de1500e616","55ec49b67480920010aaa4e8","4","S72_age7_trial4.png","false","false","https://kisumu-drawings.s3-us-west-1.amazonaws.com/tracings/S72_age7_trial4.png","4","",""
"","2050","image-button-response","29","null","88406","68895b4cc3548521ab78eeca","688a92f2698b75de1500e616","55ec49b67480920010aaa4e8","3","S19_age4_trial3.png","false","false","https://kisumu-drawings.s3-us-west-1.amazonaws.com/tracings/S19_age4_trial3.png","3","",""
"","1494","image-button-response","30","null","90403","68895b4cc3548521ab78eeca","688a92f2698b75de1500e616","55ec49b67480920010aaa4e8","2","S32_age5_trial2.png","false","false","https://kisumu-drawings.s3-us-west-1.amazonaws.com/tracings/S32_age5_trial2.png","4","",""
"","1154","image-button-response","31","null","92068","68895b4cc3548521ab78eeca","688a92f2698b75de1500e616","55ec49b67480920010aaa4e8","1","S72_age7_trial1.png","false","false","https://kisumu-drawings.s3-us-west-1.amazonaws.com/tracings/S72_age7_trial1.png","5","",""
"","2556","image-button-response","32","null","95126","68895b4cc3548521ab78eeca","688a92f2698b75de1500e616","55ec49b67480920010aaa4e8","5","S20_age4_trial5.png","false","false","https://kisumu-drawings.s3-us-west-1.amazonaws.com/tracings/S20_age4_trial5.png","1","",""
"","2244","image-button-response","33","null","97885","68895b4cc3548521ab78eeca","688a92f2698b75de1500e616","55ec49b67480920010aaa4e8","2","S52_age6_trial2.png","false","false","https://kisumu-drawings.s3-us-west-1.amazonaws.com/tracings/S52_age6_trial2.png","5","",""
"","1147","image-button-response","34","null","99546","68895b4cc3548521ab78eeca","688a92f2698b75de1500e616","55ec49b67480920010aaa4e8","3","S91_age8_trial3.png","false","false","https://kisumu-drawings.s3-us-west-1.amazonaws.com/tracings/S91_age8_trial3.png","5","",""
"","1124","image-button-response","35","null","101173","68895b4cc3548521ab78eeca","688a92f2698b75de1500e616","55ec49b67480920010aaa4e8","1","S92_age8_trial1.png","false","false","https://kisumu-drawings.s3-us-west-1.amazonaws.com/tracings/S92_age8_trial1.png","5","",""
"","991","image-button-response","36","null","102665","68895b4cc3548521ab78eeca","688a92f2698b75de1500e616","55ec49b67480920010aaa4e8","2","S90_age8_trial2.png","false","false","https://kisumu-drawings.s3-us-west-1.amazonaws.com/tracings/S90_age8_trial2.png","5","",""
"","2022","image-button-response","37","null","105196","68895b4cc3548521ab78eeca","688a92f2698b75de1500e616","55ec49b67480920010aaa4e8","4","S91_age8_trial4.png","false","false","https://kisumu-drawings.s3-us-west-1.amazonaws.com/tracings/S91_age8_trial4.png","5","",""
"","1662","image-button-response","38","null","107361","68895b4cc3548521ab78eeca","688a92f2698b75de1500e616","55ec49b67480920010aaa4e8","1","S71_age7_trial1.png","false","false","https://kisumu-drawings.s3-us-west-1.amazonaws.com/tracings/S71_age7_trial1.png","4","",""
"","1418","image-button-response","39","null","109282","68895b4cc3548521ab78eeca","688a92f2698b75de1500e616","55ec49b67480920010aaa4e8","1","S112_age9_trial1.png","false","false","https://kisumu-drawings.s3-us-west-1.amazonaws.com/tracings/S112_age9_trial1.png","4","",""
"","1791","image-button-response","40","null","111585","68895b4cc3548521ab78eeca","688a92f2698b75de1500e616","55ec49b67480920010aaa4e8","4","S71_age7_trial4.png","false","false","https://kisumu-drawings.s3-us-west-1.amazonaws.com/tracings/S71_age7_trial4.png","4","",""
"","1852","image-button-response","41","null","113940","68895b4cc3548521ab78eeca","688a92f2698b75de1500e616","55ec49b67480920010aaa4e8","2","S71_age7_trial2.png","false","false","https://kisumu-drawings.s3-us-west-1.amazonaws.com/tracings/S71_age7_trial2.png","4","",""
"","1103","image-button-response","42","null","115549","68895b4cc3548521ab78eeca","688a92f2698b75de1500e616","55ec49b67480920010aaa4e8","3","S53_age6_trial3.png","false","false","https://kisumu-drawings.s3-us-west-1.amazonaws.com/tracings/S53_age6_trial3.png","4","",""
"","1534","image-button-response","43","null","117595","68895b4cc3548521ab78eeca","688a92f2698b75de1500e616","55ec49b67480920010aaa4e8","5","S112_age9_trial5.png","false","false","https://kisumu-drawings.s3-us-west-1.amazonaws.com/tracings/S112_age9_trial5.png","5","",""
"","1674","image-button-response","44","null","119773","68895b4cc3548521ab78eeca","688a92f2698b75de1500e616","55ec49b67480920010aaa4e8","4","S32_age5_trial4.png","false","false","https://kisumu-drawings.s3-us-west-1.amazonaws.com/tracings/S32_age5_trial4.png","4","",""
"","1030","image-button-response","45","null","121316","68895b4cc3548521ab78eeca","688a92f2698b75de1500e616","55ec49b67480920010aaa4e8","1","S31_age5_trial1.png","false","false","https://kisumu-drawings.s3-us-west-1.amazonaws.com/tracings/S31_age5_trial1.png","4","",""
"","1144","image-button-response","46","null","122963","68895b4cc3548521ab78eeca","688a92f2698b75de1500e616","55ec49b67480920010aaa4e8","4","S112_age9_trial4.png","false","false","https://kisumu-drawings.s3-us-west-1.amazonaws.com/tracings/S112_age9_trial4.png","5","",""
"","1577","image-button-response","47","null","125041","68895b4cc3548521ab78eeca","688a92f2698b75de1500e616","55ec49b67480920010aaa4e8","5","S51_age6_trial5.png","false","false","https://kisumu-drawings.s3-us-west-1.amazonaws.com/tracings/S51_age6_trial5.png","4","",""
"","951","image-button-response","48","null","126498","68895b4cc3548521ab78eeca","688a92f2698b75de1500e616","55ec49b67480920010aaa4e8","4","S52_age6_trial4.png","false","false","https://kisumu-drawings.s3-us-west-1.amazonaws.com/tracings/S52_age6_trial4.png","4","",""
"","1091","image-button-response","49","null","128097","68895b4cc3548521ab78eeca","688a92f2698b75de1500e616","55ec49b67480920010aaa4e8","1","S51_age6_trial1.png","false","false","https://kisumu-drawings.s3-us-west-1.amazonaws.com/tracings/S51_age6_trial1.png","4","",""
"","1504","image-button-response","50","null","130104","68895b4cc3548521ab78eeca","688a92f2698b75de1500e616","55ec49b67480920010aaa4e8","5","S91_age8_trial5.png","false","false","https://kisumu-drawings.s3-us-west-1.amazonaws.com/tracings/S91_age8_trial5.png","5","",""
"","1303","image-button-response","51","null","131921","68895b4cc3548521ab78eeca","688a92f2698b75de1500e616","55ec49b67480920010aaa4e8","1","S91_age8_trial1.png","false","false","https://kisumu-drawings.s3-us-west-1.amazonaws.com/tracings/S91_age8_trial1.png","5","",""
"","1387","image-button-response","52","null","133820","68895b4cc3548521ab78eeca","688a92f2698b75de1500e616","55ec49b67480920010aaa4e8","2","S72_age7_trial2.png","false","false","https://kisumu-drawings.s3-us-west-1.amazonaws.com/tracings/S72_age7_trial2.png","4","",""
"","2820","image-button-response","53","null","137151","68895b4cc3548521ab78eeca","688a92f2698b75de1500e616","55ec49b67480920010aaa4e8","","","true","false","stimuli/catch_trials/catch_trial.png","0","","1"
"","1960","image-button-response","54","null","139620","68895b4cc3548521ab78eeca","688a92f2698b75de1500e616","55ec49b67480920010aaa4e8","1","S1_age4_trial1.png","false","false","https://kisumu-drawings.s3-us-west-1.amazonaws.com/tracings/S1_age4_trial1.png","4","",""
"","1020","image-button-response","55","null","141143","68895b4cc3548521ab78eeca","688a92f2698b75de1500e616","55ec49b67480920010aaa4e8","4","S1_age4_trial4.png","false","false","https://kisumu-drawings.s3-us-west-1.amazonaws.com/tracings/S1_age4_trial4.png","4","",""
"","1173","image-button-response","56","null","142825","68895b4cc3548521ab78eeca","688a92f2698b75de1500e616","55ec49b67480920010aaa4e8","1","S50_age6_trial1.png","false","false","https://kisumu-drawings.s3-us-west-1.amazonaws.com/tracings/S50_age6_trial1.png","5","",""
"","1241","image-button-response","57","null","144579","68895b4cc3548521ab78eeca","688a92f2698b75de1500e616","55ec49b67480920010aaa4e8","4","S90_age8_trial4.png","false","false","https://kisumu-drawings.s3-us-west-1.amazonaws.com/tracings/S90_age8_trial4.png","5","",""
"","1873","image-button-response","58","null","146964","68895b4cc3548521ab78eeca","688a92f2698b75de1500e616","55ec49b67480920010aaa4e8","2","S20_age4_trial2.png","false","false","https://kisumu-drawings.s3-us-west-1.amazonaws.com/tracings/S20_age4_trial2.png","3","",""
"","1457","image-button-response","59","null","148936","68895b4cc3548521ab78eeca","688a92f2698b75de1500e616","55ec49b67480920010aaa4e8","1","S113_age9_trial1.png","false","false","https://kisumu-drawings.s3-us-west-1.amazonaws.com/tracings/S113_age9_trial1.png","5","",""
"","1132","image-button-response","60","null","150569","68895b4cc3548521ab78eeca","688a92f2698b75de1500e616","55ec49b67480920010aaa4e8","3","S111_age9_trial3.png","false","false","https://kisumu-drawings.s3-us-west-1.amazonaws.com/tracings/S111_age9_trial3.png","5","",""
"","3304","image-button-response","61","null","154378","68895b4cc3548521ab78eeca","688a92f2698b75de1500e616","55ec49b67480920010aaa4e8","5","S32_age5_trial5.png","false","false","https://kisumu-drawings.s3-us-west-1.amazonaws.com/tracings/S32_age5_trial5.png","3","",""
