"view_history","rt","trial_type","trial_index","plugin_version","time_elapsed","study_id","session_id","participant_id","tracing_type","tracing_id","catch_trial","prep_trial","stimulus","response","sketcher_category","response_category"
"[{""page_index"":0,""viewing_time"":9809},{""page_index"":1,""viewing_time"":8591},{""page_index"":2,""viewing_time"":20507},{""page_index"":3,""viewing_time"":2889},{""page_index"":4,""viewing_time"":8164}]","49961","instructions","0","null","49983","68895b4cc3548521ab78eeca","68897164307ae368e63ccf54","56e225c2ec0fdd000641e72d","","","","","","","",""
"","5753","image-button-response","1","null","56754","68895b4cc3548521ab78eeca","68897164307ae368e63ccf54","56e225c2ec0fdd000641e72d","1","S41_age6_trial1.png","false","false","https://kisumu-drawings.s3-us-west-1.amazonaws.com/tracings/S41_age6_trial1.png","4","",""
"","4907","image-button-response","2","null","62172","68895b4cc3548521ab78eeca","68897164307ae368e63ccf54","56e225c2ec0fdd000641e72d","1","S100_age8_trial1.png","false","false","https://kisumu-drawings.s3-us-west-1.amazonaws.com/tracings/S100_age8_trial1.png","5","",""
"","5105","image-button-response","3","null","67788","68895b4cc3548521ab78eeca","68897164307ae368e63ccf54","56e225c2ec0fdd000641e72d","5","S11_age4_trial5.png","false","false","https://kisumu-drawings.s3-us-west-1.amazonaws.com/tracings/S11_age4_trial5.png","1","",""
"","5022","image-button-response","4","null","73320","68895b4cc3548521ab78eeca","68897164307ae368e63ccf54","56e225c2ec0fdd000641e72d","1","S62_age7_trial1.png","false","false","https://kisumu-drawings.s3-us-west-1.amazonaws.com/tracings/S62_age7_trial1.png","4","",""
"","2667","image-button-response","5","null","76502","68895b4cc3548521ab78eeca","68897164307ae368e63ccf54","56e225c2ec0fdd000641e72d","","","true","false","stimuli/catch_trials/catch_trial.png","0","","1"
"","4940","image-button-response","6","null","81952","68895b4cc3548521ab78eeca","68897164307ae368e63ccf54","56e225c2ec0fdd000641e72d","5","S100_age8_trial5.png","false","false","https://kisumu-drawings.s3-us-west-1.amazonaws.com/tracings/S100_age8_trial5.png","3","",""
"","4249","image-button-response","7","null","86712","68895b4cc3548521ab78eeca","68897164307ae368e63ccf54","56e225c2ec0fdd000641e72d","4","S21_age5_trial4.png","false","false","https://kisumu-drawings.s3-us-west-1.amazonaws.com/tracings/S21_age5_trial4.png","3","",""
"","6826","image-button-response","8","null","94061","68895b4cc3548521ab78eeca","68897164307ae368e63ccf54","56e225c2ec0fdd000641e72d","4","S22_age5_trial4.png","false","false","https://kisumu-drawings.s3-us-west-1.amazonaws.com/tracings/S22_age5_trial4.png","4","",""
"","5421","image-button-response","9","null","99994","68895b4cc3548521ab78eeca","68897164307ae368e63ccf54","56e225c2ec0fdd000641e72d","3","S101_age9_trial3.png","false","false","https://kisumu-drawings.s3-us-west-1.amazonaws.com/tracings/S101_age9_trial3.png","5","",""
"","4898","image-button-response","10","null","105405","68895b4cc3548521ab78eeca","68897164307ae368e63ccf54","56e225c2ec0fdd000641e72d","1","S11_age4_trial1.png","false","false","https://kisumu-drawings.s3-us-west-1.amazonaws.com/tracings/S11_age4_trial1.png","2","",""
"","5797","image-button-response","11","null","111709","68895b4cc3548521ab78eeca","68897164307ae368e63ccf54","56e225c2ec0fdd000641e72d","2","S81_age8_trial2.png","false","false","https://kisumu-drawings.s3-us-west-1.amazonaws.com/tracings/S81_age8_trial2.png","5","",""
"","4782","image-button-response","12","null","117002","68895b4cc3548521ab78eeca","68897164307ae368e63ccf54","56e225c2ec0fdd000641e72d","3","S42_age6_trial3.png","false","false","https://kisumu-drawings.s3-us-west-1.amazonaws.com/tracings/S42_age6_trial3.png","4","",""
"","7360","image-button-response","13","null","124875","68895b4cc3548521ab78eeca","68897164307ae368e63ccf54","56e225c2ec0fdd000641e72d","2","S61_age7_trial2.png","false","false","https://kisumu-drawings.s3-us-west-1.amazonaws.com/tracings/S61_age7_trial2.png","4","",""
"","5162","image-button-response","14","null","130556","68895b4cc3548521ab78eeca","68897164307ae368e63ccf54","56e225c2ec0fdd000641e72d","1","S81_age8_trial1.png","false","false","https://kisumu-drawings.s3-us-west-1.amazonaws.com/tracings/S81_age8_trial1.png","5","",""
"","5367","image-button-response","15","null","136438","68895b4cc3548521ab78eeca","68897164307ae368e63ccf54","56e225c2ec0fdd000641e72d","3","S62_age7_trial3.png","false","false","https://kisumu-drawings.s3-us-west-1.amazonaws.com/tracings/S62_age7_trial3.png","4","",""
"","4415","image-button-response","16","null","141372","68895b4cc3548521ab78eeca","68897164307ae368e63ccf54","56e225c2ec0fdd000641e72d","1","S102_age9_trial1.png","false","false","https://kisumu-drawings.s3-us-west-1.amazonaws.com/tracings/S102_age9_trial1.png","4","",""
"","6760","image-button-response","17","null","148651","68895b4cc3548521ab78eeca","68897164307ae368e63ccf54","56e225c2ec0fdd000641e72d","3","S22_age5_trial3.png","false","false","https://kisumu-drawings.s3-us-west-1.amazonaws.com/tracings/S22_age5_trial3.png","4","",""
"","5157","image-button-response","18","null","154315","68895b4cc3548521ab78eeca","68897164307ae368e63ccf54","56e225c2ec0fdd000641e72d","5","S61_age7_trial5.png","false","false","https://kisumu-drawings.s3-us-west-1.amazonaws.com/tracings/S61_age7_trial5.png","5","",""
"","4255","image-button-response","19","null","159080","68895b4cc3548521ab78eeca","68897164307ae368e63ccf54","56e225c2ec0fdd000641e72d","5","S42_age6_trial5.png","false","false","https://kisumu-drawings.s3-us-west-1.amazonaws.com/tracings/S42_age6_trial5.png","3","",""
"","4864","image-button-response","20","null","164454","68895b4cc3548521ab78eeca","68897164307ae368e63ccf54","56e225c2ec0fdd000641e72d","2","S41_age6_trial2.png","false","false","https://kisumu-drawings.s3-us-west-1.amazonaws.com/tracings/S41_age6_trial2.png","4","",""
"","5398","image-button-response","21","null","170368","68895b4cc3548521ab78eeca","68897164307ae368e63ccf54","56e225c2ec0fdd000641e72d","2","S10_age4_trial2.png","false","false","https://kisumu-drawings.s3-us-west-1.amazonaws.com/tracings/S10_age4_trial2.png","3","",""
"","5717","image-button-response","22","null","176595","68895b4cc3548521ab78eeca","68897164307ae368e63ccf54","56e225c2ec0fdd000641e72d","4","S42_age6_trial4.png","false","false","https://kisumu-drawings.s3-us-west-1.amazonaws.com/tracings/S42_age6_trial4.png","2","",""
"","3377","image-button-response","23","null","180480","68895b4cc3548521ab78eeca","68897164307ae368e63ccf54","56e225c2ec0fdd000641e72d","3","S21_age5_trial3.png","false","false","https://kisumu-drawings.s3-us-west-1.amazonaws.com/tracings/S21_age5_trial3.png","3","",""
"","4540","image-button-response","24","null","185533","68895b4cc3548521ab78eeca","68897164307ae368e63ccf54","56e225c2ec0fdd000641e72d","2","S11_age4_trial2.png","false","false","https://kisumu-drawings.s3-us-west-1.amazonaws.com/tracings/S11_age4_trial2.png","1","",""
"","5074","image-button-response","25","null","191115","68895b4cc3548521ab78eeca","68897164307ae368e63ccf54","56e225c2ec0fdd000641e72d","1","S42_age6_trial1.png","false","false","https://kisumu-drawings.s3-us-west-1.amazonaws.com/tracings/S42_age6_trial1.png","3","",""
"","4507","image-button-response","26","null","196126","68895b4cc3548521ab78eeca","68897164307ae368e63ccf54","56e225c2ec0fdd000641e72d","3","S61_age7_trial3.png","false","false","https://kisumu-drawings.s3-us-west-1.amazonaws.com/tracings/S61_age7_trial3.png","5","",""
"","4864","image-button-response","27","null","201499","68895b4cc3548521ab78eeca","68897164307ae368e63ccf54","56e225c2ec0fdd000641e72d","1","S61_age7_trial1.png","false","false","https://kisumu-drawings.s3-us-west-1.amazonaws.com/tracings/S61_age7_trial1.png","5","",""
"","4237","image-button-response","28","null","206248","68895b4cc3548521ab78eeca","68897164307ae368e63ccf54","56e225c2ec0fdd000641e72d","5","S41_age6_trial5.png","false","false","https://kisumu-drawings.s3-us-west-1.amazonaws.com/tracings/S41_age6_trial5.png","3","",""
"","4927","image-button-response","29","null","211680","68895b4cc3548521ab78eeca","68897164307ae368e63ccf54","56e225c2ec0fdd000641e72d","1","S101_age9_trial1.png","false","false","https://kisumu-drawings.s3-us-west-1.amazonaws.com/tracings/S101_age9_trial1.png","5","",""
"","7530","image-button-response","30","null","219723","68895b4cc3548521ab78eeca","68897164307ae368e63ccf54","56e225c2ec0fdd000641e72d","4","S61_age7_trial4.png","false","false","https://kisumu-drawings.s3-us-west-1.amazonaws.com/tracings/S61_age7_trial4.png","5","",""
"","5928","image-button-response","31","null","226161","68895b4cc3548521ab78eeca","68897164307ae368e63ccf54","56e225c2ec0fdd000641e72d","5","S101_age9_trial5.png","false","false","https://kisumu-drawings.s3-us-west-1.amazonaws.com/tracings/S101_age9_trial5.png","5","",""
"","6499","image-button-response","32","null","233178","68895b4cc3548521ab78eeca","68897164307ae368e63ccf54","56e225c2ec0fdd000641e72d","5","S62_age7_trial5.png","false","false","https://kisumu-drawings.s3-us-west-1.amazonaws.com/tracings/S62_age7_trial5.png","4","",""
"","4038","image-button-response","33","null","237724","68895b4cc3548521ab78eeca","68897164307ae368e63ccf54","56e225c2ec0fdd000641e72d","3","S11_age4_trial3.png","false","false","https://kisumu-drawings.s3-us-west-1.amazonaws.com/tracings/S11_age4_trial3.png","1","",""
"","4356","image-button-response","34","null","242583","68895b4cc3548521ab78eeca","68897164307ae368e63ccf54","56e225c2ec0fdd000641e72d","4","S62_age7_trial4.png","false","false","https://kisumu-drawings.s3-us-west-1.amazonaws.com/tracings/S62_age7_trial4.png","3","",""
"","5245","image-button-response","35","null","248343","68895b4cc3548521ab78eeca","68897164307ae368e63ccf54","56e225c2ec0fdd000641e72d","5","S21_age5_trial5.png","false","false","https://kisumu-drawings.s3-us-west-1.amazonaws.com/tracings/S21_age5_trial5.png","4","",""
"","6296","image-button-response","36","null","255158","68895b4cc3548521ab78eeca","68897164307ae368e63ccf54","56e225c2ec0fdd000641e72d","2","S21_age5_trial2.png","false","false","https://kisumu-drawings.s3-us-west-1.amazonaws.com/tracings/S21_age5_trial2.png","4","",""
"","5753","image-button-response","37","null","261424","68895b4cc3548521ab78eeca","68897164307ae368e63ccf54","56e225c2ec0fdd000641e72d","4","S101_age9_trial4.png","false","false","https://kisumu-drawings.s3-us-west-1.amazonaws.com/tracings/S101_age9_trial4.png","5","",""
"","5647","image-button-response","38","null","267590","68895b4cc3548521ab78eeca","68897164307ae368e63ccf54","56e225c2ec0fdd000641e72d","5","S10_age4_trial5.png","false","false","https://kisumu-drawings.s3-us-west-1.amazonaws.com/tracings/S10_age4_trial5.png","2","",""
"","6379","image-button-response","39","null","274472","68895b4cc3548521ab78eeca","68897164307ae368e63ccf54","56e225c2ec0fdd000641e72d","3","S81_age8_trial3.png","false","false","https://kisumu-drawings.s3-us-west-1.amazonaws.com/tracings/S81_age8_trial3.png","4","",""
"","6501","image-button-response","40","null","281490","68895b4cc3548521ab78eeca","68897164307ae368e63ccf54","56e225c2ec0fdd000641e72d","2","S22_age5_trial2.png","false","false","https://kisumu-drawings.s3-us-west-1.amazonaws.com/tracings/S22_age5_trial2.png","4","",""
"","5382","image-button-response","41","null","287388","68895b4cc3548521ab78eeca","68897164307ae368e63ccf54","56e225c2ec0fdd000641e72d","2","S42_age6_trial2.png","false","false","https://kisumu-drawings.s3-us-west-1.amazonaws.com/tracings/S42_age6_trial2.png","3","",""
"","4512","image-button-response","42","null","292404","68895b4cc3548521ab78eeca","68897164307ae368e63ccf54","56e225c2ec0fdd000641e72d","4","S81_age8_trial4.png","false","false","https://kisumu-drawings.s3-us-west-1.amazonaws.com/tracings/S81_age8_trial4.png","4","",""
"","9710","image-button-response","43","null","302635","68895b4cc3548521ab78eeca","68897164307ae368e63ccf54","56e225c2ec0fdd000641e72d","1","S10_age4_trial1.png","false","false","https://kisumu-drawings.s3-us-west-1.amazonaws.com/tracings/S10_age4_trial1.png","4","",""
"","5571","image-button-response","44","null","308718","68895b4cc3548521ab78eeca","68897164307ae368e63ccf54","56e225c2ec0fdd000641e72d","4","S11_age4_trial4.png","false","false","https://kisumu-drawings.s3-us-west-1.amazonaws.com/tracings/S11_age4_trial4.png","1","",""
"","3570","image-button-response","45","null","312795","68895b4cc3548521ab78eeca","68897164307ae368e63ccf54","56e225c2ec0fdd000641e72d","4","S100_age8_trial4.png","false","false","https://kisumu-drawings.s3-us-west-1.amazonaws.com/tracings/S100_age8_trial4.png","3","",""
"","4623","image-button-response","46","null","317928","68895b4cc3548521ab78eeca","68897164307ae368e63ccf54","56e225c2ec0fdd000641e72d","2","S102_age9_trial2.png","false","false","https://kisumu-drawings.s3-us-west-1.amazonaws.com/tracings/S102_age9_trial2.png","4","",""
"","6467","image-button-response","47","null","324904","68895b4cc3548521ab78eeca","68897164307ae368e63ccf54","56e225c2ec0fdd000641e72d","3","S10_age4_trial3.png","false","false","https://kisumu-drawings.s3-us-west-1.amazonaws.com/tracings/S10_age4_trial3.png","2","",""
"","4454","image-button-response","48","null","329872","68895b4cc3548521ab78eeca","68897164307ae368e63ccf54","56e225c2ec0fdd000641e72d","4","S41_age6_trial4.png","false","false","https://kisumu-drawings.s3-us-west-1.amazonaws.com/tracings/S41_age6_trial4.png","3","",""
"","5215","image-button-response","49","null","335599","68895b4cc3548521ab78eeca","68897164307ae368e63ccf54","56e225c2ec0fdd000641e72d","5","S81_age8_trial5.png","false","false","https://kisumu-drawings.s3-us-west-1.amazonaws.com/tracings/S81_age8_trial5.png","4","",""
"","4918","image-button-response","50","null","341035","68895b4cc3548521ab78eeca","68897164307ae368e63ccf54","56e225c2ec0fdd000641e72d","2","S100_age8_trial2.png","false","false","https://kisumu-drawings.s3-us-west-1.amazonaws.com/tracings/S100_age8_trial2.png","4","",""
"","3632","image-button-response","51","null","345186","68895b4cc3548521ab78eeca","68897164307ae368e63ccf54","56e225c2ec0fdd000641e72d","2","S62_age7_trial2.png","false","false","https://kisumu-drawings.s3-us-west-1.amazonaws.com/tracings/S62_age7_trial2.png","5","",""
"","6922","image-button-response","52","null","352612","68895b4cc3548521ab78eeca","68897164307ae368e63ccf54","56e225c2ec0fdd000641e72d","4","S102_age9_trial4.png","false","false","https://kisumu-drawings.s3-us-west-1.amazonaws.com/tracings/S102_age9_trial4.png","4","",""
"","13653","image-button-response","53","null","366769","68895b4cc3548521ab78eeca","68897164307ae368e63ccf54","56e225c2ec0fdd000641e72d","5","S22_age5_trial5.png","false","false","https://kisumu-drawings.s3-us-west-1.amazonaws.com/tracings/S22_age5_trial5.png","4","",""
"","10466","image-button-response","54","null","377739","68895b4cc3548521ab78eeca","68897164307ae368e63ccf54","56e225c2ec0fdd000641e72d","4","S10_age4_trial4.png","false","false","https://kisumu-drawings.s3-us-west-1.amazonaws.com/tracings/S10_age4_trial4.png","2","",""
"","4991","image-button-response","55","null","383236","68895b4cc3548521ab78eeca","68897164307ae368e63ccf54","56e225c2ec0fdd000641e72d","1","S22_age5_trial1.png","false","false","https://kisumu-drawings.s3-us-west-1.amazonaws.com/tracings/S22_age5_trial1.png","3","",""
"","8673","image-button-response","56","null","392421","68895b4cc3548521ab78eeca","68897164307ae368e63ccf54","56e225c2ec0fdd000641e72d","2","S101_age9_trial2.png","false","false","https://kisumu-drawings.s3-us-west-1.amazonaws.com/tracings/S101_age9_trial2.png","5","",""
"","6232","image-button-response","57","null","399172","68895b4cc3548521ab78eeca","68897164307ae368e63ccf54","56e225c2ec0fdd000641e72d","3","S100_age8_trial3.png","false","false","https://kisumu-drawings.s3-us-west-1.amazonaws.com/tracings/S100_age8_trial3.png","3","",""
"","10730","image-button-response","58","null","410420","68895b4cc3548521ab78eeca","68897164307ae368e63ccf54","56e225c2ec0fdd000641e72d","5","S102_age9_trial5.png","false","false","https://kisumu-drawings.s3-us-west-1.amazonaws.com/tracings/S102_age9_trial5.png","4","",""
"","6227","image-button-response","59","null","417153","68895b4cc3548521ab78eeca","68897164307ae368e63ccf54","56e225c2ec0fdd000641e72d","1","S21_age5_trial1.png","false","false","https://kisumu-drawings.s3-us-west-1.amazonaws.com/tracings/S21_age5_trial1.png","3","",""
"","5562","image-button-response","60","null","423219","68895b4cc3548521ab78eeca","68897164307ae368e63ccf54","56e225c2ec0fdd000641e72d","3","S41_age6_trial3.png","false","false","https://kisumu-drawings.s3-us-west-1.amazonaws.com/tracings/S41_age6_trial3.png","3","",""
"","5161","image-button-response","61","null","428892","68895b4cc3548521ab78eeca","68897164307ae368e63ccf54","56e225c2ec0fdd000641e72d","3","S102_age9_trial3.png","false","false","https://kisumu-drawings.s3-us-west-1.amazonaws.com/tracings/S102_age9_trial3.png","4","",""
