"view_history","rt","trial_type","trial_index","plugin_version","time_elapsed","study_id","session_id","participant_id","tracing_type","tracing_id","catch_trial","prep_trial","stimulus","response","sketcher_category","response_category"
"[{""page_index"":0,""viewing_time"":5857},{""page_index"":1,""viewing_time"":6724},{""page_index"":2,""viewing_time"":6149},{""page_index"":3,""viewing_time"":4744},{""page_index"":4,""viewing_time"":4200}]","27674","instructions","0","null","27691","68895b4cc3548521ab78eeca","688a4c00a63ab182c704e92a","573753f212d1d80007355ff6","","","","","","","",""
"","4501","image-button-response","1","null","33212","68895b4cc3548521ab78eeca","688a4c00a63ab182c704e92a","573753f212d1d80007355ff6","3","S89_age8_trial3.png","false","false","https://kisumu-drawings.s3-us-west-1.amazonaws.com/tracings/S89_age8_trial3.png","4","",""
"","2758","image-button-response","2","null","36484","68895b4cc3548521ab78eeca","688a4c00a63ab182c704e92a","573753f212d1d80007355ff6","2","S29_age5_trial2.png","false","false","https://kisumu-drawings.s3-us-west-1.amazonaws.com/tracings/S29_age5_trial2.png","3","",""
"","3115","image-button-response","3","null","40114","68895b4cc3548521ab78eeca","688a4c00a63ab182c704e92a","573753f212d1d80007355ff6","1","S49_age6_trial1.png","false","false","https://kisumu-drawings.s3-us-west-1.amazonaws.com/tracings/S49_age6_trial1.png","5","",""
"","3131","image-button-response","4","null","43756","68895b4cc3548521ab78eeca","688a4c00a63ab182c704e92a","573753f212d1d80007355ff6","5","S19_age4_trial5.png","false","false","https://kisumu-drawings.s3-us-west-1.amazonaws.com/tracings/S19_age4_trial5.png","3","",""
"","5921","image-button-response","5","null","50191","68895b4cc3548521ab78eeca","688a4c00a63ab182c704e92a","573753f212d1d80007355ff6","3","S18_age4_trial3.png","false","false","https://kisumu-drawings.s3-us-west-1.amazonaws.com/tracings/S18_age4_trial3.png","2","",""
"","4720","image-button-response","6","null","55423","68895b4cc3548521ab78eeca","688a4c00a63ab182c704e92a","573753f212d1d80007355ff6","4","S88_age8_trial4.png","false","false","https://kisumu-drawings.s3-us-west-1.amazonaws.com/tracings/S88_age8_trial4.png","5","",""
"","3440","image-button-response","7","null","59378","68895b4cc3548521ab78eeca","688a4c00a63ab182c704e92a","573753f212d1d80007355ff6","4","S17_age4_trial4.png","false","false","https://kisumu-drawings.s3-us-west-1.amazonaws.com/tracings/S17_age4_trial4.png","5","",""
"","5842","image-button-response","8","null","65737","68895b4cc3548521ab78eeca","688a4c00a63ab182c704e92a","573753f212d1d80007355ff6","4","S29_age5_trial4.png","false","false","https://kisumu-drawings.s3-us-west-1.amazonaws.com/tracings/S29_age5_trial4.png","2","",""
"","4302","image-button-response","9","null","70552","68895b4cc3548521ab78eeca","688a4c00a63ab182c704e92a","573753f212d1d80007355ff6","3","S109_age9_trial3.png","false","false","https://kisumu-drawings.s3-us-west-1.amazonaws.com/tracings/S109_age9_trial3.png","5","",""
"","5786","image-button-response","10","null","76852","68895b4cc3548521ab78eeca","688a4c00a63ab182c704e92a","573753f212d1d80007355ff6","1","S48_age6_trial1.png","false","false","https://kisumu-drawings.s3-us-west-1.amazonaws.com/tracings/S48_age6_trial1.png","2","",""
"","3117","image-button-response","11","null","80479","68895b4cc3548521ab78eeca","688a4c00a63ab182c704e92a","573753f212d1d80007355ff6","2","S109_age9_trial2.png","false","false","https://kisumu-drawings.s3-us-west-1.amazonaws.com/tracings/S109_age9_trial2.png","5","",""
"","3876","image-button-response","12","null","84868","68895b4cc3548521ab78eeca","688a4c00a63ab182c704e92a","573753f212d1d80007355ff6","2","S88_age8_trial2.png","false","false","https://kisumu-drawings.s3-us-west-1.amazonaws.com/tracings/S88_age8_trial2.png","5","",""
"","3453","image-button-response","13","null","88833","68895b4cc3548521ab78eeca","688a4c00a63ab182c704e92a","573753f212d1d80007355ff6","5","S109_age9_trial5.png","false","false","https://kisumu-drawings.s3-us-west-1.amazonaws.com/tracings/S109_age9_trial5.png","5","",""
"","3992","image-button-response","14","null","93339","68895b4cc3548521ab78eeca","688a4c00a63ab182c704e92a","573753f212d1d80007355ff6","1","S29_age5_trial1.png","false","false","https://kisumu-drawings.s3-us-west-1.amazonaws.com/tracings/S29_age5_trial1.png","3","",""
"","3523","image-button-response","15","null","97378","68895b4cc3548521ab78eeca","688a4c00a63ab182c704e92a","573753f212d1d80007355ff6","5","S89_age8_trial5.png","false","false","https://kisumu-drawings.s3-us-west-1.amazonaws.com/tracings/S89_age8_trial5.png","4","",""
"","4781","image-button-response","16","null","102672","68895b4cc3548521ab78eeca","688a4c00a63ab182c704e92a","573753f212d1d80007355ff6","5","S30_age5_trial5.png","false","false","https://kisumu-drawings.s3-us-west-1.amazonaws.com/tracings/S30_age5_trial5.png","3","",""
"","3982","image-button-response","17","null","107169","68895b4cc3548521ab78eeca","688a4c00a63ab182c704e92a","573753f212d1d80007355ff6","3","S30_age5_trial3.png","false","false","https://kisumu-drawings.s3-us-west-1.amazonaws.com/tracings/S30_age5_trial3.png","2","",""
"","2895","image-button-response","18","null","110579","68895b4cc3548521ab78eeca","688a4c00a63ab182c704e92a","573753f212d1d80007355ff6","2","S108_age9_trial2.png","false","false","https://kisumu-drawings.s3-us-west-1.amazonaws.com/tracings/S108_age9_trial2.png","4","",""
"","4155","image-button-response","19","null","115251","68895b4cc3548521ab78eeca","688a4c00a63ab182c704e92a","573753f212d1d80007355ff6","5","S108_age9_trial5.png","false","false","https://kisumu-drawings.s3-us-west-1.amazonaws.com/tracings/S108_age9_trial5.png","5","",""
"","7440","image-button-response","20","null","123205","68895b4cc3548521ab78eeca","688a4c00a63ab182c704e92a","573753f212d1d80007355ff6","3","S69_age7_trial3.png","false","false","https://kisumu-drawings.s3-us-west-1.amazonaws.com/tracings/S69_age7_trial3.png","4","",""
"","3394","image-button-response","21","null","127111","68895b4cc3548521ab78eeca","688a4c00a63ab182c704e92a","573753f212d1d80007355ff6","2","S70_age7_trial2.png","false","false","https://kisumu-drawings.s3-us-west-1.amazonaws.com/tracings/S70_age7_trial2.png","5","",""
"","2852","image-button-response","22","null","130478","68895b4cc3548521ab78eeca","688a4c00a63ab182c704e92a","573753f212d1d80007355ff6","3","S49_age6_trial3.png","false","false","https://kisumu-drawings.s3-us-west-1.amazonaws.com/tracings/S49_age6_trial3.png","4","",""
"","3674","image-button-response","23","null","134667","68895b4cc3548521ab78eeca","688a4c00a63ab182c704e92a","573753f212d1d80007355ff6","5","S50_age6_trial5.png","false","false","https://kisumu-drawings.s3-us-west-1.amazonaws.com/tracings/S50_age6_trial5.png","5","",""
"","3353","image-button-response","24","null","138534","68895b4cc3548521ab78eeca","688a4c00a63ab182c704e92a","573753f212d1d80007355ff6","3","S110_age9_trial3.png","false","false","https://kisumu-drawings.s3-us-west-1.amazonaws.com/tracings/S110_age9_trial3.png","4","",""
"","4266","image-button-response","25","null","143312","68895b4cc3548521ab78eeca","688a4c00a63ab182c704e92a","573753f212d1d80007355ff6","5","S18_age4_trial5.png","false","false","https://kisumu-drawings.s3-us-west-1.amazonaws.com/tracings/S18_age4_trial5.png","2","",""
"","3481","image-button-response","26","null","147306","68895b4cc3548521ab78eeca","688a4c00a63ab182c704e92a","573753f212d1d80007355ff6","4","S109_age9_trial4.png","false","false","https://kisumu-drawings.s3-us-west-1.amazonaws.com/tracings/S109_age9_trial4.png","5","",""
"","2194","image-button-response","27","null","150013","68895b4cc3548521ab78eeca","688a4c00a63ab182c704e92a","573753f212d1d80007355ff6","1","S88_age8_trial1.png","false","false","https://kisumu-drawings.s3-us-west-1.amazonaws.com/tracings/S88_age8_trial1.png","5","",""
"","4101","image-button-response","28","null","154629","68895b4cc3548521ab78eeca","688a4c00a63ab182c704e92a","573753f212d1d80007355ff6","4","S50_age6_trial4.png","false","false","https://kisumu-drawings.s3-us-west-1.amazonaws.com/tracings/S50_age6_trial4.png","3","",""
"","3344","image-button-response","29","null","158488","68895b4cc3548521ab78eeca","688a4c00a63ab182c704e92a","573753f212d1d80007355ff6","5","S29_age5_trial5.png","false","false","https://kisumu-drawings.s3-us-west-1.amazonaws.com/tracings/S29_age5_trial5.png","2","",""
"","4926","image-button-response","30","null","163927","68895b4cc3548521ab78eeca","688a4c00a63ab182c704e92a","573753f212d1d80007355ff6","4","S49_age6_trial4.png","false","false","https://kisumu-drawings.s3-us-west-1.amazonaws.com/tracings/S49_age6_trial4.png","4","",""
"","2881","image-button-response","31","null","167324","68895b4cc3548521ab78eeca","688a4c00a63ab182c704e92a","573753f212d1d80007355ff6","","","true","false","stimuli/catch_trials/catch_trial.png","0","","1"
"","4442","image-button-response","32","null","172277","68895b4cc3548521ab78eeca","688a4c00a63ab182c704e92a","573753f212d1d80007355ff6","1","S17_age4_trial1.png","false","false","https://kisumu-drawings.s3-us-west-1.amazonaws.com/tracings/S17_age4_trial1.png","5","",""
"","3293","image-button-response","33","null","176078","68895b4cc3548521ab78eeca","688a4c00a63ab182c704e92a","573753f212d1d80007355ff6","1","S69_age7_trial1.png","false","false","https://kisumu-drawings.s3-us-west-1.amazonaws.com/tracings/S69_age7_trial1.png","5","",""
"","2935","image-button-response","34","null","179525","68895b4cc3548521ab78eeca","688a4c00a63ab182c704e92a","573753f212d1d80007355ff6","5","S88_age8_trial5.png","false","false","https://kisumu-drawings.s3-us-west-1.amazonaws.com/tracings/S88_age8_trial5.png","5","",""
"","3595","image-button-response","35","null","183636","68895b4cc3548521ab78eeca","688a4c00a63ab182c704e92a","573753f212d1d80007355ff6","4","S89_age8_trial4.png","false","false","https://kisumu-drawings.s3-us-west-1.amazonaws.com/tracings/S89_age8_trial4.png","4","",""
"","2401","image-button-response","36","null","186550","68895b4cc3548521ab78eeca","688a4c00a63ab182c704e92a","573753f212d1d80007355ff6","1","S28_age5_trial1.png","false","false","https://kisumu-drawings.s3-us-west-1.amazonaws.com/tracings/S28_age5_trial1.png","5","",""
"","2599","image-button-response","37","null","189663","68895b4cc3548521ab78eeca","688a4c00a63ab182c704e92a","573753f212d1d80007355ff6","1","S70_age7_trial1.png","false","false","https://kisumu-drawings.s3-us-west-1.amazonaws.com/tracings/S70_age7_trial1.png","5","",""
"","3778","image-button-response","38","null","193955","68895b4cc3548521ab78eeca","688a4c00a63ab182c704e92a","573753f212d1d80007355ff6","2","S69_age7_trial2.png","false","false","https://kisumu-drawings.s3-us-west-1.amazonaws.com/tracings/S69_age7_trial2.png","5","",""
"","5501","image-button-response","39","null","199969","68895b4cc3548521ab78eeca","688a4c00a63ab182c704e92a","573753f212d1d80007355ff6","2","S19_age4_trial2.png","false","false","https://kisumu-drawings.s3-us-west-1.amazonaws.com/tracings/S19_age4_trial2.png","2","",""
"","4502","image-button-response","40","null","204983","68895b4cc3548521ab78eeca","688a4c00a63ab182c704e92a","573753f212d1d80007355ff6","3","S70_age7_trial3.png","false","false","https://kisumu-drawings.s3-us-west-1.amazonaws.com/tracings/S70_age7_trial3.png","5","",""
"","2444","image-button-response","41","null","207941","68895b4cc3548521ab78eeca","688a4c00a63ab182c704e92a","573753f212d1d80007355ff6","1","S110_age9_trial1.png","false","false","https://kisumu-drawings.s3-us-west-1.amazonaws.com/tracings/S110_age9_trial1.png","5","",""
"","1748","image-button-response","42","null","210201","68895b4cc3548521ab78eeca","688a4c00a63ab182c704e92a","573753f212d1d80007355ff6","1","S87_age8_trial1.png","false","false","https://kisumu-drawings.s3-us-west-1.amazonaws.com/tracings/S87_age8_trial1.png","5","",""
"","1789","image-button-response","43","null","212503","68895b4cc3548521ab78eeca","688a4c00a63ab182c704e92a","573753f212d1d80007355ff6","1","S109_age9_trial1.png","false","false","https://kisumu-drawings.s3-us-west-1.amazonaws.com/tracings/S109_age9_trial1.png","5","",""
"","3314","image-button-response","44","null","216328","68895b4cc3548521ab78eeca","688a4c00a63ab182c704e92a","573753f212d1d80007355ff6","4","S30_age5_trial4.png","false","false","https://kisumu-drawings.s3-us-west-1.amazonaws.com/tracings/S30_age5_trial4.png","3","",""
"","6441","image-button-response","45","null","223285","68895b4cc3548521ab78eeca","688a4c00a63ab182c704e92a","573753f212d1d80007355ff6","5","S49_age6_trial5.png","false","false","https://kisumu-drawings.s3-us-west-1.amazonaws.com/tracings/S49_age6_trial5.png","4","",""
"","3098","image-button-response","46","null","226898","68895b4cc3548521ab78eeca","688a4c00a63ab182c704e92a","573753f212d1d80007355ff6","4","S70_age7_trial4.png","false","false","https://kisumu-drawings.s3-us-west-1.amazonaws.com/tracings/S70_age7_trial4.png","4","",""
"","2424","image-button-response","47","null","229836","68895b4cc3548521ab78eeca","688a4c00a63ab182c704e92a","573753f212d1d80007355ff6","2","S50_age6_trial2.png","false","false","https://kisumu-drawings.s3-us-west-1.amazonaws.com/tracings/S50_age6_trial2.png","4","",""
"","3260","image-button-response","48","null","233610","68895b4cc3548521ab78eeca","688a4c00a63ab182c704e92a","573753f212d1d80007355ff6","1","S18_age4_trial1.png","false","false","https://kisumu-drawings.s3-us-west-1.amazonaws.com/tracings/S18_age4_trial1.png","3","",""
"","3838","image-button-response","49","null","237958","68895b4cc3548521ab78eeca","688a4c00a63ab182c704e92a","573753f212d1d80007355ff6","5","S70_age7_trial5.png","false","false","https://kisumu-drawings.s3-us-west-1.amazonaws.com/tracings/S70_age7_trial5.png","5","",""
"","3199","image-button-response","50","null","241670","68895b4cc3548521ab78eeca","688a4c00a63ab182c704e92a","573753f212d1d80007355ff6","2","S89_age8_trial2.png","false","false","https://kisumu-drawings.s3-us-west-1.amazonaws.com/tracings/S89_age8_trial2.png","4","",""
"","2862","image-button-response","51","null","245047","68895b4cc3548521ab78eeca","688a4c00a63ab182c704e92a","573753f212d1d80007355ff6","3","S17_age4_trial3.png","false","false","https://kisumu-drawings.s3-us-west-1.amazonaws.com/tracings/S17_age4_trial3.png","4","",""
"","3834","image-button-response","52","null","249393","68895b4cc3548521ab78eeca","688a4c00a63ab182c704e92a","573753f212d1d80007355ff6","3","S29_age5_trial3.png","false","false","https://kisumu-drawings.s3-us-west-1.amazonaws.com/tracings/S29_age5_trial3.png","2","",""
"","3481","image-button-response","53","null","253386","68895b4cc3548521ab78eeca","688a4c00a63ab182c704e92a","573753f212d1d80007355ff6","4","S110_age9_trial4.png","false","false","https://kisumu-drawings.s3-us-west-1.amazonaws.com/tracings/S110_age9_trial4.png","3","",""
"","2770","image-button-response","54","null","256671","68895b4cc3548521ab78eeca","688a4c00a63ab182c704e92a","573753f212d1d80007355ff6","2","S30_age5_trial2.png","false","false","https://kisumu-drawings.s3-us-west-1.amazonaws.com/tracings/S30_age5_trial2.png","3","",""
"","2960","image-button-response","55","null","260143","68895b4cc3548521ab78eeca","688a4c00a63ab182c704e92a","573753f212d1d80007355ff6","3","S88_age8_trial3.png","false","false","https://kisumu-drawings.s3-us-west-1.amazonaws.com/tracings/S88_age8_trial3.png","4","",""
"","3643","image-button-response","56","null","264299","68895b4cc3548521ab78eeca","688a4c00a63ab182c704e92a","573753f212d1d80007355ff6","2","S18_age4_trial2.png","false","false","https://kisumu-drawings.s3-us-west-1.amazonaws.com/tracings/S18_age4_trial2.png","2","",""
"","3458","image-button-response","57","null","268273","68895b4cc3548521ab78eeca","688a4c00a63ab182c704e92a","573753f212d1d80007355ff6","2","S51_age6_trial2.png","false","false","https://kisumu-drawings.s3-us-west-1.amazonaws.com/tracings/S51_age6_trial2.png","4","",""
"","2633","image-button-response","58","null","271418","68895b4cc3548521ab78eeca","688a4c00a63ab182c704e92a","573753f212d1d80007355ff6","4","S18_age4_trial4.png","false","false","https://kisumu-drawings.s3-us-west-1.amazonaws.com/tracings/S18_age4_trial4.png","3","",""
"","3335","image-button-response","59","null","275266","68895b4cc3548521ab78eeca","688a4c00a63ab182c704e92a","573753f212d1d80007355ff6","5","S69_age7_trial5.png","false","false","https://kisumu-drawings.s3-us-west-1.amazonaws.com/tracings/S69_age7_trial5.png","5","",""
"","3111","image-button-response","60","null","278889","68895b4cc3548521ab78eeca","688a4c00a63ab182c704e92a","573753f212d1d80007355ff6","3","S50_age6_trial3.png","false","false","https://kisumu-drawings.s3-us-west-1.amazonaws.com/tracings/S50_age6_trial3.png","5","",""
"","2786","image-button-response","61","null","282187","68895b4cc3548521ab78eeca","688a4c00a63ab182c704e92a","573753f212d1d80007355ff6","4","S69_age7_trial4.png","false","false","https://kisumu-drawings.s3-us-west-1.amazonaws.com/tracings/S69_age7_trial4.png","5","",""
