"view_history","rt","trial_type","trial_index","plugin_version","time_elapsed","study_id","session_id","participant_id","tracing_type","tracing_id","catch_trial","prep_trial","stimulus","response","sketcher_category","response_category"
"[{""page_index"":0,""viewing_time"":32901},{""page_index"":1,""viewing_time"":11966},{""page_index"":2,""viewing_time"":10210},{""page_index"":3,""viewing_time"":6076},{""page_index"":4,""viewing_time"":18270}]","79423","instructions","0","null","79439","68895b4cc3548521ab78eeca","688a8e78f8314a59bc108389","5753046ba6deb50006d64b0f","","","","","","","",""
"","7327","image-button-response","1","null","87787","68895b4cc3548521ab78eeca","688a8e78f8314a59bc108389","5753046ba6deb50006d64b0f","1","S19_age4_trial1.png","false","false","https://kisumu-drawings.s3-us-west-1.amazonaws.com/tracings/S19_age4_trial1.png","2","",""
"","6818","image-button-response","2","null","95119","68895b4cc3548521ab78eeca","688a8e78f8314a59bc108389","5753046ba6deb50006d64b0f","4","S52_age6_trial4.png","false","false","https://kisumu-drawings.s3-us-west-1.amazonaws.com/tracings/S52_age6_trial4.png","4","",""
"","2666","image-button-response","3","null","98288","68895b4cc3548521ab78eeca","688a8e78f8314a59bc108389","5753046ba6deb50006d64b0f","5","S71_age7_trial5.png","false","false","https://kisumu-drawings.s3-us-west-1.amazonaws.com/tracings/S71_age7_trial5.png","5","",""
"","4205","image-button-response","4","null","102999","68895b4cc3548521ab78eeca","688a8e78f8314a59bc108389","5753046ba6deb50006d64b0f","3","S51_age6_trial3.png","false","false","https://kisumu-drawings.s3-us-west-1.amazonaws.com/tracings/S51_age6_trial3.png","5","",""
"","2737","image-button-response","5","null","106241","68895b4cc3548521ab78eeca","688a8e78f8314a59bc108389","5753046ba6deb50006d64b0f","4","S91_age8_trial4.png","false","false","https://kisumu-drawings.s3-us-west-1.amazonaws.com/tracings/S91_age8_trial4.png","5","",""
"","2173","image-button-response","6","null","108921","68895b4cc3548521ab78eeca","688a8e78f8314a59bc108389","5753046ba6deb50006d64b0f","1","S30_age5_trial1.png","false","false","https://kisumu-drawings.s3-us-west-1.amazonaws.com/tracings/S30_age5_trial1.png","5","",""
"","2149","image-button-response","7","null","111574","68895b4cc3548521ab78eeca","688a8e78f8314a59bc108389","5753046ba6deb50006d64b0f","2","S72_age7_trial2.png","false","false","https://kisumu-drawings.s3-us-west-1.amazonaws.com/tracings/S72_age7_trial2.png","5","",""
"","2143","image-button-response","8","null","114236","68895b4cc3548521ab78eeca","688a8e78f8314a59bc108389","5753046ba6deb50006d64b0f","3","S90_age8_trial3.png","false","false","https://kisumu-drawings.s3-us-west-1.amazonaws.com/tracings/S90_age8_trial3.png","5","",""
"","4561","image-button-response","9","null","119317","68895b4cc3548521ab78eeca","688a8e78f8314a59bc108389","5753046ba6deb50006d64b0f","2","S20_age4_trial2.png","false","false","https://kisumu-drawings.s3-us-west-1.amazonaws.com/tracings/S20_age4_trial2.png","1","",""
"","2945","image-button-response","10","null","122766","68895b4cc3548521ab78eeca","688a8e78f8314a59bc108389","5753046ba6deb50006d64b0f","4","S20_age4_trial4.png","false","false","https://kisumu-drawings.s3-us-west-1.amazonaws.com/tracings/S20_age4_trial4.png","1","",""
"","8454","image-button-response","11","null","131734","68895b4cc3548521ab78eeca","688a8e78f8314a59bc108389","5753046ba6deb50006d64b0f","","","true","false","stimuli/catch_trials/catch_trial.png","2","","3"
"","3340","image-button-response","12","null","135580","68895b4cc3548521ab78eeca","688a8e78f8314a59bc108389","5753046ba6deb50006d64b0f","3","S1_age4_trial3.png","false","false","https://kisumu-drawings.s3-us-west-1.amazonaws.com/tracings/S1_age4_trial3.png","4","",""
"","2632","image-button-response","13","null","138716","68895b4cc3548521ab78eeca","688a8e78f8314a59bc108389","5753046ba6deb50006d64b0f","5","S52_age6_trial5.png","false","false","https://kisumu-drawings.s3-us-west-1.amazonaws.com/tracings/S52_age6_trial5.png","5","",""
"","2451","image-button-response","14","null","141672","68895b4cc3548521ab78eeca","688a8e78f8314a59bc108389","5753046ba6deb50006d64b0f","2","S90_age8_trial2.png","false","false","https://kisumu-drawings.s3-us-west-1.amazonaws.com/tracings/S90_age8_trial2.png","5","",""
"","5456","image-button-response","15","null","147633","68895b4cc3548521ab78eeca","688a8e78f8314a59bc108389","5753046ba6deb50006d64b0f","5","S90_age8_trial5.png","false","false","https://kisumu-drawings.s3-us-west-1.amazonaws.com/tracings/S90_age8_trial5.png","5","",""
"","2277","image-button-response","16","null","150418","68895b4cc3548521ab78eeca","688a8e78f8314a59bc108389","5753046ba6deb50006d64b0f","2","S51_age6_trial2.png","false","false","https://kisumu-drawings.s3-us-west-1.amazonaws.com/tracings/S51_age6_trial2.png","5","",""
"","2463","image-button-response","17","null","153390","68895b4cc3548521ab78eeca","688a8e78f8314a59bc108389","5753046ba6deb50006d64b0f","2","S91_age8_trial2.png","false","false","https://kisumu-drawings.s3-us-west-1.amazonaws.com/tracings/S91_age8_trial2.png","5","",""
"","2190","image-button-response","18","null","156084","68895b4cc3548521ab78eeca","688a8e78f8314a59bc108389","5753046ba6deb50006d64b0f","4","S111_age9_trial4.png","false","false","https://kisumu-drawings.s3-us-west-1.amazonaws.com/tracings/S111_age9_trial4.png","5","",""
"","1948","image-button-response","19","null","158536","68895b4cc3548521ab78eeca","688a8e78f8314a59bc108389","5753046ba6deb50006d64b0f","3","S91_age8_trial3.png","false","false","https://kisumu-drawings.s3-us-west-1.amazonaws.com/tracings/S91_age8_trial3.png","5","",""
"","1965","image-button-response","20","null","161018","68895b4cc3548521ab78eeca","688a8e78f8314a59bc108389","5753046ba6deb50006d64b0f","1","S72_age7_trial1.png","false","false","https://kisumu-drawings.s3-us-west-1.amazonaws.com/tracings/S72_age7_trial1.png","5","",""
"","2116","image-button-response","21","null","163642","68895b4cc3548521ab78eeca","688a8e78f8314a59bc108389","5753046ba6deb50006d64b0f","5","S91_age8_trial5.png","false","false","https://kisumu-drawings.s3-us-west-1.amazonaws.com/tracings/S91_age8_trial5.png","5","",""
"","1938","image-button-response","22","null","166094","68895b4cc3548521ab78eeca","688a8e78f8314a59bc108389","5753046ba6deb50006d64b0f","2","S110_age9_trial2.png","false","false","https://kisumu-drawings.s3-us-west-1.amazonaws.com/tracings/S110_age9_trial2.png","5","",""
"","3847","image-button-response","23","null","170450","68895b4cc3548521ab78eeca","688a8e78f8314a59bc108389","5753046ba6deb50006d64b0f","2","S31_age5_trial2.png","false","false","https://kisumu-drawings.s3-us-west-1.amazonaws.com/tracings/S31_age5_trial2.png","4","",""
"","4521","image-button-response","24","null","175480","68895b4cc3548521ab78eeca","688a8e78f8314a59bc108389","5753046ba6deb50006d64b0f","4","S72_age7_trial4.png","false","false","https://kisumu-drawings.s3-us-west-1.amazonaws.com/tracings/S72_age7_trial4.png","4","",""
"","2755","image-button-response","25","null","178740","68895b4cc3548521ab78eeca","688a8e78f8314a59bc108389","5753046ba6deb50006d64b0f","4","S51_age6_trial4.png","false","false","https://kisumu-drawings.s3-us-west-1.amazonaws.com/tracings/S51_age6_trial4.png","5","",""
"","4091","image-button-response","26","null","183336","68895b4cc3548521ab78eeca","688a8e78f8314a59bc108389","5753046ba6deb50006d64b0f","5","S20_age4_trial5.png","false","false","https://kisumu-drawings.s3-us-west-1.amazonaws.com/tracings/S20_age4_trial5.png","2","",""
"","2335","image-button-response","27","null","186185","68895b4cc3548521ab78eeca","688a8e78f8314a59bc108389","5753046ba6deb50006d64b0f","1","S71_age7_trial1.png","false","false","https://kisumu-drawings.s3-us-west-1.amazonaws.com/tracings/S71_age7_trial1.png","5","",""
"","1889","image-button-response","28","null","188592","68895b4cc3548521ab78eeca","688a8e78f8314a59bc108389","5753046ba6deb50006d64b0f","2","S111_age9_trial2.png","false","false","https://kisumu-drawings.s3-us-west-1.amazonaws.com/tracings/S111_age9_trial2.png","5","",""
"","2466","image-button-response","29","null","191564","68895b4cc3548521ab78eeca","688a8e78f8314a59bc108389","5753046ba6deb50006d64b0f","5","S51_age6_trial5.png","false","false","https://kisumu-drawings.s3-us-west-1.amazonaws.com/tracings/S51_age6_trial5.png","4","",""
"","1933","image-button-response","30","null","194010","68895b4cc3548521ab78eeca","688a8e78f8314a59bc108389","5753046ba6deb50006d64b0f","3","S31_age5_trial3.png","false","false","https://kisumu-drawings.s3-us-west-1.amazonaws.com/tracings/S31_age5_trial3.png","4","",""
"","1984","image-button-response","31","null","196498","68895b4cc3548521ab78eeca","688a8e78f8314a59bc108389","5753046ba6deb50006d64b0f","1","S50_age6_trial1.png","false","false","https://kisumu-drawings.s3-us-west-1.amazonaws.com/tracings/S50_age6_trial1.png","5","",""
"","2122","image-button-response","32","null","199134","68895b4cc3548521ab78eeca","688a8e78f8314a59bc108389","5753046ba6deb50006d64b0f","4","S112_age9_trial4.png","false","false","https://kisumu-drawings.s3-us-west-1.amazonaws.com/tracings/S112_age9_trial4.png","5","",""
"","4578","image-button-response","33","null","204217","68895b4cc3548521ab78eeca","688a8e78f8314a59bc108389","5753046ba6deb50006d64b0f","1","S112_age9_trial1.png","false","false","https://kisumu-drawings.s3-us-west-1.amazonaws.com/tracings/S112_age9_trial1.png","4","",""
"","2024","image-button-response","34","null","206758","68895b4cc3548521ab78eeca","688a8e78f8314a59bc108389","5753046ba6deb50006d64b0f","3","S19_age4_trial3.png","false","false","https://kisumu-drawings.s3-us-west-1.amazonaws.com/tracings/S19_age4_trial3.png","4","",""
"","2003","image-button-response","35","null","209277","68895b4cc3548521ab78eeca","688a8e78f8314a59bc108389","5753046ba6deb50006d64b0f","5","S112_age9_trial5.png","false","false","https://kisumu-drawings.s3-us-west-1.amazonaws.com/tracings/S112_age9_trial5.png","5","",""
"","23110","image-button-response","36","null","232898","68895b4cc3548521ab78eeca","688a8e78f8314a59bc108389","5753046ba6deb50006d64b0f","5","S1_age4_trial5.png","false","false","https://kisumu-drawings.s3-us-west-1.amazonaws.com/tracings/S1_age4_trial5.png","3","",""
"","2169","image-button-response","37","null","235570","68895b4cc3548521ab78eeca","688a8e78f8314a59bc108389","5753046ba6deb50006d64b0f","1","S90_age8_trial1.png","false","false","https://kisumu-drawings.s3-us-west-1.amazonaws.com/tracings/S90_age8_trial1.png","5","",""
"","2918","image-button-response","38","null","239004","68895b4cc3548521ab78eeca","688a8e78f8314a59bc108389","5753046ba6deb50006d64b0f","2","S1_age4_trial2.png","false","false","https://kisumu-drawings.s3-us-west-1.amazonaws.com/tracings/S1_age4_trial2.png","5","",""
"","1743","image-button-response","39","null","241254","68895b4cc3548521ab78eeca","688a8e78f8314a59bc108389","5753046ba6deb50006d64b0f","3","S112_age9_trial3.png","false","false","https://kisumu-drawings.s3-us-west-1.amazonaws.com/tracings/S112_age9_trial3.png","5","",""
"","4914","image-button-response","40","null","246680","68895b4cc3548521ab78eeca","688a8e78f8314a59bc108389","5753046ba6deb50006d64b0f","4","S31_age5_trial4.png","false","false","https://kisumu-drawings.s3-us-west-1.amazonaws.com/tracings/S31_age5_trial4.png","4","",""
"","2837","image-button-response","41","null","250022","68895b4cc3548521ab78eeca","688a8e78f8314a59bc108389","5753046ba6deb50006d64b0f","4","S32_age5_trial4.png","false","false","https://kisumu-drawings.s3-us-west-1.amazonaws.com/tracings/S32_age5_trial4.png","4","",""
"","2786","image-button-response","42","null","253312","68895b4cc3548521ab78eeca","688a8e78f8314a59bc108389","5753046ba6deb50006d64b0f","1","S1_age4_trial1.png","false","false","https://kisumu-drawings.s3-us-west-1.amazonaws.com/tracings/S1_age4_trial1.png","4","",""
"","2140","image-button-response","43","null","255970","68895b4cc3548521ab78eeca","688a8e78f8314a59bc108389","5753046ba6deb50006d64b0f","3","S52_age6_trial3.png","false","false","https://kisumu-drawings.s3-us-west-1.amazonaws.com/tracings/S52_age6_trial3.png","5","",""
"","1909","image-button-response","44","null","258399","68895b4cc3548521ab78eeca","688a8e78f8314a59bc108389","5753046ba6deb50006d64b0f","3","S71_age7_trial3.png","false","false","https://kisumu-drawings.s3-us-west-1.amazonaws.com/tracings/S71_age7_trial3.png","5","",""
"","2573","image-button-response","45","null","261476","68895b4cc3548521ab78eeca","688a8e78f8314a59bc108389","5753046ba6deb50006d64b0f","2","S32_age5_trial2.png","false","false","https://kisumu-drawings.s3-us-west-1.amazonaws.com/tracings/S32_age5_trial2.png","4","",""
"","2238","image-button-response","46","null","264221","68895b4cc3548521ab78eeca","688a8e78f8314a59bc108389","5753046ba6deb50006d64b0f","1","S89_age8_trial1.png","false","false","https://kisumu-drawings.s3-us-west-1.amazonaws.com/tracings/S89_age8_trial1.png","5","",""
"","2241","image-button-response","47","null","266980","68895b4cc3548521ab78eeca","688a8e78f8314a59bc108389","5753046ba6deb50006d64b0f","3","S72_age7_trial3.png","false","false","https://kisumu-drawings.s3-us-west-1.amazonaws.com/tracings/S72_age7_trial3.png","5","",""
"","5905","image-button-response","48","null","273394","68895b4cc3548521ab78eeca","688a8e78f8314a59bc108389","5753046ba6deb50006d64b0f","4","S1_age4_trial4.png","false","false","https://kisumu-drawings.s3-us-west-1.amazonaws.com/tracings/S1_age4_trial4.png","4","",""
"","2980","image-button-response","49","null","276887","68895b4cc3548521ab78eeca","688a8e78f8314a59bc108389","5753046ba6deb50006d64b0f","3","S32_age5_trial3.png","false","false","https://kisumu-drawings.s3-us-west-1.amazonaws.com/tracings/S32_age5_trial3.png","5","",""
"","1699","image-button-response","50","null","279098","68895b4cc3548521ab78eeca","688a8e78f8314a59bc108389","5753046ba6deb50006d64b0f","2","S52_age6_trial2.png","false","false","https://kisumu-drawings.s3-us-west-1.amazonaws.com/tracings/S52_age6_trial2.png","5","",""
"","1800","image-button-response","51","null","281412","68895b4cc3548521ab78eeca","688a8e78f8314a59bc108389","5753046ba6deb50006d64b0f","2","S71_age7_trial2.png","false","false","https://kisumu-drawings.s3-us-west-1.amazonaws.com/tracings/S71_age7_trial2.png","5","",""
"","1748","image-button-response","52","null","283676","68895b4cc3548521ab78eeca","688a8e78f8314a59bc108389","5753046ba6deb50006d64b0f","1","S31_age5_trial1.png","false","false","https://kisumu-drawings.s3-us-west-1.amazonaws.com/tracings/S31_age5_trial1.png","5","",""
"","2489","image-button-response","53","null","286678","68895b4cc3548521ab78eeca","688a8e78f8314a59bc108389","5753046ba6deb50006d64b0f","5","S111_age9_trial5.png","false","false","https://kisumu-drawings.s3-us-west-1.amazonaws.com/tracings/S111_age9_trial5.png","5","",""
"","3266","image-button-response","54","null","290461","68895b4cc3548521ab78eeca","688a8e78f8314a59bc108389","5753046ba6deb50006d64b0f","4","S71_age7_trial4.png","false","false","https://kisumu-drawings.s3-us-west-1.amazonaws.com/tracings/S71_age7_trial4.png","5","",""
"","1926","image-button-response","55","null","292892","68895b4cc3548521ab78eeca","688a8e78f8314a59bc108389","5753046ba6deb50006d64b0f","5","S72_age7_trial5.png","false","false","https://kisumu-drawings.s3-us-west-1.amazonaws.com/tracings/S72_age7_trial5.png","5","",""
"","4006","image-button-response","56","null","297404","68895b4cc3548521ab78eeca","688a8e78f8314a59bc108389","5753046ba6deb50006d64b0f","1","S51_age6_trial1.png","false","false","https://kisumu-drawings.s3-us-west-1.amazonaws.com/tracings/S51_age6_trial1.png","4","",""
"","3713","image-button-response","57","null","301636","68895b4cc3548521ab78eeca","688a8e78f8314a59bc108389","5753046ba6deb50006d64b0f","5","S32_age5_trial5.png","false","false","https://kisumu-drawings.s3-us-west-1.amazonaws.com/tracings/S32_age5_trial5.png","3","",""
"","1942","image-button-response","58","null","304093","68895b4cc3548521ab78eeca","688a8e78f8314a59bc108389","5753046ba6deb50006d64b0f","3","S111_age9_trial3.png","false","false","https://kisumu-drawings.s3-us-west-1.amazonaws.com/tracings/S111_age9_trial3.png","5","",""
"","2298","image-button-response","59","null","306909","68895b4cc3548521ab78eeca","688a8e78f8314a59bc108389","5753046ba6deb50006d64b0f","5","S31_age5_trial5.png","false","false","https://kisumu-drawings.s3-us-west-1.amazonaws.com/tracings/S31_age5_trial5.png","4","",""
"","2259","image-button-response","60","null","309672","68895b4cc3548521ab78eeca","688a8e78f8314a59bc108389","5753046ba6deb50006d64b0f","4","S90_age8_trial4.png","false","false","https://kisumu-drawings.s3-us-west-1.amazonaws.com/tracings/S90_age8_trial4.png","5","",""
"","1834","image-button-response","61","null","312010","68895b4cc3548521ab78eeca","688a8e78f8314a59bc108389","5753046ba6deb50006d64b0f","1","S111_age9_trial1.png","false","false","https://kisumu-drawings.s3-us-west-1.amazonaws.com/tracings/S111_age9_trial1.png","5","",""
