"view_history","rt","trial_type","trial_index","plugin_version","time_elapsed","study_id","session_id","participant_id","tracing_type","tracing_id","catch_trial","prep_trial","stimulus","response","sketcher_category","response_category"
"[{""page_index"":0,""viewing_time"":10164},{""page_index"":1,""viewing_time"":12811},{""page_index"":2,""viewing_time"":4349},{""page_index"":3,""viewing_time"":8284},{""page_index"":4,""viewing_time"":13599}]","49208","instructions","0","null","49225","68895b4cc3548521ab78eeca","68898407dd424897d476390a","58f7ec594bf83e000199f2e9","","","","","","","",""
"","3277","image-button-response","1","null","53508","68895b4cc3548521ab78eeca","68898407dd424897d476390a","58f7ec594bf83e000199f2e9","1","S21_age5_trial1.png","false","false","https://kisumu-drawings.s3-us-west-1.amazonaws.com/tracings/S21_age5_trial1.png","4","",""
"","2413","image-button-response","2","null","56426","68895b4cc3548521ab78eeca","68898407dd424897d476390a","58f7ec594bf83e000199f2e9","5","S22_age5_trial5.png","false","false","https://kisumu-drawings.s3-us-west-1.amazonaws.com/tracings/S22_age5_trial5.png","5","",""
"","4714","image-button-response","3","null","61643","68895b4cc3548521ab78eeca","68898407dd424897d476390a","58f7ec594bf83e000199f2e9","3","S11_age4_trial3.png","false","false","https://kisumu-drawings.s3-us-west-1.amazonaws.com/tracings/S11_age4_trial3.png","3","",""
"","2364","image-button-response","4","null","64510","68895b4cc3548521ab78eeca","68898407dd424897d476390a","58f7ec594bf83e000199f2e9","5","S81_age8_trial5.png","false","false","https://kisumu-drawings.s3-us-west-1.amazonaws.com/tracings/S81_age8_trial5.png","4","",""
"","3694","image-button-response","5","null","68708","68895b4cc3548521ab78eeca","68898407dd424897d476390a","58f7ec594bf83e000199f2e9","5","S10_age4_trial5.png","false","false","https://kisumu-drawings.s3-us-west-1.amazonaws.com/tracings/S10_age4_trial5.png","4","",""
"","3349","image-button-response","6","null","72561","68895b4cc3548521ab78eeca","68898407dd424897d476390a","58f7ec594bf83e000199f2e9","5","S100_age8_trial5.png","false","false","https://kisumu-drawings.s3-us-west-1.amazonaws.com/tracings/S100_age8_trial5.png","5","",""
"","1411","image-button-response","7","null","74474","68895b4cc3548521ab78eeca","68898407dd424897d476390a","58f7ec594bf83e000199f2e9","1","S62_age7_trial1.png","false","false","https://kisumu-drawings.s3-us-west-1.amazonaws.com/tracings/S62_age7_trial1.png","5","",""
"","2031","image-button-response","8","null","77009","68895b4cc3548521ab78eeca","68898407dd424897d476390a","58f7ec594bf83e000199f2e9","3","S81_age8_trial3.png","false","false","https://kisumu-drawings.s3-us-west-1.amazonaws.com/tracings/S81_age8_trial3.png","5","",""
"","2113","image-button-response","9","null","79625","68895b4cc3548521ab78eeca","68898407dd424897d476390a","58f7ec594bf83e000199f2e9","4","S42_age6_trial4.png","false","false","https://kisumu-drawings.s3-us-west-1.amazonaws.com/tracings/S42_age6_trial4.png","4","",""
"","5030","image-button-response","10","null","85158","68895b4cc3548521ab78eeca","68898407dd424897d476390a","58f7ec594bf83e000199f2e9","1","S11_age4_trial1.png","false","false","https://kisumu-drawings.s3-us-west-1.amazonaws.com/tracings/S11_age4_trial1.png","3","",""
"","1881","image-button-response","11","null","87542","68895b4cc3548521ab78eeca","68898407dd424897d476390a","58f7ec594bf83e000199f2e9","3","S21_age5_trial3.png","false","false","https://kisumu-drawings.s3-us-west-1.amazonaws.com/tracings/S21_age5_trial3.png","4","",""
"","2429","image-button-response","12","null","90475","68895b4cc3548521ab78eeca","68898407dd424897d476390a","58f7ec594bf83e000199f2e9","3","S42_age6_trial3.png","false","false","https://kisumu-drawings.s3-us-west-1.amazonaws.com/tracings/S42_age6_trial3.png","5","",""
"","1833","image-button-response","13","null","92810","68895b4cc3548521ab78eeca","68898407dd424897d476390a","58f7ec594bf83e000199f2e9","3","S22_age5_trial3.png","false","false","https://kisumu-drawings.s3-us-west-1.amazonaws.com/tracings/S22_age5_trial3.png","5","",""
"","1395","image-button-response","14","null","94709","68895b4cc3548521ab78eeca","68898407dd424897d476390a","58f7ec594bf83e000199f2e9","2","S62_age7_trial2.png","false","false","https://kisumu-drawings.s3-us-west-1.amazonaws.com/tracings/S62_age7_trial2.png","5","",""
"","1596","image-button-response","15","null","96809","68895b4cc3548521ab78eeca","68898407dd424897d476390a","58f7ec594bf83e000199f2e9","2","S81_age8_trial2.png","false","false","https://kisumu-drawings.s3-us-west-1.amazonaws.com/tracings/S81_age8_trial2.png","5","",""
"","2046","image-button-response","16","null","99358","68895b4cc3548521ab78eeca","68898407dd424897d476390a","58f7ec594bf83e000199f2e9","5","S102_age9_trial5.png","false","false","https://kisumu-drawings.s3-us-west-1.amazonaws.com/tracings/S102_age9_trial5.png","5","",""
"","3715","image-button-response","17","null","103575","68895b4cc3548521ab78eeca","68898407dd424897d476390a","58f7ec594bf83e000199f2e9","2","S61_age7_trial2.png","false","false","https://kisumu-drawings.s3-us-west-1.amazonaws.com/tracings/S61_age7_trial2.png","5","",""
"","2280","image-button-response","18","null","106359","68895b4cc3548521ab78eeca","68898407dd424897d476390a","58f7ec594bf83e000199f2e9","4","S101_age9_trial4.png","false","false","https://kisumu-drawings.s3-us-west-1.amazonaws.com/tracings/S101_age9_trial4.png","5","",""
"","2647","image-button-response","19","null","109510","68895b4cc3548521ab78eeca","68898407dd424897d476390a","58f7ec594bf83e000199f2e9","2","S42_age6_trial2.png","false","false","https://kisumu-drawings.s3-us-west-1.amazonaws.com/tracings/S42_age6_trial2.png","4","",""
"","2731","image-button-response","20","null","112744","68895b4cc3548521ab78eeca","68898407dd424897d476390a","58f7ec594bf83e000199f2e9","4","S11_age4_trial4.png","false","false","https://kisumu-drawings.s3-us-west-1.amazonaws.com/tracings/S11_age4_trial4.png","1","",""
"","2080","image-button-response","21","null","115327","68895b4cc3548521ab78eeca","68898407dd424897d476390a","58f7ec594bf83e000199f2e9","2","S21_age5_trial2.png","false","false","https://kisumu-drawings.s3-us-west-1.amazonaws.com/tracings/S21_age5_trial2.png","5","",""
"","4563","image-button-response","22","null","120392","68895b4cc3548521ab78eeca","68898407dd424897d476390a","58f7ec594bf83e000199f2e9","5","S42_age6_trial5.png","false","false","https://kisumu-drawings.s3-us-west-1.amazonaws.com/tracings/S42_age6_trial5.png","4","",""
"","2763","image-button-response","23","null","123659","68895b4cc3548521ab78eeca","68898407dd424897d476390a","58f7ec594bf83e000199f2e9","","","true","false","stimuli/catch_trials/catch_trial.png","0","","1"
"","3348","image-button-response","24","null","127511","68895b4cc3548521ab78eeca","68898407dd424897d476390a","58f7ec594bf83e000199f2e9","2","S11_age4_trial2.png","false","false","https://kisumu-drawings.s3-us-west-1.amazonaws.com/tracings/S11_age4_trial2.png","2","",""
"","1862","image-button-response","25","null","129876","68895b4cc3548521ab78eeca","68898407dd424897d476390a","58f7ec594bf83e000199f2e9","1","S61_age7_trial1.png","false","false","https://kisumu-drawings.s3-us-west-1.amazonaws.com/tracings/S61_age7_trial1.png","5","",""
"","3616","image-button-response","26","null","133995","68895b4cc3548521ab78eeca","68898407dd424897d476390a","58f7ec594bf83e000199f2e9","4","S102_age9_trial4.png","false","false","https://kisumu-drawings.s3-us-west-1.amazonaws.com/tracings/S102_age9_trial4.png","5","",""
"","1894","image-button-response","27","null","136392","68895b4cc3548521ab78eeca","68898407dd424897d476390a","58f7ec594bf83e000199f2e9","4","S41_age6_trial4.png","false","false","https://kisumu-drawings.s3-us-west-1.amazonaws.com/tracings/S41_age6_trial4.png","5","",""
"","1529","image-button-response","28","null","138426","68895b4cc3548521ab78eeca","68898407dd424897d476390a","58f7ec594bf83e000199f2e9","2","S41_age6_trial2.png","false","false","https://kisumu-drawings.s3-us-west-1.amazonaws.com/tracings/S41_age6_trial2.png","5","",""
"","2347","image-button-response","29","null","141276","68895b4cc3548521ab78eeca","68898407dd424897d476390a","58f7ec594bf83e000199f2e9","1","S100_age8_trial1.png","false","false","https://kisumu-drawings.s3-us-west-1.amazonaws.com/tracings/S100_age8_trial1.png","5","",""
"","1963","image-button-response","30","null","143743","68895b4cc3548521ab78eeca","68898407dd424897d476390a","58f7ec594bf83e000199f2e9","4","S81_age8_trial4.png","false","false","https://kisumu-drawings.s3-us-west-1.amazonaws.com/tracings/S81_age8_trial4.png","5","",""
"","4446","image-button-response","31","null","148692","68895b4cc3548521ab78eeca","68898407dd424897d476390a","58f7ec594bf83e000199f2e9","5","S41_age6_trial5.png","false","false","https://kisumu-drawings.s3-us-west-1.amazonaws.com/tracings/S41_age6_trial5.png","4","",""
"","3482","image-button-response","32","null","152676","68895b4cc3548521ab78eeca","68898407dd424897d476390a","58f7ec594bf83e000199f2e9","3","S101_age9_trial3.png","false","false","https://kisumu-drawings.s3-us-west-1.amazonaws.com/tracings/S101_age9_trial3.png","5","",""
"","5314","image-button-response","33","null","158492","68895b4cc3548521ab78eeca","68898407dd424897d476390a","58f7ec594bf83e000199f2e9","1","S41_age6_trial1.png","false","false","https://kisumu-drawings.s3-us-west-1.amazonaws.com/tracings/S41_age6_trial1.png","5","",""
"","3397","image-button-response","34","null","162393","68895b4cc3548521ab78eeca","68898407dd424897d476390a","58f7ec594bf83e000199f2e9","3","S102_age9_trial3.png","false","false","https://kisumu-drawings.s3-us-west-1.amazonaws.com/tracings/S102_age9_trial3.png","5","",""
"","5148","image-button-response","35","null","168043","68895b4cc3548521ab78eeca","68898407dd424897d476390a","58f7ec594bf83e000199f2e9","5","S61_age7_trial5.png","false","false","https://kisumu-drawings.s3-us-west-1.amazonaws.com/tracings/S61_age7_trial5.png","5","",""
"","1647","image-button-response","36","null","170193","68895b4cc3548521ab78eeca","68898407dd424897d476390a","58f7ec594bf83e000199f2e9","4","S62_age7_trial4.png","false","false","https://kisumu-drawings.s3-us-west-1.amazonaws.com/tracings/S62_age7_trial4.png","5","",""
"","4399","image-button-response","37","null","175094","68895b4cc3548521ab78eeca","68898407dd424897d476390a","58f7ec594bf83e000199f2e9","4","S10_age4_trial4.png","false","false","https://kisumu-drawings.s3-us-west-1.amazonaws.com/tracings/S10_age4_trial4.png","4","",""
"","2080","image-button-response","38","null","177677","68895b4cc3548521ab78eeca","68898407dd424897d476390a","58f7ec594bf83e000199f2e9","1","S102_age9_trial1.png","false","false","https://kisumu-drawings.s3-us-west-1.amazonaws.com/tracings/S102_age9_trial1.png","4","",""
"","3846","image-button-response","39","null","182026","68895b4cc3548521ab78eeca","68898407dd424897d476390a","58f7ec594bf83e000199f2e9","5","S62_age7_trial5.png","false","false","https://kisumu-drawings.s3-us-west-1.amazonaws.com/tracings/S62_age7_trial5.png","5","",""
"","2813","image-button-response","40","null","185342","68895b4cc3548521ab78eeca","68898407dd424897d476390a","58f7ec594bf83e000199f2e9","1","S81_age8_trial1.png","false","false","https://kisumu-drawings.s3-us-west-1.amazonaws.com/tracings/S81_age8_trial1.png","5","",""
"","2031","image-button-response","41","null","187876","68895b4cc3548521ab78eeca","68898407dd424897d476390a","58f7ec594bf83e000199f2e9","4","S100_age8_trial4.png","false","false","https://kisumu-drawings.s3-us-west-1.amazonaws.com/tracings/S100_age8_trial4.png","4","",""
"","2197","image-button-response","42","null","190576","68895b4cc3548521ab78eeca","68898407dd424897d476390a","58f7ec594bf83e000199f2e9","2","S22_age5_trial2.png","false","false","https://kisumu-drawings.s3-us-west-1.amazonaws.com/tracings/S22_age5_trial2.png","5","",""
"","2014","image-button-response","43","null","193092","68895b4cc3548521ab78eeca","68898407dd424897d476390a","58f7ec594bf83e000199f2e9","1","S42_age6_trial1.png","false","false","https://kisumu-drawings.s3-us-west-1.amazonaws.com/tracings/S42_age6_trial1.png","4","",""
"","2114","image-button-response","44","null","195710","68895b4cc3548521ab78eeca","68898407dd424897d476390a","58f7ec594bf83e000199f2e9","4","S61_age7_trial4.png","false","false","https://kisumu-drawings.s3-us-west-1.amazonaws.com/tracings/S61_age7_trial4.png","5","",""
"","1929","image-button-response","45","null","198142","68895b4cc3548521ab78eeca","68898407dd424897d476390a","58f7ec594bf83e000199f2e9","3","S61_age7_trial3.png","false","false","https://kisumu-drawings.s3-us-west-1.amazonaws.com/tracings/S61_age7_trial3.png","5","",""
"","1697","image-button-response","46","null","200342","68895b4cc3548521ab78eeca","68898407dd424897d476390a","58f7ec594bf83e000199f2e9","2","S100_age8_trial2.png","false","false","https://kisumu-drawings.s3-us-west-1.amazonaws.com/tracings/S100_age8_trial2.png","5","",""
"","1608","image-button-response","47","null","202453","68895b4cc3548521ab78eeca","68898407dd424897d476390a","58f7ec594bf83e000199f2e9","4","S21_age5_trial4.png","false","false","https://kisumu-drawings.s3-us-west-1.amazonaws.com/tracings/S21_age5_trial4.png","4","",""
"","2940","image-button-response","48","null","205896","68895b4cc3548521ab78eeca","68898407dd424897d476390a","58f7ec594bf83e000199f2e9","1","S101_age9_trial1.png","false","false","https://kisumu-drawings.s3-us-west-1.amazonaws.com/tracings/S101_age9_trial1.png","5","",""
"","2677","image-button-response","49","null","209076","68895b4cc3548521ab78eeca","68898407dd424897d476390a","58f7ec594bf83e000199f2e9","3","S100_age8_trial3.png","false","false","https://kisumu-drawings.s3-us-west-1.amazonaws.com/tracings/S100_age8_trial3.png","4","",""
"","1580","image-button-response","50","null","211160","68895b4cc3548521ab78eeca","68898407dd424897d476390a","58f7ec594bf83e000199f2e9","1","S22_age5_trial1.png","false","false","https://kisumu-drawings.s3-us-west-1.amazonaws.com/tracings/S22_age5_trial1.png","5","",""
"","4028","image-button-response","51","null","215691","68895b4cc3548521ab78eeca","68898407dd424897d476390a","58f7ec594bf83e000199f2e9","3","S41_age6_trial3.png","false","false","https://kisumu-drawings.s3-us-west-1.amazonaws.com/tracings/S41_age6_trial3.png","4","",""
"","1748","image-button-response","52","null","217942","68895b4cc3548521ab78eeca","68898407dd424897d476390a","58f7ec594bf83e000199f2e9","5","S21_age5_trial5.png","false","false","https://kisumu-drawings.s3-us-west-1.amazonaws.com/tracings/S21_age5_trial5.png","4","",""
"","1430","image-button-response","53","null","219876","68895b4cc3548521ab78eeca","68898407dd424897d476390a","58f7ec594bf83e000199f2e9","5","S101_age9_trial5.png","false","false","https://kisumu-drawings.s3-us-west-1.amazonaws.com/tracings/S101_age9_trial5.png","5","",""
"","2898","image-button-response","54","null","223276","68895b4cc3548521ab78eeca","68898407dd424897d476390a","58f7ec594bf83e000199f2e9","3","S10_age4_trial3.png","false","false","https://kisumu-drawings.s3-us-west-1.amazonaws.com/tracings/S10_age4_trial3.png","4","",""
"","1832","image-button-response","55","null","225611","68895b4cc3548521ab78eeca","68898407dd424897d476390a","58f7ec594bf83e000199f2e9","1","S10_age4_trial1.png","false","false","https://kisumu-drawings.s3-us-west-1.amazonaws.com/tracings/S10_age4_trial1.png","4","",""
"","1394","image-button-response","56","null","227509","68895b4cc3548521ab78eeca","68898407dd424897d476390a","58f7ec594bf83e000199f2e9","3","S62_age7_trial3.png","false","false","https://kisumu-drawings.s3-us-west-1.amazonaws.com/tracings/S62_age7_trial3.png","5","",""
"","5448","image-button-response","57","null","233459","68895b4cc3548521ab78eeca","68898407dd424897d476390a","58f7ec594bf83e000199f2e9","5","S11_age4_trial5.png","false","false","https://kisumu-drawings.s3-us-west-1.amazonaws.com/tracings/S11_age4_trial5.png","2","",""
"","3216","image-button-response","58","null","237178","68895b4cc3548521ab78eeca","68898407dd424897d476390a","58f7ec594bf83e000199f2e9","2","S101_age9_trial2.png","false","false","https://kisumu-drawings.s3-us-west-1.amazonaws.com/tracings/S101_age9_trial2.png","5","",""
"","1596","image-button-response","59","null","239276","68895b4cc3548521ab78eeca","68898407dd424897d476390a","58f7ec594bf83e000199f2e9","4","S22_age5_trial4.png","false","false","https://kisumu-drawings.s3-us-west-1.amazonaws.com/tracings/S22_age5_trial4.png","5","",""
"","2262","image-button-response","60","null","242041","68895b4cc3548521ab78eeca","68898407dd424897d476390a","58f7ec594bf83e000199f2e9","2","S102_age9_trial2.png","false","false","https://kisumu-drawings.s3-us-west-1.amazonaws.com/tracings/S102_age9_trial2.png","4","",""
"","1900","image-button-response","61","null","244444","68895b4cc3548521ab78eeca","68898407dd424897d476390a","58f7ec594bf83e000199f2e9","2","S10_age4_trial2.png","false","false","https://kisumu-drawings.s3-us-west-1.amazonaws.com/tracings/S10_age4_trial2.png","4","",""
