"view_history","rt","trial_type","trial_index","plugin_version","time_elapsed","study_id","session_id","participant_id","tracing_type","tracing_id","catch_trial","prep_trial","stimulus","response","sketcher_category","response_category"
"[{""page_index"":0,""viewing_time"":7648},{""page_index"":1,""viewing_time"":10395},{""page_index"":2,""viewing_time"":9917},{""page_index"":3,""viewing_time"":2048},{""page_index"":4,""viewing_time"":5218}]","35229","instructions","0","null","35271","68895b4cc3548521ab78eeca","68896dcbf64db7cfd70285ae","5acb7b0ae1099600016acdd6","","","","","","","",""
"","6342","image-button-response","1","null","42638","68895b4cc3548521ab78eeca","68896dcbf64db7cfd70285ae","5acb7b0ae1099600016acdd6","3","S62_age7_trial3.png","false","false","https://kisumu-drawings.s3-us-west-1.amazonaws.com/tracings/S62_age7_trial3.png","5","",""
"","4523","image-button-response","2","null","47678","68895b4cc3548521ab78eeca","68896dcbf64db7cfd70285ae","5acb7b0ae1099600016acdd6","4","S41_age6_trial4.png","false","false","https://kisumu-drawings.s3-us-west-1.amazonaws.com/tracings/S41_age6_trial4.png","4","",""
"","5402","image-button-response","3","null","53615","68895b4cc3548521ab78eeca","68896dcbf64db7cfd70285ae","5acb7b0ae1099600016acdd6","3","S101_age9_trial3.png","false","false","https://kisumu-drawings.s3-us-west-1.amazonaws.com/tracings/S101_age9_trial3.png","5","",""
"","2504","image-button-response","4","null","56660","68895b4cc3548521ab78eeca","68896dcbf64db7cfd70285ae","5acb7b0ae1099600016acdd6","5","S61_age7_trial5.png","false","false","https://kisumu-drawings.s3-us-west-1.amazonaws.com/tracings/S61_age7_trial5.png","4","",""
"","2911","image-button-response","5","null","60086","68895b4cc3548521ab78eeca","68896dcbf64db7cfd70285ae","5acb7b0ae1099600016acdd6","1","S102_age9_trial1.png","false","false","https://kisumu-drawings.s3-us-west-1.amazonaws.com/tracings/S102_age9_trial1.png","5","",""
"","3445","image-button-response","6","null","64048","68895b4cc3548521ab78eeca","68896dcbf64db7cfd70285ae","5acb7b0ae1099600016acdd6","5","S81_age8_trial5.png","false","false","https://kisumu-drawings.s3-us-west-1.amazonaws.com/tracings/S81_age8_trial5.png","4","",""
"","2383","image-button-response","7","null","66950","68895b4cc3548521ab78eeca","68896dcbf64db7cfd70285ae","5acb7b0ae1099600016acdd6","5","S62_age7_trial5.png","false","false","https://kisumu-drawings.s3-us-west-1.amazonaws.com/tracings/S62_age7_trial5.png","5","",""
"","4794","image-button-response","8","null","72261","68895b4cc3548521ab78eeca","68896dcbf64db7cfd70285ae","5acb7b0ae1099600016acdd6","4","S101_age9_trial4.png","false","false","https://kisumu-drawings.s3-us-west-1.amazonaws.com/tracings/S101_age9_trial4.png","4","",""
"","2725","image-button-response","9","null","75497","68895b4cc3548521ab78eeca","68896dcbf64db7cfd70285ae","5acb7b0ae1099600016acdd6","2","S22_age5_trial2.png","false","false","https://kisumu-drawings.s3-us-west-1.amazonaws.com/tracings/S22_age5_trial2.png","4","",""
"","3536","image-button-response","10","null","79552","68895b4cc3548521ab78eeca","68896dcbf64db7cfd70285ae","5acb7b0ae1099600016acdd6","4","S21_age5_trial4.png","false","false","https://kisumu-drawings.s3-us-west-1.amazonaws.com/tracings/S21_age5_trial4.png","2","",""
"","2212","image-button-response","11","null","82274","68895b4cc3548521ab78eeca","68896dcbf64db7cfd70285ae","5acb7b0ae1099600016acdd6","2","S81_age8_trial2.png","false","false","https://kisumu-drawings.s3-us-west-1.amazonaws.com/tracings/S81_age8_trial2.png","4","",""
"","2181","image-button-response","12","null","84968","68895b4cc3548521ab78eeca","68896dcbf64db7cfd70285ae","5acb7b0ae1099600016acdd6","2","S11_age4_trial2.png","false","false","https://kisumu-drawings.s3-us-west-1.amazonaws.com/tracings/S11_age4_trial2.png","1","",""
"","2058","image-button-response","13","null","87546","68895b4cc3548521ab78eeca","68896dcbf64db7cfd70285ae","5acb7b0ae1099600016acdd6","1","S21_age5_trial1.png","false","false","https://kisumu-drawings.s3-us-west-1.amazonaws.com/tracings/S21_age5_trial1.png","4","",""
"","1960","image-button-response","14","null","90024","68895b4cc3548521ab78eeca","68896dcbf64db7cfd70285ae","5acb7b0ae1099600016acdd6","","","true","false","stimuli/catch_trials/catch_trial.png","0","","1"
"","2133","image-button-response","15","null","92671","68895b4cc3548521ab78eeca","68896dcbf64db7cfd70285ae","5acb7b0ae1099600016acdd6","3","S41_age6_trial3.png","false","false","https://kisumu-drawings.s3-us-west-1.amazonaws.com/tracings/S41_age6_trial3.png","4","",""
"","2208","image-button-response","16","null","95395","68895b4cc3548521ab78eeca","68896dcbf64db7cfd70285ae","5acb7b0ae1099600016acdd6","5","S11_age4_trial5.png","false","false","https://kisumu-drawings.s3-us-west-1.amazonaws.com/tracings/S11_age4_trial5.png","1","",""
"","2277","image-button-response","17","null","98185","68895b4cc3548521ab78eeca","68896dcbf64db7cfd70285ae","5acb7b0ae1099600016acdd6","5","S10_age4_trial5.png","false","false","https://kisumu-drawings.s3-us-west-1.amazonaws.com/tracings/S10_age4_trial5.png","2","",""
"","1680","image-button-response","18","null","100380","68895b4cc3548521ab78eeca","68896dcbf64db7cfd70285ae","5acb7b0ae1099600016acdd6","1","S61_age7_trial1.png","false","false","https://kisumu-drawings.s3-us-west-1.amazonaws.com/tracings/S61_age7_trial1.png","4","",""
"","3408","image-button-response","19","null","104300","68895b4cc3548521ab78eeca","68896dcbf64db7cfd70285ae","5acb7b0ae1099600016acdd6","3","S102_age9_trial3.png","false","false","https://kisumu-drawings.s3-us-west-1.amazonaws.com/tracings/S102_age9_trial3.png","3","",""
"","2048","image-button-response","20","null","106865","68895b4cc3548521ab78eeca","68896dcbf64db7cfd70285ae","5acb7b0ae1099600016acdd6","4","S42_age6_trial4.png","false","false","https://kisumu-drawings.s3-us-west-1.amazonaws.com/tracings/S42_age6_trial4.png","2","",""
"","3316","image-button-response","21","null","110695","68895b4cc3548521ab78eeca","68896dcbf64db7cfd70285ae","5acb7b0ae1099600016acdd6","2","S102_age9_trial2.png","false","false","https://kisumu-drawings.s3-us-west-1.amazonaws.com/tracings/S102_age9_trial2.png","3","",""
"","2856","image-button-response","22","null","114061","68895b4cc3548521ab78eeca","68896dcbf64db7cfd70285ae","5acb7b0ae1099600016acdd6","5","S41_age6_trial5.png","false","false","https://kisumu-drawings.s3-us-west-1.amazonaws.com/tracings/S41_age6_trial5.png","2","",""
"","1949","image-button-response","23","null","116521","68895b4cc3548521ab78eeca","68896dcbf64db7cfd70285ae","5acb7b0ae1099600016acdd6","5","S21_age5_trial5.png","false","false","https://kisumu-drawings.s3-us-west-1.amazonaws.com/tracings/S21_age5_trial5.png","4","",""
"","3011","image-button-response","24","null","120052","68895b4cc3548521ab78eeca","68896dcbf64db7cfd70285ae","5acb7b0ae1099600016acdd6","5","S101_age9_trial5.png","false","false","https://kisumu-drawings.s3-us-west-1.amazonaws.com/tracings/S101_age9_trial5.png","5","",""
"","2598","image-button-response","25","null","123163","68895b4cc3548521ab78eeca","68896dcbf64db7cfd70285ae","5acb7b0ae1099600016acdd6","3","S11_age4_trial3.png","false","false","https://kisumu-drawings.s3-us-west-1.amazonaws.com/tracings/S11_age4_trial3.png","1","",""
"","4801","image-button-response","26","null","128473","68895b4cc3548521ab78eeca","68896dcbf64db7cfd70285ae","5acb7b0ae1099600016acdd6","1","S10_age4_trial1.png","false","false","https://kisumu-drawings.s3-us-west-1.amazonaws.com/tracings/S10_age4_trial1.png","2","",""
"","3763","image-button-response","27","null","132750","68895b4cc3548521ab78eeca","68896dcbf64db7cfd70285ae","5acb7b0ae1099600016acdd6","5","S100_age8_trial5.png","false","false","https://kisumu-drawings.s3-us-west-1.amazonaws.com/tracings/S100_age8_trial5.png","2","",""
"","2889","image-button-response","28","null","136152","68895b4cc3548521ab78eeca","68896dcbf64db7cfd70285ae","5acb7b0ae1099600016acdd6","3","S21_age5_trial3.png","false","false","https://kisumu-drawings.s3-us-west-1.amazonaws.com/tracings/S21_age5_trial3.png","2","",""
"","2648","image-button-response","29","null","139314","68895b4cc3548521ab78eeca","68896dcbf64db7cfd70285ae","5acb7b0ae1099600016acdd6","2","S100_age8_trial2.png","false","false","https://kisumu-drawings.s3-us-west-1.amazonaws.com/tracings/S100_age8_trial2.png","4","",""
"","2847","image-button-response","30","null","142678","68895b4cc3548521ab78eeca","68896dcbf64db7cfd70285ae","5acb7b0ae1099600016acdd6","2","S41_age6_trial2.png","false","false","https://kisumu-drawings.s3-us-west-1.amazonaws.com/tracings/S41_age6_trial2.png","4","",""
"","3109","image-button-response","31","null","146304","68895b4cc3548521ab78eeca","68896dcbf64db7cfd70285ae","5acb7b0ae1099600016acdd6","4","S102_age9_trial4.png","false","false","https://kisumu-drawings.s3-us-west-1.amazonaws.com/tracings/S102_age9_trial4.png","4","",""
"","2144","image-button-response","32","null","148968","68895b4cc3548521ab78eeca","68896dcbf64db7cfd70285ae","5acb7b0ae1099600016acdd6","1","S22_age5_trial1.png","false","false","https://kisumu-drawings.s3-us-west-1.amazonaws.com/tracings/S22_age5_trial1.png","3","",""
"","2881","image-button-response","33","null","152362","68895b4cc3548521ab78eeca","68896dcbf64db7cfd70285ae","5acb7b0ae1099600016acdd6","2","S21_age5_trial2.png","false","false","https://kisumu-drawings.s3-us-west-1.amazonaws.com/tracings/S21_age5_trial2.png","3","",""
"","2148","image-button-response","34","null","155021","68895b4cc3548521ab78eeca","68896dcbf64db7cfd70285ae","5acb7b0ae1099600016acdd6","2","S10_age4_trial2.png","false","false","https://kisumu-drawings.s3-us-west-1.amazonaws.com/tracings/S10_age4_trial2.png","2","",""
"","2402","image-button-response","35","null","157940","68895b4cc3548521ab78eeca","68896dcbf64db7cfd70285ae","5acb7b0ae1099600016acdd6","4","S10_age4_trial4.png","false","false","https://kisumu-drawings.s3-us-west-1.amazonaws.com/tracings/S10_age4_trial4.png","1","",""
"","2821","image-button-response","36","null","161273","68895b4cc3548521ab78eeca","68896dcbf64db7cfd70285ae","5acb7b0ae1099600016acdd6","3","S22_age5_trial3.png","false","false","https://kisumu-drawings.s3-us-west-1.amazonaws.com/tracings/S22_age5_trial3.png","2","",""
"","2299","image-button-response","37","null","164087","68895b4cc3548521ab78eeca","68896dcbf64db7cfd70285ae","5acb7b0ae1099600016acdd6","2","S61_age7_trial2.png","false","false","https://kisumu-drawings.s3-us-west-1.amazonaws.com/tracings/S61_age7_trial2.png","3","",""
"","1897","image-button-response","38","null","166497","68895b4cc3548521ab78eeca","68896dcbf64db7cfd70285ae","5acb7b0ae1099600016acdd6","1","S62_age7_trial1.png","false","false","https://kisumu-drawings.s3-us-west-1.amazonaws.com/tracings/S62_age7_trial1.png","4","",""
"","4825","image-button-response","39","null","171842","68895b4cc3548521ab78eeca","68896dcbf64db7cfd70285ae","5acb7b0ae1099600016acdd6","5","S22_age5_trial5.png","false","false","https://kisumu-drawings.s3-us-west-1.amazonaws.com/tracings/S22_age5_trial5.png","3","",""
"","3644","image-button-response","40","null","176006","68895b4cc3548521ab78eeca","68896dcbf64db7cfd70285ae","5acb7b0ae1099600016acdd6","3","S42_age6_trial3.png","false","false","https://kisumu-drawings.s3-us-west-1.amazonaws.com/tracings/S42_age6_trial3.png","2","",""
"","9901","image-button-response","41","null","186425","68895b4cc3548521ab78eeca","68896dcbf64db7cfd70285ae","5acb7b0ae1099600016acdd6","3","S81_age8_trial3.png","false","false","https://kisumu-drawings.s3-us-west-1.amazonaws.com/tracings/S81_age8_trial3.png","4","",""
"","4188","image-button-response","42","null","191124","68895b4cc3548521ab78eeca","68896dcbf64db7cfd70285ae","5acb7b0ae1099600016acdd6","1","S41_age6_trial1.png","false","false","https://kisumu-drawings.s3-us-west-1.amazonaws.com/tracings/S41_age6_trial1.png","4","",""
"","4851","image-button-response","43","null","196485","68895b4cc3548521ab78eeca","68896dcbf64db7cfd70285ae","5acb7b0ae1099600016acdd6","1","S42_age6_trial1.png","false","false","https://kisumu-drawings.s3-us-west-1.amazonaws.com/tracings/S42_age6_trial1.png","2","",""
"","6133","image-button-response","44","null","203139","68895b4cc3548521ab78eeca","68896dcbf64db7cfd70285ae","5acb7b0ae1099600016acdd6","4","S62_age7_trial4.png","false","false","https://kisumu-drawings.s3-us-west-1.amazonaws.com/tracings/S62_age7_trial4.png","4","",""
"","7278","image-button-response","45","null","210929","68895b4cc3548521ab78eeca","68896dcbf64db7cfd70285ae","5acb7b0ae1099600016acdd6","4","S100_age8_trial4.png","false","false","https://kisumu-drawings.s3-us-west-1.amazonaws.com/tracings/S100_age8_trial4.png","2","",""
"","3901","image-button-response","46","null","215346","68895b4cc3548521ab78eeca","68896dcbf64db7cfd70285ae","5acb7b0ae1099600016acdd6","1","S100_age8_trial1.png","false","false","https://kisumu-drawings.s3-us-west-1.amazonaws.com/tracings/S100_age8_trial1.png","4","",""
"","3625","image-button-response","47","null","219489","68895b4cc3548521ab78eeca","68896dcbf64db7cfd70285ae","5acb7b0ae1099600016acdd6","1","S81_age8_trial1.png","false","false","https://kisumu-drawings.s3-us-west-1.amazonaws.com/tracings/S81_age8_trial1.png","3","",""
"","2388","image-button-response","48","null","222398","68895b4cc3548521ab78eeca","68896dcbf64db7cfd70285ae","5acb7b0ae1099600016acdd6","3","S100_age8_trial3.png","false","false","https://kisumu-drawings.s3-us-west-1.amazonaws.com/tracings/S100_age8_trial3.png","2","",""
"","3941","image-button-response","49","null","226856","68895b4cc3548521ab78eeca","68896dcbf64db7cfd70285ae","5acb7b0ae1099600016acdd6","5","S42_age6_trial5.png","false","false","https://kisumu-drawings.s3-us-west-1.amazonaws.com/tracings/S42_age6_trial5.png","2","",""
"","2990","image-button-response","50","null","230368","68895b4cc3548521ab78eeca","68896dcbf64db7cfd70285ae","5acb7b0ae1099600016acdd6","2","S42_age6_trial2.png","false","false","https://kisumu-drawings.s3-us-west-1.amazonaws.com/tracings/S42_age6_trial2.png","2","",""
"","2300","image-button-response","51","null","233187","68895b4cc3548521ab78eeca","68896dcbf64db7cfd70285ae","5acb7b0ae1099600016acdd6","4","S81_age8_trial4.png","false","false","https://kisumu-drawings.s3-us-west-1.amazonaws.com/tracings/S81_age8_trial4.png","4","",""
"","4170","image-button-response","52","null","237877","68895b4cc3548521ab78eeca","68896dcbf64db7cfd70285ae","5acb7b0ae1099600016acdd6","3","S10_age4_trial3.png","false","false","https://kisumu-drawings.s3-us-west-1.amazonaws.com/tracings/S10_age4_trial3.png","2","",""
"","6726","image-button-response","53","null","245120","68895b4cc3548521ab78eeca","68896dcbf64db7cfd70285ae","5acb7b0ae1099600016acdd6","1","S11_age4_trial1.png","false","false","https://kisumu-drawings.s3-us-west-1.amazonaws.com/tracings/S11_age4_trial1.png","1","",""
"","2751","image-button-response","54","null","248388","68895b4cc3548521ab78eeca","68896dcbf64db7cfd70285ae","5acb7b0ae1099600016acdd6","1","S101_age9_trial1.png","false","false","https://kisumu-drawings.s3-us-west-1.amazonaws.com/tracings/S101_age9_trial1.png","4","",""
"","5658","image-button-response","55","null","254560","68895b4cc3548521ab78eeca","68896dcbf64db7cfd70285ae","5acb7b0ae1099600016acdd6","4","S22_age5_trial4.png","false","false","https://kisumu-drawings.s3-us-west-1.amazonaws.com/tracings/S22_age5_trial4.png","4","",""
"","5586","image-button-response","56","null","260664","68895b4cc3548521ab78eeca","68896dcbf64db7cfd70285ae","5acb7b0ae1099600016acdd6","4","S61_age7_trial4.png","false","false","https://kisumu-drawings.s3-us-west-1.amazonaws.com/tracings/S61_age7_trial4.png","5","",""
"","8161","image-button-response","57","null","269340","68895b4cc3548521ab78eeca","68896dcbf64db7cfd70285ae","5acb7b0ae1099600016acdd6","4","S11_age4_trial4.png","false","false","https://kisumu-drawings.s3-us-west-1.amazonaws.com/tracings/S11_age4_trial4.png","1","",""
"","4966","image-button-response","58","null","274827","68895b4cc3548521ab78eeca","68896dcbf64db7cfd70285ae","5acb7b0ae1099600016acdd6","3","S61_age7_trial3.png","false","false","https://kisumu-drawings.s3-us-west-1.amazonaws.com/tracings/S61_age7_trial3.png","2","",""
"","3159","image-button-response","59","null","278506","68895b4cc3548521ab78eeca","68896dcbf64db7cfd70285ae","5acb7b0ae1099600016acdd6","2","S101_age9_trial2.png","false","false","https://kisumu-drawings.s3-us-west-1.amazonaws.com/tracings/S101_age9_trial2.png","4","",""
"","2985","image-button-response","60","null","282004","68895b4cc3548521ab78eeca","68896dcbf64db7cfd70285ae","5acb7b0ae1099600016acdd6","2","S62_age7_trial2.png","false","false","https://kisumu-drawings.s3-us-west-1.amazonaws.com/tracings/S62_age7_trial2.png","4","",""
"","2225","image-button-response","61","null","284746","68895b4cc3548521ab78eeca","68896dcbf64db7cfd70285ae","5acb7b0ae1099600016acdd6","5","S102_age9_trial5.png","false","false","https://kisumu-drawings.s3-us-west-1.amazonaws.com/tracings/S102_age9_trial5.png","4","",""
