"view_history","rt","trial_type","trial_index","plugin_version","time_elapsed","study_id","session_id","participant_id","tracing_type","tracing_id","catch_trial","prep_trial","stimulus","response","sketcher_category","response_category"
"[{""page_index"":0,""viewing_time"":15903},{""page_index"":1,""viewing_time"":7471},{""page_index"":2,""viewing_time"":7133},{""page_index"":3,""viewing_time"":3654},{""page_index"":4,""viewing_time"":5136}]","39298","instructions","0","null","39325","68895b4cc3548521ab78eeca","688a2e94b2380e1534bab4d5","5cb5e6927a92c500015c0de1","","","","","","","",""
"","12608","image-button-response","1","null","52966","68895b4cc3548521ab78eeca","688a2e94b2380e1534bab4d5","5cb5e6927a92c500015c0de1","4","S16_age4_trial4.png","false","false","https://kisumu-drawings.s3-us-west-1.amazonaws.com/tracings/S16_age4_trial4.png","3","",""
"","7561","image-button-response","2","null","61049","68895b4cc3548521ab78eeca","688a2e94b2380e1534bab4d5","5cb5e6927a92c500015c0de1","1","S108_age9_trial1.png","false","false","https://kisumu-drawings.s3-us-west-1.amazonaws.com/tracings/S108_age9_trial1.png","5","",""
"","4773","image-button-response","3","null","66343","68895b4cc3548521ab78eeca","688a2e94b2380e1534bab4d5","5cb5e6927a92c500015c0de1","3","S16_age4_trial3.png","false","false","https://kisumu-drawings.s3-us-west-1.amazonaws.com/tracings/S16_age4_trial3.png","4","",""
"","12722","image-button-response","4","null","79584","68895b4cc3548521ab78eeca","688a2e94b2380e1534bab4d5","5cb5e6927a92c500015c0de1","1","S47_age6_trial1.png","false","false","https://kisumu-drawings.s3-us-west-1.amazonaws.com/tracings/S47_age6_trial1.png","4","",""
"","3726","image-button-response","5","null","83819","68895b4cc3548521ab78eeca","688a2e94b2380e1534bab4d5","5cb5e6927a92c500015c0de1","1","S16_age4_trial1.png","false","false","https://kisumu-drawings.s3-us-west-1.amazonaws.com/tracings/S16_age4_trial1.png","4","",""
"","3133","image-button-response","6","null","87473","68895b4cc3548521ab78eeca","688a2e94b2380e1534bab4d5","5cb5e6927a92c500015c0de1","5","S107_age9_trial5.png","false","false","https://kisumu-drawings.s3-us-west-1.amazonaws.com/tracings/S107_age9_trial5.png","5","",""
"","2720","image-button-response","7","null","90709","68895b4cc3548521ab78eeca","688a2e94b2380e1534bab4d5","5cb5e6927a92c500015c0de1","3","S49_age6_trial3.png","false","false","https://kisumu-drawings.s3-us-west-1.amazonaws.com/tracings/S49_age6_trial3.png","4","",""
"","5410","image-button-response","8","null","96632","68895b4cc3548521ab78eeca","688a2e94b2380e1534bab4d5","5cb5e6927a92c500015c0de1","1","S27_age5_trial1.png","false","false","https://kisumu-drawings.s3-us-west-1.amazonaws.com/tracings/S27_age5_trial1.png","4","",""
"","2007","image-button-response","9","null","99160","68895b4cc3548521ab78eeca","688a2e94b2380e1534bab4d5","5cb5e6927a92c500015c0de1","2","S49_age6_trial2.png","false","false","https://kisumu-drawings.s3-us-west-1.amazonaws.com/tracings/S49_age6_trial2.png","4","",""
"","2825","image-button-response","10","null","102501","68895b4cc3548521ab78eeca","688a2e94b2380e1534bab4d5","5cb5e6927a92c500015c0de1","5","S28_age5_trial5.png","false","false","https://kisumu-drawings.s3-us-west-1.amazonaws.com/tracings/S28_age5_trial5.png","4","",""
"","2355","image-button-response","11","null","105372","68895b4cc3548521ab78eeca","688a2e94b2380e1534bab4d5","5cb5e6927a92c500015c0de1","3","S15_age4_trial3.png","false","false","https://kisumu-drawings.s3-us-west-1.amazonaws.com/tracings/S15_age4_trial3.png","2","",""
"","2623","image-button-response","12","null","108510","68895b4cc3548521ab78eeca","688a2e94b2380e1534bab4d5","5cb5e6927a92c500015c0de1","3","S108_age9_trial3.png","false","false","https://kisumu-drawings.s3-us-west-1.amazonaws.com/tracings/S108_age9_trial3.png","5","",""
"","3907","image-button-response","13","null","112932","68895b4cc3548521ab78eeca","688a2e94b2380e1534bab4d5","5cb5e6927a92c500015c0de1","1","S107_age9_trial1.png","false","false","https://kisumu-drawings.s3-us-west-1.amazonaws.com/tracings/S107_age9_trial1.png","4","",""
"","4053","image-button-response","14","null","117505","68895b4cc3548521ab78eeca","688a2e94b2380e1534bab4d5","5cb5e6927a92c500015c0de1","","","true","false","stimuli/catch_trials/catch_trial.png","0","","1"
"","6156","image-button-response","15","null","124177","68895b4cc3548521ab78eeca","688a2e94b2380e1534bab4d5","5cb5e6927a92c500015c0de1","2","S48_age6_trial2.png","false","false","https://kisumu-drawings.s3-us-west-1.amazonaws.com/tracings/S48_age6_trial2.png","3","",""
"","3302","image-button-response","16","null","127997","68895b4cc3548521ab78eeca","688a2e94b2380e1534bab4d5","5cb5e6927a92c500015c0de1","3","S107_age9_trial3.png","false","false","https://kisumu-drawings.s3-us-west-1.amazonaws.com/tracings/S107_age9_trial3.png","4","",""
"","4188","image-button-response","17","null","132702","68895b4cc3548521ab78eeca","688a2e94b2380e1534bab4d5","5cb5e6927a92c500015c0de1","1","S17_age4_trial1.png","false","false","https://kisumu-drawings.s3-us-west-1.amazonaws.com/tracings/S17_age4_trial1.png","5","",""
"","3173","image-button-response","18","null","136391","68895b4cc3548521ab78eeca","688a2e94b2380e1534bab4d5","5cb5e6927a92c500015c0de1","5","S87_age8_trial5.png","false","false","https://kisumu-drawings.s3-us-west-1.amazonaws.com/tracings/S87_age8_trial5.png","4","",""
"","2368","image-button-response","19","null","139277","68895b4cc3548521ab78eeca","688a2e94b2380e1534bab4d5","5cb5e6927a92c500015c0de1","3","S28_age5_trial3.png","false","false","https://kisumu-drawings.s3-us-west-1.amazonaws.com/tracings/S28_age5_trial3.png","3","",""
"","4674","image-button-response","20","null","144468","68895b4cc3548521ab78eeca","688a2e94b2380e1534bab4d5","5cb5e6927a92c500015c0de1","3","S86_age8_trial3.png","false","false","https://kisumu-drawings.s3-us-west-1.amazonaws.com/tracings/S86_age8_trial3.png","3","",""
"","2429","image-button-response","21","null","147414","68895b4cc3548521ab78eeca","688a2e94b2380e1534bab4d5","5cb5e6927a92c500015c0de1","3","S48_age6_trial3.png","false","false","https://kisumu-drawings.s3-us-west-1.amazonaws.com/tracings/S48_age6_trial3.png","2","",""
"","2339","image-button-response","22","null","150268","68895b4cc3548521ab78eeca","688a2e94b2380e1534bab4d5","5cb5e6927a92c500015c0de1","4","S69_age7_trial4.png","false","false","https://kisumu-drawings.s3-us-west-1.amazonaws.com/tracings/S69_age7_trial4.png","5","",""
"","2039","image-button-response","23","null","152824","68895b4cc3548521ab78eeca","688a2e94b2380e1534bab4d5","5cb5e6927a92c500015c0de1","1","S87_age8_trial1.png","false","false","https://kisumu-drawings.s3-us-west-1.amazonaws.com/tracings/S87_age8_trial1.png","5","",""
"","2376","image-button-response","24","null","155713","68895b4cc3548521ab78eeca","688a2e94b2380e1534bab4d5","5cb5e6927a92c500015c0de1","4","S107_age9_trial4.png","false","false","https://kisumu-drawings.s3-us-west-1.amazonaws.com/tracings/S107_age9_trial4.png","5","",""
"","2307","image-button-response","25","null","158534","68895b4cc3548521ab78eeca","688a2e94b2380e1534bab4d5","5cb5e6927a92c500015c0de1","4","S108_age9_trial4.png","false","false","https://kisumu-drawings.s3-us-west-1.amazonaws.com/tracings/S108_age9_trial4.png","5","",""
"","3131","image-button-response","26","null","162175","68895b4cc3548521ab78eeca","688a2e94b2380e1534bab4d5","5cb5e6927a92c500015c0de1","2","S17_age4_trial2.png","false","false","https://kisumu-drawings.s3-us-west-1.amazonaws.com/tracings/S17_age4_trial2.png","3","",""
"","2955","image-button-response","27","null","165647","68895b4cc3548521ab78eeca","688a2e94b2380e1534bab4d5","5cb5e6927a92c500015c0de1","1","S67_age7_trial1.png","false","false","https://kisumu-drawings.s3-us-west-1.amazonaws.com/tracings/S67_age7_trial1.png","4","",""
"","1818","image-button-response","28","null","167982","68895b4cc3548521ab78eeca","688a2e94b2380e1534bab4d5","5cb5e6927a92c500015c0de1","2","S107_age9_trial2.png","false","false","https://kisumu-drawings.s3-us-west-1.amazonaws.com/tracings/S107_age9_trial2.png","4","",""
"","1828","image-button-response","29","null","170321","68895b4cc3548521ab78eeca","688a2e94b2380e1534bab4d5","5cb5e6927a92c500015c0de1","4","S87_age8_trial4.png","false","false","https://kisumu-drawings.s3-us-west-1.amazonaws.com/tracings/S87_age8_trial4.png","4","",""
"","2036","image-button-response","30","null","172876","68895b4cc3548521ab78eeca","688a2e94b2380e1534bab4d5","5cb5e6927a92c500015c0de1","1","S68_age7_trial1.png","false","false","https://kisumu-drawings.s3-us-west-1.amazonaws.com/tracings/S68_age7_trial1.png","5","",""
"","2194","image-button-response","31","null","175589","68895b4cc3548521ab78eeca","688a2e94b2380e1534bab4d5","5cb5e6927a92c500015c0de1","3","S87_age8_trial3.png","false","false","https://kisumu-drawings.s3-us-west-1.amazonaws.com/tracings/S87_age8_trial3.png","4","",""
"","2201","image-button-response","32","null","178307","68895b4cc3548521ab78eeca","688a2e94b2380e1534bab4d5","5cb5e6927a92c500015c0de1","1","S28_age5_trial1.png","false","false","https://kisumu-drawings.s3-us-west-1.amazonaws.com/tracings/S28_age5_trial1.png","3","",""
"","2455","image-button-response","33","null","181280","68895b4cc3548521ab78eeca","688a2e94b2380e1534bab4d5","5cb5e6927a92c500015c0de1","1","S86_age8_trial1.png","false","false","https://kisumu-drawings.s3-us-west-1.amazonaws.com/tracings/S86_age8_trial1.png","4","",""
"","2065","image-button-response","34","null","183856","68895b4cc3548521ab78eeca","688a2e94b2380e1534bab4d5","5cb5e6927a92c500015c0de1","5","S86_age8_trial5.png","false","false","https://kisumu-drawings.s3-us-west-1.amazonaws.com/tracings/S86_age8_trial5.png","4","",""
"","1968","image-button-response","35","null","186342","68895b4cc3548521ab78eeca","688a2e94b2380e1534bab4d5","5cb5e6927a92c500015c0de1","2","S27_age5_trial2.png","false","false","https://kisumu-drawings.s3-us-west-1.amazonaws.com/tracings/S27_age5_trial2.png","3","",""
"","2906","image-button-response","36","null","189761","68895b4cc3548521ab78eeca","688a2e94b2380e1534bab4d5","5cb5e6927a92c500015c0de1","2","S67_age7_trial2.png","false","false","https://kisumu-drawings.s3-us-west-1.amazonaws.com/tracings/S67_age7_trial2.png","5","",""
"","3569","image-button-response","37","null","193837","68895b4cc3548521ab78eeca","688a2e94b2380e1534bab4d5","5cb5e6927a92c500015c0de1","1","S48_age6_trial1.png","false","false","https://kisumu-drawings.s3-us-west-1.amazonaws.com/tracings/S48_age6_trial1.png","2","",""
"","2548","image-button-response","38","null","196904","68895b4cc3548521ab78eeca","688a2e94b2380e1534bab4d5","5cb5e6927a92c500015c0de1","2","S86_age8_trial2.png","false","false","https://kisumu-drawings.s3-us-west-1.amazonaws.com/tracings/S86_age8_trial2.png","4","",""
"","3374","image-button-response","39","null","200793","68895b4cc3548521ab78eeca","688a2e94b2380e1534bab4d5","5cb5e6927a92c500015c0de1","2","S68_age7_trial2.png","false","false","https://kisumu-drawings.s3-us-west-1.amazonaws.com/tracings/S68_age7_trial2.png","4","",""
"","2148","image-button-response","40","null","203457","68895b4cc3548521ab78eeca","688a2e94b2380e1534bab4d5","5cb5e6927a92c500015c0de1","4","S86_age8_trial4.png","false","false","https://kisumu-drawings.s3-us-west-1.amazonaws.com/tracings/S86_age8_trial4.png","5","",""
"","5304","image-button-response","41","null","209280","68895b4cc3548521ab78eeca","688a2e94b2380e1534bab4d5","5cb5e6927a92c500015c0de1","5","S48_age6_trial5.png","false","false","https://kisumu-drawings.s3-us-west-1.amazonaws.com/tracings/S48_age6_trial5.png","2","",""
"","3086","image-button-response","42","null","212882","68895b4cc3548521ab78eeca","688a2e94b2380e1534bab4d5","5cb5e6927a92c500015c0de1","3","S27_age5_trial3.png","false","false","https://kisumu-drawings.s3-us-west-1.amazonaws.com/tracings/S27_age5_trial3.png","3","",""
"","2337","image-button-response","43","null","215733","68895b4cc3548521ab78eeca","688a2e94b2380e1534bab4d5","5cb5e6927a92c500015c0de1","3","S67_age7_trial3.png","false","false","https://kisumu-drawings.s3-us-west-1.amazonaws.com/tracings/S67_age7_trial3.png","4","",""
"","3245","image-button-response","44","null","219491","68895b4cc3548521ab78eeca","688a2e94b2380e1534bab4d5","5cb5e6927a92c500015c0de1","4","S47_age6_trial4.png","false","false","https://kisumu-drawings.s3-us-west-1.amazonaws.com/tracings/S47_age6_trial4.png","4","",""
"","2318","image-button-response","45","null","222324","68895b4cc3548521ab78eeca","688a2e94b2380e1534bab4d5","5cb5e6927a92c500015c0de1","4","S28_age5_trial4.png","false","false","https://kisumu-drawings.s3-us-west-1.amazonaws.com/tracings/S28_age5_trial4.png","4","",""
"","2416","image-button-response","46","null","225253","68895b4cc3548521ab78eeca","688a2e94b2380e1534bab4d5","5cb5e6927a92c500015c0de1","5","S108_age9_trial5.png","false","false","https://kisumu-drawings.s3-us-west-1.amazonaws.com/tracings/S108_age9_trial5.png","5","",""
"","3080","image-button-response","47","null","228841","68895b4cc3548521ab78eeca","688a2e94b2380e1534bab4d5","5cb5e6927a92c500015c0de1","5","S69_age7_trial5.png","false","false","https://kisumu-drawings.s3-us-west-1.amazonaws.com/tracings/S69_age7_trial5.png","4","",""
"","2361","image-button-response","48","null","231720","68895b4cc3548521ab78eeca","688a2e94b2380e1534bab4d5","5cb5e6927a92c500015c0de1","5","S18_age4_trial5.png","false","false","https://kisumu-drawings.s3-us-west-1.amazonaws.com/tracings/S18_age4_trial5.png","2","",""
"","2047","image-button-response","49","null","234283","68895b4cc3548521ab78eeca","688a2e94b2380e1534bab4d5","5cb5e6927a92c500015c0de1","4","S27_age5_trial4.png","false","false","https://kisumu-drawings.s3-us-west-1.amazonaws.com/tracings/S27_age5_trial4.png","3","",""
"","3275","image-button-response","50","null","238066","68895b4cc3548521ab78eeca","688a2e94b2380e1534bab4d5","5cb5e6927a92c500015c0de1","4","S48_age6_trial4.png","false","false","https://kisumu-drawings.s3-us-west-1.amazonaws.com/tracings/S48_age6_trial4.png","2","",""
"","2463","image-button-response","51","null","241046","68895b4cc3548521ab78eeca","688a2e94b2380e1534bab4d5","5cb5e6927a92c500015c0de1","2","S18_age4_trial2.png","false","false","https://kisumu-drawings.s3-us-west-1.amazonaws.com/tracings/S18_age4_trial2.png","3","",""
"","4225","image-button-response","52","null","245778","68895b4cc3548521ab78eeca","688a2e94b2380e1534bab4d5","5cb5e6927a92c500015c0de1","2","S87_age8_trial2.png","false","false","https://kisumu-drawings.s3-us-west-1.amazonaws.com/tracings/S87_age8_trial2.png","3","",""
"","1723","image-button-response","53","null","248018","68895b4cc3548521ab78eeca","688a2e94b2380e1534bab4d5","5cb5e6927a92c500015c0de1","3","S68_age7_trial3.png","false","false","https://kisumu-drawings.s3-us-west-1.amazonaws.com/tracings/S68_age7_trial3.png","4","",""
"","1896","image-button-response","54","null","250432","68895b4cc3548521ab78eeca","688a2e94b2380e1534bab4d5","5cb5e6927a92c500015c0de1","4","S68_age7_trial4.png","false","false","https://kisumu-drawings.s3-us-west-1.amazonaws.com/tracings/S68_age7_trial4.png","4","",""
"","2019","image-button-response","55","null","252961","68895b4cc3548521ab78eeca","688a2e94b2380e1534bab4d5","5cb5e6927a92c500015c0de1","2","S108_age9_trial2.png","false","false","https://kisumu-drawings.s3-us-west-1.amazonaws.com/tracings/S108_age9_trial2.png","4","",""
"","2552","image-button-response","56","null","256030","68895b4cc3548521ab78eeca","688a2e94b2380e1534bab4d5","5cb5e6927a92c500015c0de1","5","S17_age4_trial5.png","false","false","https://kisumu-drawings.s3-us-west-1.amazonaws.com/tracings/S17_age4_trial5.png","3","",""
"","2584","image-button-response","57","null","259131","68895b4cc3548521ab78eeca","688a2e94b2380e1534bab4d5","5cb5e6927a92c500015c0de1","5","S68_age7_trial5.png","false","false","https://kisumu-drawings.s3-us-west-1.amazonaws.com/tracings/S68_age7_trial5.png","4","",""
"","2161","image-button-response","58","null","261806","68895b4cc3548521ab78eeca","688a2e94b2380e1534bab4d5","5cb5e6927a92c500015c0de1","5","S27_age5_trial5.png","false","false","https://kisumu-drawings.s3-us-west-1.amazonaws.com/tracings/S27_age5_trial5.png","4","",""
"","2308","image-button-response","59","null","264631","68895b4cc3548521ab78eeca","688a2e94b2380e1534bab4d5","5cb5e6927a92c500015c0de1","4","S17_age4_trial4.png","false","false","https://kisumu-drawings.s3-us-west-1.amazonaws.com/tracings/S17_age4_trial4.png","4","",""
"","2518","image-button-response","60","null","267664","68895b4cc3548521ab78eeca","688a2e94b2380e1534bab4d5","5cb5e6927a92c500015c0de1","5","S47_age6_trial5.png","false","false","https://kisumu-drawings.s3-us-west-1.amazonaws.com/tracings/S47_age6_trial5.png","4","",""
"","1746","image-button-response","61","null","269930","68895b4cc3548521ab78eeca","688a2e94b2380e1534bab4d5","5cb5e6927a92c500015c0de1","2","S28_age5_trial2.png","false","false","https://kisumu-drawings.s3-us-west-1.amazonaws.com/tracings/S28_age5_trial2.png","3","",""
