"view_history","rt","trial_type","trial_index","plugin_version","time_elapsed","study_id","session_id","participant_id","tracing_type","tracing_id","catch_trial","prep_trial","stimulus","response","sketcher_category","response_category"
"[{""page_index"":0,""viewing_time"":16368},{""page_index"":1,""viewing_time"":29628},{""page_index"":2,""viewing_time"":10623},{""page_index"":3,""viewing_time"":2559},{""page_index"":4,""viewing_time"":8040}]","67218","instructions","0","null","67230","68895b4cc3548521ab78eeca","688993e253bb8e7dd533a2de","604d8f415e948938fd60b536","","","","","","","",""
"","9058","image-button-response","1","null","77304","68895b4cc3548521ab78eeca","688993e253bb8e7dd533a2de","604d8f415e948938fd60b536","3","S24_age5_trial3.png","false","false","https://kisumu-drawings.s3-us-west-1.amazonaws.com/tracings/S24_age5_trial3.png","3","",""
"","2579","image-button-response","2","null","80394","68895b4cc3548521ab78eeca","688993e253bb8e7dd533a2de","604d8f415e948938fd60b536","4","S64_age7_trial4.png","false","false","https://kisumu-drawings.s3-us-west-1.amazonaws.com/tracings/S64_age7_trial4.png","4","",""
"","1589","image-button-response","3","null","82491","68895b4cc3548521ab78eeca","688993e253bb8e7dd533a2de","604d8f415e948938fd60b536","3","S43_age6_trial3.png","false","false","https://kisumu-drawings.s3-us-west-1.amazonaws.com/tracings/S43_age6_trial3.png","4","",""
"","1802","image-button-response","4","null","84796","68895b4cc3548521ab78eeca","688993e253bb8e7dd533a2de","604d8f415e948938fd60b536","3","S41_age6_trial3.png","false","false","https://kisumu-drawings.s3-us-west-1.amazonaws.com/tracings/S41_age6_trial3.png","4","",""
"","6207","image-button-response","5","null","91521","68895b4cc3548521ab78eeca","688993e253bb8e7dd533a2de","604d8f415e948938fd60b536","5","S64_age7_trial5.png","false","false","https://kisumu-drawings.s3-us-west-1.amazonaws.com/tracings/S64_age7_trial5.png","4","",""
"","8041","image-button-response","6","null","100068","68895b4cc3548521ab78eeca","688993e253bb8e7dd533a2de","604d8f415e948938fd60b536","1","S100_age8_trial1.png","false","false","https://kisumu-drawings.s3-us-west-1.amazonaws.com/tracings/S100_age8_trial1.png","5","",""
"","3094","image-button-response","7","null","103682","68895b4cc3548521ab78eeca","688993e253bb8e7dd533a2de","604d8f415e948938fd60b536","4","S23_age5_trial4.png","false","false","https://kisumu-drawings.s3-us-west-1.amazonaws.com/tracings/S23_age5_trial4.png","3","",""
"","2139","image-button-response","8","null","106330","68895b4cc3548521ab78eeca","688993e253bb8e7dd533a2de","604d8f415e948938fd60b536","3","S103_age9_trial3.png","false","false","https://kisumu-drawings.s3-us-west-1.amazonaws.com/tracings/S103_age9_trial3.png","4","",""
"","3928","image-button-response","9","null","110770","68895b4cc3548521ab78eeca","688993e253bb8e7dd533a2de","604d8f415e948938fd60b536","5","S82_age8_trial5.png","false","false","https://kisumu-drawings.s3-us-west-1.amazonaws.com/tracings/S82_age8_trial5.png","4","",""
"","3816","image-button-response","10","null","115099","68895b4cc3548521ab78eeca","688993e253bb8e7dd533a2de","604d8f415e948938fd60b536","3","S82_age8_trial3.png","false","false","https://kisumu-drawings.s3-us-west-1.amazonaws.com/tracings/S82_age8_trial3.png","4","",""
"","2659","image-button-response","11","null","118265","68895b4cc3548521ab78eeca","688993e253bb8e7dd533a2de","604d8f415e948938fd60b536","1","S24_age5_trial1.png","false","false","https://kisumu-drawings.s3-us-west-1.amazonaws.com/tracings/S24_age5_trial1.png","2","",""
"","2745","image-button-response","12","null","121511","68895b4cc3548521ab78eeca","688993e253bb8e7dd533a2de","604d8f415e948938fd60b536","4","S22_age5_trial4.png","false","false","https://kisumu-drawings.s3-us-west-1.amazonaws.com/tracings/S22_age5_trial4.png","4","",""
"","1952","image-button-response","13","null","123968","68895b4cc3548521ab78eeca","688993e253bb8e7dd533a2de","604d8f415e948938fd60b536","2","S12_age4_trial2.png","false","false","https://kisumu-drawings.s3-us-west-1.amazonaws.com/tracings/S12_age4_trial2.png","4","",""
"","2658","image-button-response","14","null","127132","68895b4cc3548521ab78eeca","688993e253bb8e7dd533a2de","604d8f415e948938fd60b536","2","S43_age6_trial2.png","false","false","https://kisumu-drawings.s3-us-west-1.amazonaws.com/tracings/S43_age6_trial2.png","3","",""
"","3825","image-button-response","15","null","131472","68895b4cc3548521ab78eeca","688993e253bb8e7dd533a2de","604d8f415e948938fd60b536","1","S104_age9_trial1.png","false","false","https://kisumu-drawings.s3-us-west-1.amazonaws.com/tracings/S104_age9_trial1.png","4","",""
"","2946","image-button-response","16","null","134932","68895b4cc3548521ab78eeca","688993e253bb8e7dd533a2de","604d8f415e948938fd60b536","3","S10_age4_trial3.png","false","false","https://kisumu-drawings.s3-us-west-1.amazonaws.com/tracings/S10_age4_trial3.png","2","",""
"","2350","image-button-response","17","null","137795","68895b4cc3548521ab78eeca","688993e253bb8e7dd533a2de","604d8f415e948938fd60b536","4","S44_age6_trial4.png","false","false","https://kisumu-drawings.s3-us-west-1.amazonaws.com/tracings/S44_age6_trial4.png","3","",""
"","2408","image-button-response","18","null","140714","68895b4cc3548521ab78eeca","688993e253bb8e7dd533a2de","604d8f415e948938fd60b536","5","S13_age4_trial5.png","false","false","https://kisumu-drawings.s3-us-west-1.amazonaws.com/tracings/S13_age4_trial5.png","2","",""
"","2570","image-button-response","19","null","143792","68895b4cc3548521ab78eeca","688993e253bb8e7dd533a2de","604d8f415e948938fd60b536","5","S103_age9_trial5.png","false","false","https://kisumu-drawings.s3-us-west-1.amazonaws.com/tracings/S103_age9_trial5.png","4","",""
"","5002","image-button-response","20","null","149319","68895b4cc3548521ab78eeca","688993e253bb8e7dd533a2de","604d8f415e948938fd60b536","5","S43_age6_trial5.png","false","false","https://kisumu-drawings.s3-us-west-1.amazonaws.com/tracings/S43_age6_trial5.png","2","",""
"","2033","image-button-response","21","null","151860","68895b4cc3548521ab78eeca","688993e253bb8e7dd533a2de","604d8f415e948938fd60b536","2","S104_age9_trial2.png","false","false","https://kisumu-drawings.s3-us-west-1.amazonaws.com/tracings/S104_age9_trial2.png","4","",""
"","3182","image-button-response","22","null","155544","68895b4cc3548521ab78eeca","688993e253bb8e7dd533a2de","604d8f415e948938fd60b536","1","S82_age8_trial1.png","false","false","https://kisumu-drawings.s3-us-west-1.amazonaws.com/tracings/S82_age8_trial1.png","3","",""
"","1965","image-button-response","23","null","158012","68895b4cc3548521ab78eeca","688993e253bb8e7dd533a2de","604d8f415e948938fd60b536","2","S44_age6_trial2.png","false","false","https://kisumu-drawings.s3-us-west-1.amazonaws.com/tracings/S44_age6_trial2.png","3","",""
"","1662","image-button-response","24","null","160193","68895b4cc3548521ab78eeca","688993e253bb8e7dd533a2de","604d8f415e948938fd60b536","2","S64_age7_trial2.png","false","false","https://kisumu-drawings.s3-us-west-1.amazonaws.com/tracings/S64_age7_trial2.png","4","",""
"","1346","image-button-response","25","null","162052","68895b4cc3548521ab78eeca","688993e253bb8e7dd533a2de","604d8f415e948938fd60b536","2","S23_age5_trial2.png","false","false","https://kisumu-drawings.s3-us-west-1.amazonaws.com/tracings/S23_age5_trial2.png","2","",""
"","2684","image-button-response","26","null","165258","68895b4cc3548521ab78eeca","688993e253bb8e7dd533a2de","604d8f415e948938fd60b536","3","S23_age5_trial3.png","false","false","https://kisumu-drawings.s3-us-west-1.amazonaws.com/tracings/S23_age5_trial3.png","1","",""
"","4963","image-button-response","27","null","170730","68895b4cc3548521ab78eeca","688993e253bb8e7dd533a2de","604d8f415e948938fd60b536","1","S43_age6_trial1.png","false","false","https://kisumu-drawings.s3-us-west-1.amazonaws.com/tracings/S43_age6_trial1.png","4","",""
"","2451","image-button-response","28","null","173685","68895b4cc3548521ab78eeca","688993e253bb8e7dd533a2de","604d8f415e948938fd60b536","2","S24_age5_trial2.png","false","false","https://kisumu-drawings.s3-us-west-1.amazonaws.com/tracings/S24_age5_trial2.png","3","",""
"","1645","image-button-response","29","null","175833","68895b4cc3548521ab78eeca","688993e253bb8e7dd533a2de","604d8f415e948938fd60b536","2","S13_age4_trial2.png","false","false","https://kisumu-drawings.s3-us-west-1.amazonaws.com/tracings/S13_age4_trial2.png","2","",""
"","6137","image-button-response","30","null","182475","68895b4cc3548521ab78eeca","688993e253bb8e7dd533a2de","604d8f415e948938fd60b536","3","S100_age8_trial3.png","false","false","https://kisumu-drawings.s3-us-west-1.amazonaws.com/tracings/S100_age8_trial3.png","3","",""
"","1544","image-button-response","31","null","184526","68895b4cc3548521ab78eeca","688993e253bb8e7dd533a2de","604d8f415e948938fd60b536","4","S13_age4_trial4.png","false","false","https://kisumu-drawings.s3-us-west-1.amazonaws.com/tracings/S13_age4_trial4.png","2","",""
"","11172","image-button-response","32","null","196207","68895b4cc3548521ab78eeca","688993e253bb8e7dd533a2de","604d8f415e948938fd60b536","2","S103_age9_trial2.png","false","false","https://kisumu-drawings.s3-us-west-1.amazonaws.com/tracings/S103_age9_trial2.png","5","",""
"","10007","image-button-response","33","null","206717","68895b4cc3548521ab78eeca","688993e253bb8e7dd533a2de","604d8f415e948938fd60b536","1","S13_age4_trial1.png","false","false","https://kisumu-drawings.s3-us-west-1.amazonaws.com/tracings/S13_age4_trial1.png","2","",""
"","3921","image-button-response","34","null","211153","68895b4cc3548521ab78eeca","688993e253bb8e7dd533a2de","604d8f415e948938fd60b536","5","S42_age6_trial5.png","false","false","https://kisumu-drawings.s3-us-west-1.amazonaws.com/tracings/S42_age6_trial5.png","2","",""
"","2667","image-button-response","35","null","214330","68895b4cc3548521ab78eeca","688993e253bb8e7dd533a2de","604d8f415e948938fd60b536","5","S21_age5_trial5.png","false","false","https://kisumu-drawings.s3-us-west-1.amazonaws.com/tracings/S21_age5_trial5.png","3","",""
"","1588","image-button-response","36","null","216422","68895b4cc3548521ab78eeca","688993e253bb8e7dd533a2de","604d8f415e948938fd60b536","1","S63_age7_trial1.png","false","false","https://kisumu-drawings.s3-us-west-1.amazonaws.com/tracings/S63_age7_trial1.png","3","",""
"","1736","image-button-response","37","null","218669","68895b4cc3548521ab78eeca","688993e253bb8e7dd533a2de","604d8f415e948938fd60b536","1","S23_age5_trial1.png","false","false","https://kisumu-drawings.s3-us-west-1.amazonaws.com/tracings/S23_age5_trial1.png","2","",""
"","2219","image-button-response","38","null","221395","68895b4cc3548521ab78eeca","688993e253bb8e7dd533a2de","604d8f415e948938fd60b536","4","S103_age9_trial4.png","false","false","https://kisumu-drawings.s3-us-west-1.amazonaws.com/tracings/S103_age9_trial4.png","4","",""
"","1697","image-button-response","39","null","223593","68895b4cc3548521ab78eeca","688993e253bb8e7dd533a2de","604d8f415e948938fd60b536","4","S63_age7_trial4.png","false","false","https://kisumu-drawings.s3-us-west-1.amazonaws.com/tracings/S63_age7_trial4.png","3","",""
"","6027","image-button-response","40","null","230124","68895b4cc3548521ab78eeca","688993e253bb8e7dd533a2de","604d8f415e948938fd60b536","1","S12_age4_trial1.png","false","false","https://kisumu-drawings.s3-us-west-1.amazonaws.com/tracings/S12_age4_trial1.png","3","",""
"","2344","image-button-response","41","null","232976","68895b4cc3548521ab78eeca","688993e253bb8e7dd533a2de","604d8f415e948938fd60b536","3","S104_age9_trial3.png","false","false","https://kisumu-drawings.s3-us-west-1.amazonaws.com/tracings/S104_age9_trial3.png","4","",""
"","2693","image-button-response","42","null","236180","68895b4cc3548521ab78eeca","688993e253bb8e7dd533a2de","604d8f415e948938fd60b536","2","S63_age7_trial2.png","false","false","https://kisumu-drawings.s3-us-west-1.amazonaws.com/tracings/S63_age7_trial2.png","4","",""
"","1585","image-button-response","43","null","238273","68895b4cc3548521ab78eeca","688993e253bb8e7dd533a2de","604d8f415e948938fd60b536","1","S103_age9_trial1.png","false","false","https://kisumu-drawings.s3-us-west-1.amazonaws.com/tracings/S103_age9_trial1.png","4","",""
"","1779","image-button-response","44","null","240555","68895b4cc3548521ab78eeca","688993e253bb8e7dd533a2de","604d8f415e948938fd60b536","5","S23_age5_trial5.png","false","false","https://kisumu-drawings.s3-us-west-1.amazonaws.com/tracings/S23_age5_trial5.png","2","",""
"","2673","image-button-response","45","null","243737","68895b4cc3548521ab78eeca","688993e253bb8e7dd533a2de","604d8f415e948938fd60b536","4","S12_age4_trial4.png","false","false","https://kisumu-drawings.s3-us-west-1.amazonaws.com/tracings/S12_age4_trial4.png","2","",""
"","2852","image-button-response","46","null","247103","68895b4cc3548521ab78eeca","688993e253bb8e7dd533a2de","604d8f415e948938fd60b536","5","S102_age9_trial5.png","false","false","https://kisumu-drawings.s3-us-west-1.amazonaws.com/tracings/S102_age9_trial5.png","4","",""
"","1755","image-button-response","47","null","249369","68895b4cc3548521ab78eeca","688993e253bb8e7dd533a2de","604d8f415e948938fd60b536","5","S12_age4_trial5.png","false","false","https://kisumu-drawings.s3-us-west-1.amazonaws.com/tracings/S12_age4_trial5.png","2","",""
"","1786","image-button-response","48","null","251662","68895b4cc3548521ab78eeca","688993e253bb8e7dd533a2de","604d8f415e948938fd60b536","2","S83_age8_trial2.png","false","false","https://kisumu-drawings.s3-us-west-1.amazonaws.com/tracings/S83_age8_trial2.png","4","",""
"","1685","image-button-response","49","null","253862","68895b4cc3548521ab78eeca","688993e253bb8e7dd533a2de","604d8f415e948938fd60b536","4","S43_age6_trial4.png","false","false","https://kisumu-drawings.s3-us-west-1.amazonaws.com/tracings/S43_age6_trial4.png","2","",""
"","2477","image-button-response","50","null","256847","68895b4cc3548521ab78eeca","688993e253bb8e7dd533a2de","604d8f415e948938fd60b536","3","S63_age7_trial3.png","false","false","https://kisumu-drawings.s3-us-west-1.amazonaws.com/tracings/S63_age7_trial3.png","3","",""
"","2825","image-button-response","51","null","260191","68895b4cc3548521ab78eeca","688993e253bb8e7dd533a2de","604d8f415e948938fd60b536","1","S61_age7_trial1.png","false","false","https://kisumu-drawings.s3-us-west-1.amazonaws.com/tracings/S61_age7_trial1.png","3","",""
"","2176","image-button-response","52","null","262882","68895b4cc3548521ab78eeca","688993e253bb8e7dd533a2de","604d8f415e948938fd60b536","3","S64_age7_trial3.png","false","false","https://kisumu-drawings.s3-us-west-1.amazonaws.com/tracings/S64_age7_trial3.png","3","",""
"","3985","image-button-response","53","null","267380","68895b4cc3548521ab78eeca","688993e253bb8e7dd533a2de","604d8f415e948938fd60b536","4","S100_age8_trial4.png","false","false","https://kisumu-drawings.s3-us-west-1.amazonaws.com/tracings/S100_age8_trial4.png","2","",""
"","2614","image-button-response","54","null","270496","68895b4cc3548521ab78eeca","688993e253bb8e7dd533a2de","604d8f415e948938fd60b536","4","S104_age9_trial4.png","false","false","https://kisumu-drawings.s3-us-west-1.amazonaws.com/tracings/S104_age9_trial4.png","4","",""
"","1937","image-button-response","55","null","272950","68895b4cc3548521ab78eeca","688993e253bb8e7dd533a2de","604d8f415e948938fd60b536","3","S12_age4_trial3.png","false","false","https://kisumu-drawings.s3-us-west-1.amazonaws.com/tracings/S12_age4_trial3.png","3","",""
"","3928","image-button-response","56","null","277390","68895b4cc3548521ab78eeca","688993e253bb8e7dd533a2de","604d8f415e948938fd60b536","","","true","false","stimuli/catch_trials/catch_trial.png","0","","1"
"","7223","image-button-response","57","null","285122","68895b4cc3548521ab78eeca","688993e253bb8e7dd533a2de","604d8f415e948938fd60b536","2","S82_age8_trial2.png","false","false","https://kisumu-drawings.s3-us-west-1.amazonaws.com/tracings/S82_age8_trial2.png","3","",""
"","1896","image-button-response","58","null","287522","68895b4cc3548521ab78eeca","688993e253bb8e7dd533a2de","604d8f415e948938fd60b536","5","S63_age7_trial5.png","false","false","https://kisumu-drawings.s3-us-west-1.amazonaws.com/tracings/S63_age7_trial5.png","3","",""
"","5329","image-button-response","59","null","293361","68895b4cc3548521ab78eeca","688993e253bb8e7dd533a2de","604d8f415e948938fd60b536","4","S81_age8_trial4.png","false","false","https://kisumu-drawings.s3-us-west-1.amazonaws.com/tracings/S81_age8_trial4.png","4","",""
"","2586","image-button-response","60","null","296463","68895b4cc3548521ab78eeca","688993e253bb8e7dd533a2de","604d8f415e948938fd60b536","5","S83_age8_trial5.png","false","false","https://kisumu-drawings.s3-us-west-1.amazonaws.com/tracings/S83_age8_trial5.png","4","",""
"","2920","image-button-response","61","null","299896","68895b4cc3548521ab78eeca","688993e253bb8e7dd533a2de","604d8f415e948938fd60b536","1","S44_age6_trial1.png","false","false","https://kisumu-drawings.s3-us-west-1.amazonaws.com/tracings/S44_age6_trial1.png","2","",""
