"view_history","rt","trial_type","trial_index","plugin_version","time_elapsed","study_id","session_id","participant_id","tracing_type","tracing_id","catch_trial","prep_trial","stimulus","response","sketcher_category","response_category"
"[{""page_index"":0,""viewing_time"":4555},{""page_index"":1,""viewing_time"":7063},{""page_index"":2,""viewing_time"":9272},{""page_index"":3,""viewing_time"":8528},{""page_index"":4,""viewing_time"":3616}]","33035","instructions","0","null","33059","68895b4cc3548521ab78eeca","688999b6c10d744d179c6dae","616d9ef881036dfbfd63d2f4","","","","","","","",""
"","5531","image-button-response","1","null","39619","68895b4cc3548521ab78eeca","688999b6c10d744d179c6dae","616d9ef881036dfbfd63d2f4","5","S43_age6_trial5.png","false","false","https://kisumu-drawings.s3-us-west-1.amazonaws.com/tracings/S43_age6_trial5.png","4","",""
"","4993","image-button-response","2","null","45122","68895b4cc3548521ab78eeca","688999b6c10d744d179c6dae","616d9ef881036dfbfd63d2f4","3","S104_age9_trial3.png","false","false","https://kisumu-drawings.s3-us-west-1.amazonaws.com/tracings/S104_age9_trial3.png","4","",""
"","4255","image-button-response","3","null","49890","68895b4cc3548521ab78eeca","688999b6c10d744d179c6dae","616d9ef881036dfbfd63d2f4","2","S43_age6_trial2.png","false","false","https://kisumu-drawings.s3-us-west-1.amazonaws.com/tracings/S43_age6_trial2.png","4","",""
"","5981","image-button-response","4","null","56386","68895b4cc3548521ab78eeca","688999b6c10d744d179c6dae","616d9ef881036dfbfd63d2f4","1","S82_age8_trial1.png","false","false","https://kisumu-drawings.s3-us-west-1.amazonaws.com/tracings/S82_age8_trial1.png","2","",""
"","6070","image-button-response","5","null","62970","68895b4cc3548521ab78eeca","688999b6c10d744d179c6dae","616d9ef881036dfbfd63d2f4","2","S64_age7_trial2.png","false","false","https://kisumu-drawings.s3-us-west-1.amazonaws.com/tracings/S64_age7_trial2.png","4","",""
"","6017","image-button-response","6","null","69490","68895b4cc3548521ab78eeca","688999b6c10d744d179c6dae","616d9ef881036dfbfd63d2f4","2","S104_age9_trial2.png","false","false","https://kisumu-drawings.s3-us-west-1.amazonaws.com/tracings/S104_age9_trial2.png","4","",""
"","4016","image-button-response","7","null","74010","68895b4cc3548521ab78eeca","688999b6c10d744d179c6dae","616d9ef881036dfbfd63d2f4","1","S83_age8_trial1.png","false","false","https://kisumu-drawings.s3-us-west-1.amazonaws.com/tracings/S83_age8_trial1.png","5","",""
"","4128","image-button-response","8","null","78642","68895b4cc3548521ab78eeca","688999b6c10d744d179c6dae","616d9ef881036dfbfd63d2f4","4","S23_age5_trial4.png","false","false","https://kisumu-drawings.s3-us-west-1.amazonaws.com/tracings/S23_age5_trial4.png","1","",""
"","4430","image-button-response","9","null","83586","68895b4cc3548521ab78eeca","688999b6c10d744d179c6dae","616d9ef881036dfbfd63d2f4","5","S44_age6_trial5.png","false","false","https://kisumu-drawings.s3-us-west-1.amazonaws.com/tracings/S44_age6_trial5.png","3","",""
"","4516","image-button-response","10","null","88618","68895b4cc3548521ab78eeca","688999b6c10d744d179c6dae","616d9ef881036dfbfd63d2f4","5","S83_age8_trial5.png","false","false","https://kisumu-drawings.s3-us-west-1.amazonaws.com/tracings/S83_age8_trial5.png","4","",""
"","4191","image-button-response","11","null","93314","68895b4cc3548521ab78eeca","688999b6c10d744d179c6dae","616d9ef881036dfbfd63d2f4","2","S12_age4_trial2.png","false","false","https://kisumu-drawings.s3-us-west-1.amazonaws.com/tracings/S12_age4_trial2.png","3","",""
"","4171","image-button-response","12","null","97994","68895b4cc3548521ab78eeca","688999b6c10d744d179c6dae","616d9ef881036dfbfd63d2f4","2","S63_age7_trial2.png","false","false","https://kisumu-drawings.s3-us-west-1.amazonaws.com/tracings/S63_age7_trial2.png","3","",""
"","3857","image-button-response","13","null","102353","68895b4cc3548521ab78eeca","688999b6c10d744d179c6dae","616d9ef881036dfbfd63d2f4","","","true","false","stimuli/catch_trials/catch_trial.png","0","","1"
"","4784","image-button-response","14","null","107649","68895b4cc3548521ab78eeca","688999b6c10d744d179c6dae","616d9ef881036dfbfd63d2f4","5","S82_age8_trial5.png","false","false","https://kisumu-drawings.s3-us-west-1.amazonaws.com/tracings/S82_age8_trial5.png","4","",""
"","3704","image-button-response","15","null","111865","68895b4cc3548521ab78eeca","688999b6c10d744d179c6dae","616d9ef881036dfbfd63d2f4","3","S83_age8_trial3.png","false","false","https://kisumu-drawings.s3-us-west-1.amazonaws.com/tracings/S83_age8_trial3.png","4","",""
"","6353","image-button-response","16","null","118721","68895b4cc3548521ab78eeca","688999b6c10d744d179c6dae","616d9ef881036dfbfd63d2f4","4","S103_age9_trial4.png","false","false","https://kisumu-drawings.s3-us-west-1.amazonaws.com/tracings/S103_age9_trial4.png","3","",""
"","3606","image-button-response","17","null","122833","68895b4cc3548521ab78eeca","688999b6c10d744d179c6dae","616d9ef881036dfbfd63d2f4","4","S82_age8_trial4.png","false","false","https://kisumu-drawings.s3-us-west-1.amazonaws.com/tracings/S82_age8_trial4.png","3","",""
"","2746","image-button-response","18","null","126081","68895b4cc3548521ab78eeca","688999b6c10d744d179c6dae","616d9ef881036dfbfd63d2f4","4","S83_age8_trial4.png","false","false","https://kisumu-drawings.s3-us-west-1.amazonaws.com/tracings/S83_age8_trial4.png","4","",""
"","3441","image-button-response","19","null","130025","68895b4cc3548521ab78eeca","688999b6c10d744d179c6dae","616d9ef881036dfbfd63d2f4","3","S64_age7_trial3.png","false","false","https://kisumu-drawings.s3-us-west-1.amazonaws.com/tracings/S64_age7_trial3.png","3","",""
"","4617","image-button-response","20","null","135153","68895b4cc3548521ab78eeca","688999b6c10d744d179c6dae","616d9ef881036dfbfd63d2f4","5","S13_age4_trial5.png","false","false","https://kisumu-drawings.s3-us-west-1.amazonaws.com/tracings/S13_age4_trial5.png","2","",""
"","4503","image-button-response","21","null","140161","68895b4cc3548521ab78eeca","688999b6c10d744d179c6dae","616d9ef881036dfbfd63d2f4","3","S63_age7_trial3.png","false","false","https://kisumu-drawings.s3-us-west-1.amazonaws.com/tracings/S63_age7_trial3.png","3","",""
"","2700","image-button-response","22","null","143369","68895b4cc3548521ab78eeca","688999b6c10d744d179c6dae","616d9ef881036dfbfd63d2f4","3","S44_age6_trial3.png","false","false","https://kisumu-drawings.s3-us-west-1.amazonaws.com/tracings/S44_age6_trial3.png","3","",""
"","2305","image-button-response","23","null","146193","68895b4cc3548521ab78eeca","688999b6c10d744d179c6dae","616d9ef881036dfbfd63d2f4","5","S64_age7_trial5.png","false","false","https://kisumu-drawings.s3-us-west-1.amazonaws.com/tracings/S64_age7_trial5.png","3","",""
"","3547","image-button-response","24","null","150257","68895b4cc3548521ab78eeca","688999b6c10d744d179c6dae","616d9ef881036dfbfd63d2f4","4","S63_age7_trial4.png","false","false","https://kisumu-drawings.s3-us-west-1.amazonaws.com/tracings/S63_age7_trial4.png","3","",""
"","3266","image-button-response","25","null","154025","68895b4cc3548521ab78eeca","688999b6c10d744d179c6dae","616d9ef881036dfbfd63d2f4","1","S103_age9_trial1.png","false","false","https://kisumu-drawings.s3-us-west-1.amazonaws.com/tracings/S103_age9_trial1.png","5","",""
"","2640","image-button-response","26","null","157169","68895b4cc3548521ab78eeca","688999b6c10d744d179c6dae","616d9ef881036dfbfd63d2f4","3","S103_age9_trial3.png","false","false","https://kisumu-drawings.s3-us-west-1.amazonaws.com/tracings/S103_age9_trial3.png","4","",""
"","3289","image-button-response","27","null","160969","68895b4cc3548521ab78eeca","688999b6c10d744d179c6dae","616d9ef881036dfbfd63d2f4","2","S82_age8_trial2.png","false","false","https://kisumu-drawings.s3-us-west-1.amazonaws.com/tracings/S82_age8_trial2.png","4","",""
"","3023","image-button-response","28","null","164505","68895b4cc3548521ab78eeca","688999b6c10d744d179c6dae","616d9ef881036dfbfd63d2f4","1","S12_age4_trial1.png","false","false","https://kisumu-drawings.s3-us-west-1.amazonaws.com/tracings/S12_age4_trial1.png","3","",""
"","2562","image-button-response","29","null","167585","68895b4cc3548521ab78eeca","688999b6c10d744d179c6dae","616d9ef881036dfbfd63d2f4","1","S24_age5_trial1.png","false","false","https://kisumu-drawings.s3-us-west-1.amazonaws.com/tracings/S24_age5_trial1.png","2","",""
"","4313","image-button-response","30","null","172401","68895b4cc3548521ab78eeca","688999b6c10d744d179c6dae","616d9ef881036dfbfd63d2f4","1","S23_age5_trial1.png","false","false","https://kisumu-drawings.s3-us-west-1.amazonaws.com/tracings/S23_age5_trial1.png","2","",""
"","2588","image-button-response","31","null","175497","68895b4cc3548521ab78eeca","688999b6c10d744d179c6dae","616d9ef881036dfbfd63d2f4","4","S104_age9_trial4.png","false","false","https://kisumu-drawings.s3-us-west-1.amazonaws.com/tracings/S104_age9_trial4.png","3","",""
"","3881","image-button-response","32","null","179881","68895b4cc3548521ab78eeca","688999b6c10d744d179c6dae","616d9ef881036dfbfd63d2f4","4","S44_age6_trial4.png","false","false","https://kisumu-drawings.s3-us-west-1.amazonaws.com/tracings/S44_age6_trial4.png","2","",""
"","3033","image-button-response","33","null","183425","68895b4cc3548521ab78eeca","688999b6c10d744d179c6dae","616d9ef881036dfbfd63d2f4","3","S82_age8_trial3.png","false","false","https://kisumu-drawings.s3-us-west-1.amazonaws.com/tracings/S82_age8_trial3.png","3","",""
"","5399","image-button-response","34","null","189337","68895b4cc3548521ab78eeca","688999b6c10d744d179c6dae","616d9ef881036dfbfd63d2f4","5","S12_age4_trial5.png","false","false","https://kisumu-drawings.s3-us-west-1.amazonaws.com/tracings/S12_age4_trial5.png","3","",""
"","4540","image-button-response","35","null","194393","68895b4cc3548521ab78eeca","688999b6c10d744d179c6dae","616d9ef881036dfbfd63d2f4","3","S12_age4_trial3.png","false","false","https://kisumu-drawings.s3-us-west-1.amazonaws.com/tracings/S12_age4_trial3.png","4","",""
"","4768","image-button-response","36","null","199664","68895b4cc3548521ab78eeca","688999b6c10d744d179c6dae","616d9ef881036dfbfd63d2f4","5","S24_age5_trial5.png","false","false","https://kisumu-drawings.s3-us-west-1.amazonaws.com/tracings/S24_age5_trial5.png","2","",""
"","2625","image-button-response","37","null","202793","68895b4cc3548521ab78eeca","688999b6c10d744d179c6dae","616d9ef881036dfbfd63d2f4","1","S43_age6_trial1.png","false","false","https://kisumu-drawings.s3-us-west-1.amazonaws.com/tracings/S43_age6_trial1.png","3","",""
"","5161","image-button-response","38","null","208456","68895b4cc3548521ab78eeca","688999b6c10d744d179c6dae","616d9ef881036dfbfd63d2f4","4","S64_age7_trial4.png","false","false","https://kisumu-drawings.s3-us-west-1.amazonaws.com/tracings/S64_age7_trial4.png","2","",""
"","3963","image-button-response","39","null","212928","68895b4cc3548521ab78eeca","688999b6c10d744d179c6dae","616d9ef881036dfbfd63d2f4","1","S44_age6_trial1.png","false","false","https://kisumu-drawings.s3-us-west-1.amazonaws.com/tracings/S44_age6_trial1.png","3","",""
"","3335","image-button-response","40","null","216776","68895b4cc3548521ab78eeca","688999b6c10d744d179c6dae","616d9ef881036dfbfd63d2f4","2","S24_age5_trial2.png","false","false","https://kisumu-drawings.s3-us-west-1.amazonaws.com/tracings/S24_age5_trial2.png","2","",""
"","4169","image-button-response","41","null","221448","68895b4cc3548521ab78eeca","688999b6c10d744d179c6dae","616d9ef881036dfbfd63d2f4","1","S63_age7_trial1.png","false","false","https://kisumu-drawings.s3-us-west-1.amazonaws.com/tracings/S63_age7_trial1.png","3","",""
"","3277","image-button-response","42","null","225232","68895b4cc3548521ab78eeca","688999b6c10d744d179c6dae","616d9ef881036dfbfd63d2f4","2","S83_age8_trial2.png","false","false","https://kisumu-drawings.s3-us-west-1.amazonaws.com/tracings/S83_age8_trial2.png","4","",""
"","4891","image-button-response","43","null","230641","68895b4cc3548521ab78eeca","688999b6c10d744d179c6dae","616d9ef881036dfbfd63d2f4","1","S13_age4_trial1.png","false","false","https://kisumu-drawings.s3-us-west-1.amazonaws.com/tracings/S13_age4_trial1.png","3","",""
"","3168","image-button-response","44","null","234320","68895b4cc3548521ab78eeca","688999b6c10d744d179c6dae","616d9ef881036dfbfd63d2f4","3","S23_age5_trial3.png","false","false","https://kisumu-drawings.s3-us-west-1.amazonaws.com/tracings/S23_age5_trial3.png","1","",""
"","3934","image-button-response","45","null","238760","68895b4cc3548521ab78eeca","688999b6c10d744d179c6dae","616d9ef881036dfbfd63d2f4","4","S13_age4_trial4.png","false","false","https://kisumu-drawings.s3-us-west-1.amazonaws.com/tracings/S13_age4_trial4.png","2","",""
"","3558","image-button-response","46","null","242824","68895b4cc3548521ab78eeca","688999b6c10d744d179c6dae","616d9ef881036dfbfd63d2f4","2","S103_age9_trial2.png","false","false","https://kisumu-drawings.s3-us-west-1.amazonaws.com/tracings/S103_age9_trial2.png","5","",""
"","2536","image-button-response","47","null","245864","68895b4cc3548521ab78eeca","688999b6c10d744d179c6dae","616d9ef881036dfbfd63d2f4","3","S43_age6_trial3.png","false","false","https://kisumu-drawings.s3-us-west-1.amazonaws.com/tracings/S43_age6_trial3.png","3","",""
"","2927","image-button-response","48","null","249304","68895b4cc3548521ab78eeca","688999b6c10d744d179c6dae","616d9ef881036dfbfd63d2f4","2","S44_age6_trial2.png","false","false","https://kisumu-drawings.s3-us-west-1.amazonaws.com/tracings/S44_age6_trial2.png","3","",""
"","2736","image-button-response","49","null","252544","68895b4cc3548521ab78eeca","688999b6c10d744d179c6dae","616d9ef881036dfbfd63d2f4","5","S103_age9_trial5.png","false","false","https://kisumu-drawings.s3-us-west-1.amazonaws.com/tracings/S103_age9_trial5.png","4","",""
"","2785","image-button-response","50","null","255840","68895b4cc3548521ab78eeca","688999b6c10d744d179c6dae","616d9ef881036dfbfd63d2f4","2","S23_age5_trial2.png","false","false","https://kisumu-drawings.s3-us-west-1.amazonaws.com/tracings/S23_age5_trial2.png","1","",""
"","3278","image-button-response","51","null","259624","68895b4cc3548521ab78eeca","688999b6c10d744d179c6dae","616d9ef881036dfbfd63d2f4","4","S24_age5_trial4.png","false","false","https://kisumu-drawings.s3-us-west-1.amazonaws.com/tracings/S24_age5_trial4.png","2","",""
"","2945","image-button-response","52","null","263072","68895b4cc3548521ab78eeca","688999b6c10d744d179c6dae","616d9ef881036dfbfd63d2f4","1","S104_age9_trial1.png","false","false","https://kisumu-drawings.s3-us-west-1.amazonaws.com/tracings/S104_age9_trial1.png","5","",""
"","2916","image-button-response","53","null","266496","68895b4cc3548521ab78eeca","688999b6c10d744d179c6dae","616d9ef881036dfbfd63d2f4","2","S13_age4_trial2.png","false","false","https://kisumu-drawings.s3-us-west-1.amazonaws.com/tracings/S13_age4_trial2.png","2","",""
"","4263","image-button-response","54","null","271272","68895b4cc3548521ab78eeca","688999b6c10d744d179c6dae","616d9ef881036dfbfd63d2f4","4","S43_age6_trial4.png","false","false","https://kisumu-drawings.s3-us-west-1.amazonaws.com/tracings/S43_age6_trial4.png","2","",""
"","3251","image-button-response","55","null","275032","68895b4cc3548521ab78eeca","688999b6c10d744d179c6dae","616d9ef881036dfbfd63d2f4","5","S104_age9_trial5.png","false","false","https://kisumu-drawings.s3-us-west-1.amazonaws.com/tracings/S104_age9_trial5.png","4","",""
"","3449","image-button-response","56","null","278984","68895b4cc3548521ab78eeca","688999b6c10d744d179c6dae","616d9ef881036dfbfd63d2f4","5","S23_age5_trial5.png","false","false","https://kisumu-drawings.s3-us-west-1.amazonaws.com/tracings/S23_age5_trial5.png","1","",""
"","7014","image-button-response","57","null","286504","68895b4cc3548521ab78eeca","688999b6c10d744d179c6dae","616d9ef881036dfbfd63d2f4","5","S63_age7_trial5.png","false","false","https://kisumu-drawings.s3-us-west-1.amazonaws.com/tracings/S63_age7_trial5.png","3","",""
"","4352","image-button-response","58","null","291360","68895b4cc3548521ab78eeca","688999b6c10d744d179c6dae","616d9ef881036dfbfd63d2f4","3","S24_age5_trial3.png","false","false","https://kisumu-drawings.s3-us-west-1.amazonaws.com/tracings/S24_age5_trial3.png","2","",""
"","3673","image-button-response","59","null","295536","68895b4cc3548521ab78eeca","688999b6c10d744d179c6dae","616d9ef881036dfbfd63d2f4","3","S13_age4_trial3.png","false","false","https://kisumu-drawings.s3-us-west-1.amazonaws.com/tracings/S13_age4_trial3.png","3","",""
"","4392","image-button-response","60","null","300439","68895b4cc3548521ab78eeca","688999b6c10d744d179c6dae","616d9ef881036dfbfd63d2f4","1","S64_age7_trial1.png","false","false","https://kisumu-drawings.s3-us-west-1.amazonaws.com/tracings/S64_age7_trial1.png","3","",""
"","4540","image-button-response","61","null","305487","68895b4cc3548521ab78eeca","688999b6c10d744d179c6dae","616d9ef881036dfbfd63d2f4","4","S12_age4_trial4.png","false","false","https://kisumu-drawings.s3-us-west-1.amazonaws.com/tracings/S12_age4_trial4.png","2","",""
