"view_history","rt","trial_type","trial_index","plugin_version","time_elapsed","study_id","session_id","participant_id","tracing_type","tracing_id","catch_trial","prep_trial","stimulus","response","sketcher_category","response_category"
"[{""page_index"":0,""viewing_time"":1963},{""page_index"":1,""viewing_time"":9573},{""page_index"":2,""viewing_time"":4082},{""page_index"":3,""viewing_time"":3176},{""page_index"":4,""viewing_time"":2480}]","21273","instructions","0","null","21280","68895b4cc3548521ab78eeca","6889c8a08f0a691ae230127f","631c8e97db06f601f81bd82f","","","","","","","",""
"","6315","image-button-response","1","null","28612","68895b4cc3548521ab78eeca","6889c8a08f0a691ae230127f","631c8e97db06f601f81bd82f","1","S14_age4_trial1.png","false","false","https://kisumu-drawings.s3-us-west-1.amazonaws.com/tracings/S14_age4_trial1.png","4","",""
"","6678","image-button-response","2","null","35801","68895b4cc3548521ab78eeca","6889c8a08f0a691ae230127f","631c8e97db06f601f81bd82f","3","S64_age7_trial3.png","false","false","https://kisumu-drawings.s3-us-west-1.amazonaws.com/tracings/S64_age7_trial3.png","5","",""
"","4502","image-button-response","3","null","40818","68895b4cc3548521ab78eeca","6889c8a08f0a691ae230127f","631c8e97db06f601f81bd82f","3","S82_age8_trial3.png","false","false","https://kisumu-drawings.s3-us-west-1.amazonaws.com/tracings/S82_age8_trial3.png","5","",""
"","3516","image-button-response","4","null","44848","68895b4cc3548521ab78eeca","6889c8a08f0a691ae230127f","631c8e97db06f601f81bd82f","3","S44_age6_trial3.png","false","false","https://kisumu-drawings.s3-us-west-1.amazonaws.com/tracings/S44_age6_trial3.png","5","",""
"","2526","image-button-response","5","null","47887","68895b4cc3548521ab78eeca","6889c8a08f0a691ae230127f","631c8e97db06f601f81bd82f","5","S44_age6_trial5.png","false","false","https://kisumu-drawings.s3-us-west-1.amazonaws.com/tracings/S44_age6_trial5.png","5","",""
"","3550","image-button-response","6","null","51954","68895b4cc3548521ab78eeca","6889c8a08f0a691ae230127f","631c8e97db06f601f81bd82f","4","S13_age4_trial4.png","false","false","https://kisumu-drawings.s3-us-west-1.amazonaws.com/tracings/S13_age4_trial4.png","4","",""
"","2824","image-button-response","7","null","55291","68895b4cc3548521ab78eeca","6889c8a08f0a691ae230127f","631c8e97db06f601f81bd82f","5","S64_age7_trial5.png","false","false","https://kisumu-drawings.s3-us-west-1.amazonaws.com/tracings/S64_age7_trial5.png","5","",""
"","2500","image-button-response","8","null","58301","68895b4cc3548521ab78eeca","6889c8a08f0a691ae230127f","631c8e97db06f601f81bd82f","5","S12_age4_trial5.png","false","false","https://kisumu-drawings.s3-us-west-1.amazonaws.com/tracings/S12_age4_trial5.png","5","",""
"","2315","image-button-response","9","null","61130","68895b4cc3548521ab78eeca","6889c8a08f0a691ae230127f","631c8e97db06f601f81bd82f","4","S106_age9_trial4.png","false","false","https://kisumu-drawings.s3-us-west-1.amazonaws.com/tracings/S106_age9_trial4.png","5","",""
"","3204","image-button-response","10","null","64850","68895b4cc3548521ab78eeca","6889c8a08f0a691ae230127f","631c8e97db06f601f81bd82f","5","S104_age9_trial5.png","false","false","https://kisumu-drawings.s3-us-west-1.amazonaws.com/tracings/S104_age9_trial5.png","5","",""
"","4223","image-button-response","11","null","69578","68895b4cc3548521ab78eeca","6889c8a08f0a691ae230127f","631c8e97db06f601f81bd82f","1","S13_age4_trial1.png","false","false","https://kisumu-drawings.s3-us-west-1.amazonaws.com/tracings/S13_age4_trial1.png","4","",""
"","4064","image-button-response","12","null","74146","68895b4cc3548521ab78eeca","6889c8a08f0a691ae230127f","631c8e97db06f601f81bd82f","3","S45_age6_trial3.png","false","false","https://kisumu-drawings.s3-us-west-1.amazonaws.com/tracings/S45_age6_trial3.png","4","",""
"","3654","image-button-response","13","null","78310","68895b4cc3548521ab78eeca","6889c8a08f0a691ae230127f","631c8e97db06f601f81bd82f","2","S84_age8_trial2.png","false","false","https://kisumu-drawings.s3-us-west-1.amazonaws.com/tracings/S84_age8_trial2.png","5","",""
"","3221","image-button-response","14","null","82041","68895b4cc3548521ab78eeca","6889c8a08f0a691ae230127f","631c8e97db06f601f81bd82f","3","S104_age9_trial3.png","false","false","https://kisumu-drawings.s3-us-west-1.amazonaws.com/tracings/S104_age9_trial3.png","5","",""
"","4392","image-button-response","15","null","86947","68895b4cc3548521ab78eeca","6889c8a08f0a691ae230127f","631c8e97db06f601f81bd82f","3","S23_age5_trial3.png","false","false","https://kisumu-drawings.s3-us-west-1.amazonaws.com/tracings/S23_age5_trial3.png","1","",""
"","5386","image-button-response","16","null","92846","68895b4cc3548521ab78eeca","6889c8a08f0a691ae230127f","631c8e97db06f601f81bd82f","1","S105_age9_trial1.png","false","false","https://kisumu-drawings.s3-us-west-1.amazonaws.com/tracings/S105_age9_trial1.png","5","",""
"","3428","image-button-response","17","null","96776","68895b4cc3548521ab78eeca","6889c8a08f0a691ae230127f","631c8e97db06f601f81bd82f","1","S44_age6_trial1.png","false","false","https://kisumu-drawings.s3-us-west-1.amazonaws.com/tracings/S44_age6_trial1.png","5","",""
"","2833","image-button-response","18","null","100112","68895b4cc3548521ab78eeca","6889c8a08f0a691ae230127f","631c8e97db06f601f81bd82f","1","S83_age8_trial1.png","false","false","https://kisumu-drawings.s3-us-west-1.amazonaws.com/tracings/S83_age8_trial1.png","5","",""
"","7130","image-button-response","19","null","107752","68895b4cc3548521ab78eeca","6889c8a08f0a691ae230127f","631c8e97db06f601f81bd82f","1","S24_age5_trial1.png","false","false","https://kisumu-drawings.s3-us-west-1.amazonaws.com/tracings/S24_age5_trial1.png","4","",""
"","2863","image-button-response","20","null","111125","68895b4cc3548521ab78eeca","6889c8a08f0a691ae230127f","631c8e97db06f601f81bd82f","2","S103_age9_trial2.png","false","false","https://kisumu-drawings.s3-us-west-1.amazonaws.com/tracings/S103_age9_trial2.png","5","",""
"","2021","image-button-response","21","null","113658","68895b4cc3548521ab78eeca","6889c8a08f0a691ae230127f","631c8e97db06f601f81bd82f","2","S14_age4_trial2.png","false","false","https://kisumu-drawings.s3-us-west-1.amazonaws.com/tracings/S14_age4_trial2.png","4","",""
"","1968","image-button-response","22","null","116139","68895b4cc3548521ab78eeca","6889c8a08f0a691ae230127f","631c8e97db06f601f81bd82f","2","S83_age8_trial2.png","false","false","https://kisumu-drawings.s3-us-west-1.amazonaws.com/tracings/S83_age8_trial2.png","5","",""
"","4450","image-button-response","23","null","121092","68895b4cc3548521ab78eeca","6889c8a08f0a691ae230127f","631c8e97db06f601f81bd82f","2","S23_age5_trial2.png","false","false","https://kisumu-drawings.s3-us-west-1.amazonaws.com/tracings/S23_age5_trial2.png","3","",""
"","3054","image-button-response","24","null","124651","68895b4cc3548521ab78eeca","6889c8a08f0a691ae230127f","631c8e97db06f601f81bd82f","3","S14_age4_trial3.png","false","false","https://kisumu-drawings.s3-us-west-1.amazonaws.com/tracings/S14_age4_trial3.png","2","",""
"","2212","image-button-response","25","null","127377","68895b4cc3548521ab78eeca","6889c8a08f0a691ae230127f","631c8e97db06f601f81bd82f","4","S64_age7_trial4.png","false","false","https://kisumu-drawings.s3-us-west-1.amazonaws.com/tracings/S64_age7_trial4.png","5","",""
"","2785","image-button-response","26","null","130669","68895b4cc3548521ab78eeca","6889c8a08f0a691ae230127f","631c8e97db06f601f81bd82f","2","S24_age5_trial2.png","false","false","https://kisumu-drawings.s3-us-west-1.amazonaws.com/tracings/S24_age5_trial2.png","4","",""
"","2267","image-button-response","27","null","133441","68895b4cc3548521ab78eeca","6889c8a08f0a691ae230127f","631c8e97db06f601f81bd82f","5","S13_age4_trial5.png","false","false","https://kisumu-drawings.s3-us-west-1.amazonaws.com/tracings/S13_age4_trial5.png","4","",""
"","1779","image-button-response","28","null","135726","68895b4cc3548521ab78eeca","6889c8a08f0a691ae230127f","631c8e97db06f601f81bd82f","4","S24_age5_trial4.png","false","false","https://kisumu-drawings.s3-us-west-1.amazonaws.com/tracings/S24_age5_trial4.png","4","",""
"","2844","image-button-response","29","null","139085","68895b4cc3548521ab78eeca","6889c8a08f0a691ae230127f","631c8e97db06f601f81bd82f","","","true","false","stimuli/catch_trials/catch_trial.png","0","","1"
"","3034","image-button-response","30","null","142622","68895b4cc3548521ab78eeca","6889c8a08f0a691ae230127f","631c8e97db06f601f81bd82f","5","S83_age8_trial5.png","false","false","https://kisumu-drawings.s3-us-west-1.amazonaws.com/tracings/S83_age8_trial5.png","5","",""
"","1967","image-button-response","31","null","145097","68895b4cc3548521ab78eeca","6889c8a08f0a691ae230127f","631c8e97db06f601f81bd82f","2","S65_age7_trial2.png","false","false","https://kisumu-drawings.s3-us-west-1.amazonaws.com/tracings/S65_age7_trial2.png","5","",""
"","1857","image-button-response","32","null","147458","68895b4cc3548521ab78eeca","6889c8a08f0a691ae230127f","631c8e97db06f601f81bd82f","2","S104_age9_trial2.png","false","false","https://kisumu-drawings.s3-us-west-1.amazonaws.com/tracings/S104_age9_trial2.png","5","",""
"","3063","image-button-response","33","null","151031","68895b4cc3548521ab78eeca","6889c8a08f0a691ae230127f","631c8e97db06f601f81bd82f","5","S103_age9_trial5.png","false","false","https://kisumu-drawings.s3-us-west-1.amazonaws.com/tracings/S103_age9_trial5.png","5","",""
"","4513","image-button-response","34","null","156046","68895b4cc3548521ab78eeca","6889c8a08f0a691ae230127f","631c8e97db06f601f81bd82f","5","S23_age5_trial5.png","false","false","https://kisumu-drawings.s3-us-west-1.amazonaws.com/tracings/S23_age5_trial5.png","2","",""
"","2270","image-button-response","35","null","158832","68895b4cc3548521ab78eeca","6889c8a08f0a691ae230127f","631c8e97db06f601f81bd82f","4","S65_age7_trial4.png","false","false","https://kisumu-drawings.s3-us-west-1.amazonaws.com/tracings/S65_age7_trial4.png","5","",""
"","3238","image-button-response","36","null","162577","68895b4cc3548521ab78eeca","6889c8a08f0a691ae230127f","631c8e97db06f601f81bd82f","2","S64_age7_trial2.png","false","false","https://kisumu-drawings.s3-us-west-1.amazonaws.com/tracings/S64_age7_trial2.png","5","",""
"","2813","image-button-response","37","null","165906","68895b4cc3548521ab78eeca","6889c8a08f0a691ae230127f","631c8e97db06f601f81bd82f","4","S45_age6_trial4.png","false","false","https://kisumu-drawings.s3-us-west-1.amazonaws.com/tracings/S45_age6_trial4.png","4","",""
"","3724","image-button-response","38","null","170147","68895b4cc3548521ab78eeca","6889c8a08f0a691ae230127f","631c8e97db06f601f81bd82f","3","S24_age5_trial3.png","false","false","https://kisumu-drawings.s3-us-west-1.amazonaws.com/tracings/S24_age5_trial3.png","4","",""
"","2071","image-button-response","39","null","172721","68895b4cc3548521ab78eeca","6889c8a08f0a691ae230127f","631c8e97db06f601f81bd82f","2","S45_age6_trial2.png","false","false","https://kisumu-drawings.s3-us-west-1.amazonaws.com/tracings/S45_age6_trial2.png","4","",""
"","2155","image-button-response","40","null","175383","68895b4cc3548521ab78eeca","6889c8a08f0a691ae230127f","631c8e97db06f601f81bd82f","5","S82_age8_trial5.png","false","false","https://kisumu-drawings.s3-us-west-1.amazonaws.com/tracings/S82_age8_trial5.png","5","",""
"","1916","image-button-response","41","null","177804","68895b4cc3548521ab78eeca","6889c8a08f0a691ae230127f","631c8e97db06f601f81bd82f","2","S44_age6_trial2.png","false","false","https://kisumu-drawings.s3-us-west-1.amazonaws.com/tracings/S44_age6_trial2.png","5","",""
"","1669","image-button-response","42","null","179988","68895b4cc3548521ab78eeca","6889c8a08f0a691ae230127f","631c8e97db06f601f81bd82f","3","S103_age9_trial3.png","false","false","https://kisumu-drawings.s3-us-west-1.amazonaws.com/tracings/S103_age9_trial3.png","5","",""
"","1684","image-button-response","43","null","182175","68895b4cc3548521ab78eeca","6889c8a08f0a691ae230127f","631c8e97db06f601f81bd82f","4","S83_age8_trial4.png","false","false","https://kisumu-drawings.s3-us-west-1.amazonaws.com/tracings/S83_age8_trial4.png","5","",""
"","1950","image-button-response","44","null","184628","68895b4cc3548521ab78eeca","6889c8a08f0a691ae230127f","631c8e97db06f601f81bd82f","1","S104_age9_trial1.png","false","false","https://kisumu-drawings.s3-us-west-1.amazonaws.com/tracings/S104_age9_trial1.png","5","",""
"","2353","image-button-response","45","null","187486","68895b4cc3548521ab78eeca","6889c8a08f0a691ae230127f","631c8e97db06f601f81bd82f","4","S23_age5_trial4.png","false","false","https://kisumu-drawings.s3-us-west-1.amazonaws.com/tracings/S23_age5_trial4.png","2","",""
"","2595","image-button-response","46","null","190594","68895b4cc3548521ab78eeca","6889c8a08f0a691ae230127f","631c8e97db06f601f81bd82f","4","S82_age8_trial4.png","false","false","https://kisumu-drawings.s3-us-west-1.amazonaws.com/tracings/S82_age8_trial4.png","5","",""
"","4283","image-button-response","47","null","195390","68895b4cc3548521ab78eeca","6889c8a08f0a691ae230127f","631c8e97db06f601f81bd82f","1","S63_age7_trial1.png","false","false","https://kisumu-drawings.s3-us-west-1.amazonaws.com/tracings/S63_age7_trial1.png","5","",""
"","9055","image-button-response","48","null","204959","68895b4cc3548521ab78eeca","6889c8a08f0a691ae230127f","631c8e97db06f601f81bd82f","5","S65_age7_trial5.png","false","false","https://kisumu-drawings.s3-us-west-1.amazonaws.com/tracings/S65_age7_trial5.png","5","",""
"","12841","image-button-response","49","null","218303","68895b4cc3548521ab78eeca","6889c8a08f0a691ae230127f","631c8e97db06f601f81bd82f","2","S13_age4_trial2.png","false","false","https://kisumu-drawings.s3-us-west-1.amazonaws.com/tracings/S13_age4_trial2.png","4","",""
"","4952","image-button-response","50","null","223761","68895b4cc3548521ab78eeca","6889c8a08f0a691ae230127f","631c8e97db06f601f81bd82f","4","S105_age9_trial4.png","false","false","https://kisumu-drawings.s3-us-west-1.amazonaws.com/tracings/S105_age9_trial4.png","5","",""
"","11833","image-button-response","51","null","236100","68895b4cc3548521ab78eeca","6889c8a08f0a691ae230127f","631c8e97db06f601f81bd82f","1","S84_age8_trial1.png","false","false","https://kisumu-drawings.s3-us-west-1.amazonaws.com/tracings/S84_age8_trial1.png","5","",""
"","4762","image-button-response","52","null","241364","68895b4cc3548521ab78eeca","6889c8a08f0a691ae230127f","631c8e97db06f601f81bd82f","5","S43_age6_trial5.png","false","false","https://kisumu-drawings.s3-us-west-1.amazonaws.com/tracings/S43_age6_trial5.png","4","",""
"","27923","image-button-response","53","null","269797","68895b4cc3548521ab78eeca","6889c8a08f0a691ae230127f","631c8e97db06f601f81bd82f","4","S12_age4_trial4.png","false","false","https://kisumu-drawings.s3-us-west-1.amazonaws.com/tracings/S12_age4_trial4.png","4","",""
"","2896","image-button-response","54","null","273200","68895b4cc3548521ab78eeca","6889c8a08f0a691ae230127f","631c8e97db06f601f81bd82f","4","S43_age6_trial4.png","false","false","https://kisumu-drawings.s3-us-west-1.amazonaws.com/tracings/S43_age6_trial4.png","4","",""
"","6911","image-button-response","55","null","280614","68895b4cc3548521ab78eeca","6889c8a08f0a691ae230127f","631c8e97db06f601f81bd82f","1","S43_age6_trial1.png","false","false","https://kisumu-drawings.s3-us-west-1.amazonaws.com/tracings/S43_age6_trial1.png","4","",""
"","5455","image-button-response","56","null","286585","68895b4cc3548521ab78eeca","6889c8a08f0a691ae230127f","631c8e97db06f601f81bd82f","1","S23_age5_trial1.png","false","false","https://kisumu-drawings.s3-us-west-1.amazonaws.com/tracings/S23_age5_trial1.png","4","",""
"","2592","image-button-response","57","null","289692","68895b4cc3548521ab78eeca","6889c8a08f0a691ae230127f","631c8e97db06f601f81bd82f","3","S13_age4_trial3.png","false","false","https://kisumu-drawings.s3-us-west-1.amazonaws.com/tracings/S13_age4_trial3.png","4","",""
"","2217","image-button-response","58","null","292425","68895b4cc3548521ab78eeca","6889c8a08f0a691ae230127f","631c8e97db06f601f81bd82f","3","S83_age8_trial3.png","false","false","https://kisumu-drawings.s3-us-west-1.amazonaws.com/tracings/S83_age8_trial3.png","5","",""
"","4225","image-button-response","59","null","297154","68895b4cc3548521ab78eeca","6889c8a08f0a691ae230127f","631c8e97db06f601f81bd82f","5","S24_age5_trial5.png","false","false","https://kisumu-drawings.s3-us-west-1.amazonaws.com/tracings/S24_age5_trial5.png","4","",""
"","6381","image-button-response","60","null","304040","68895b4cc3548521ab78eeca","6889c8a08f0a691ae230127f","631c8e97db06f601f81bd82f","1","S64_age7_trial1.png","false","false","https://kisumu-drawings.s3-us-west-1.amazonaws.com/tracings/S64_age7_trial1.png","4","",""
"","3533","image-button-response","61","null","308081","68895b4cc3548521ab78eeca","6889c8a08f0a691ae230127f","631c8e97db06f601f81bd82f","3","S63_age7_trial3.png","false","false","https://kisumu-drawings.s3-us-west-1.amazonaws.com/tracings/S63_age7_trial3.png","5","",""
