"view_history","rt","trial_type","trial_index","plugin_version","time_elapsed","study_id","session_id","participant_id","tracing_type","tracing_id","catch_trial","prep_trial","stimulus","response","sketcher_category","response_category"
"[{""page_index"":0,""viewing_time"":19993},{""page_index"":1,""viewing_time"":46869},{""page_index"":2,""viewing_time"":8248},{""page_index"":3,""viewing_time"":8136},{""page_index"":4,""viewing_time"":8376}]","91622","instructions","0","null","91631","68895b4cc3548521ab78eeca","68898c7de380e0fa864d774d","639b9ab341f4429b1b3c06a2","","","","","","","",""
"","18504","image-button-response","1","null","111151","68895b4cc3548521ab78eeca","68898c7de380e0fa864d774d","639b9ab341f4429b1b3c06a2","3","S22_age5_trial3.png","false","false","https://kisumu-drawings.s3-us-west-1.amazonaws.com/tracings/S22_age5_trial3.png","4","",""
"","5440","image-button-response","2","null","117095","68895b4cc3548521ab78eeca","68898c7de380e0fa864d774d","639b9ab341f4429b1b3c06a2","2","S82_age8_trial2.png","false","false","https://kisumu-drawings.s3-us-west-1.amazonaws.com/tracings/S82_age8_trial2.png","4","",""
"","4003","image-button-response","3","null","121615","68895b4cc3548521ab78eeca","68898c7de380e0fa864d774d","639b9ab341f4429b1b3c06a2","1","S63_age7_trial1.png","false","false","https://kisumu-drawings.s3-us-west-1.amazonaws.com/tracings/S63_age7_trial1.png","4","",""
"","6950","image-button-response","4","null","129071","68895b4cc3548521ab78eeca","68898c7de380e0fa864d774d","639b9ab341f4429b1b3c06a2","4","S63_age7_trial4.png","false","false","https://kisumu-drawings.s3-us-west-1.amazonaws.com/tracings/S63_age7_trial4.png","4","",""
"","5593","image-button-response","5","null","135167","68895b4cc3548521ab78eeca","68898c7de380e0fa864d774d","639b9ab341f4429b1b3c06a2","4","S81_age8_trial4.png","false","false","https://kisumu-drawings.s3-us-west-1.amazonaws.com/tracings/S81_age8_trial4.png","5","",""
"","4793","image-button-response","6","null","140463","68895b4cc3548521ab78eeca","68898c7de380e0fa864d774d","639b9ab341f4429b1b3c06a2","3","S41_age6_trial3.png","false","false","https://kisumu-drawings.s3-us-west-1.amazonaws.com/tracings/S41_age6_trial3.png","4","",""
"","7246","image-button-response","7","null","148215","68895b4cc3548521ab78eeca","68898c7de380e0fa864d774d","639b9ab341f4429b1b3c06a2","4","S22_age5_trial4.png","false","false","https://kisumu-drawings.s3-us-west-1.amazonaws.com/tracings/S22_age5_trial4.png","4","",""
"","4784","image-button-response","8","null","153503","68895b4cc3548521ab78eeca","68898c7de380e0fa864d774d","639b9ab341f4429b1b3c06a2","4","S64_age7_trial4.png","false","false","https://kisumu-drawings.s3-us-west-1.amazonaws.com/tracings/S64_age7_trial4.png","4","",""
"","7503","image-button-response","9","null","161519","68895b4cc3548521ab78eeca","68898c7de380e0fa864d774d","639b9ab341f4429b1b3c06a2","5","S63_age7_trial5.png","false","false","https://kisumu-drawings.s3-us-west-1.amazonaws.com/tracings/S63_age7_trial5.png","4","",""
"","2743","image-button-response","10","null","164766","68895b4cc3548521ab78eeca","68898c7de380e0fa864d774d","639b9ab341f4429b1b3c06a2","2","S62_age7_trial2.png","false","false","https://kisumu-drawings.s3-us-west-1.amazonaws.com/tracings/S62_age7_trial2.png","4","",""
"","6325","image-button-response","11","null","171598","68895b4cc3548521ab78eeca","68898c7de380e0fa864d774d","639b9ab341f4429b1b3c06a2","5","S23_age5_trial5.png","false","false","https://kisumu-drawings.s3-us-west-1.amazonaws.com/tracings/S23_age5_trial5.png","2","",""
"","3146","image-button-response","12","null","175247","68895b4cc3548521ab78eeca","68898c7de380e0fa864d774d","639b9ab341f4429b1b3c06a2","2","S101_age9_trial2.png","false","false","https://kisumu-drawings.s3-us-west-1.amazonaws.com/tracings/S101_age9_trial2.png","4","",""
"","7352","image-button-response","13","null","183103","68895b4cc3548521ab78eeca","68898c7de380e0fa864d774d","639b9ab341f4429b1b3c06a2","1","S22_age5_trial1.png","false","false","https://kisumu-drawings.s3-us-west-1.amazonaws.com/tracings/S22_age5_trial1.png","3","",""
"","5677","image-button-response","14","null","189286","68895b4cc3548521ab78eeca","68898c7de380e0fa864d774d","639b9ab341f4429b1b3c06a2","4","S103_age9_trial4.png","false","false","https://kisumu-drawings.s3-us-west-1.amazonaws.com/tracings/S103_age9_trial4.png","4","",""
"","3871","image-button-response","15","null","193671","68895b4cc3548521ab78eeca","68898c7de380e0fa864d774d","639b9ab341f4429b1b3c06a2","1","S103_age9_trial1.png","false","false","https://kisumu-drawings.s3-us-west-1.amazonaws.com/tracings/S103_age9_trial1.png","5","",""
"","8418","image-button-response","16","null","202591","68895b4cc3548521ab78eeca","68898c7de380e0fa864d774d","639b9ab341f4429b1b3c06a2","5","S13_age4_trial5.png","false","false","https://kisumu-drawings.s3-us-west-1.amazonaws.com/tracings/S13_age4_trial5.png","4","",""
"","8567","image-button-response","17","null","211663","68895b4cc3548521ab78eeca","68898c7de380e0fa864d774d","639b9ab341f4429b1b3c06a2","4","S104_age9_trial4.png","false","false","https://kisumu-drawings.s3-us-west-1.amazonaws.com/tracings/S104_age9_trial4.png","5","",""
"","4657","image-button-response","18","null","216830","68895b4cc3548521ab78eeca","68898c7de380e0fa864d774d","639b9ab341f4429b1b3c06a2","2","S103_age9_trial2.png","false","false","https://kisumu-drawings.s3-us-west-1.amazonaws.com/tracings/S103_age9_trial2.png","5","",""
"","5666","image-button-response","19","null","223007","68895b4cc3548521ab78eeca","68898c7de380e0fa864d774d","639b9ab341f4429b1b3c06a2","1","S81_age8_trial1.png","false","false","https://kisumu-drawings.s3-us-west-1.amazonaws.com/tracings/S81_age8_trial1.png","4","",""
"","6286","image-button-response","20","null","229807","68895b4cc3548521ab78eeca","68898c7de380e0fa864d774d","639b9ab341f4429b1b3c06a2","4","S100_age8_trial4.png","false","false","https://kisumu-drawings.s3-us-west-1.amazonaws.com/tracings/S100_age8_trial4.png","4","",""
"","4750","image-button-response","21","null","235071","68895b4cc3548521ab78eeca","68898c7de380e0fa864d774d","639b9ab341f4429b1b3c06a2","4","S12_age4_trial4.png","false","false","https://kisumu-drawings.s3-us-west-1.amazonaws.com/tracings/S12_age4_trial4.png","3","",""
"","3660","image-button-response","22","null","239238","68895b4cc3548521ab78eeca","68898c7de380e0fa864d774d","639b9ab341f4429b1b3c06a2","5","S82_age8_trial5.png","false","false","https://kisumu-drawings.s3-us-west-1.amazonaws.com/tracings/S82_age8_trial5.png","4","",""
"","2914","image-button-response","23","null","242663","68895b4cc3548521ab78eeca","68898c7de380e0fa864d774d","639b9ab341f4429b1b3c06a2","1","S43_age6_trial1.png","false","false","https://kisumu-drawings.s3-us-west-1.amazonaws.com/tracings/S43_age6_trial1.png","4","",""
"","2780","image-button-response","24","null","245951","68895b4cc3548521ab78eeca","68898c7de380e0fa864d774d","639b9ab341f4429b1b3c06a2","5","S41_age6_trial5.png","false","false","https://kisumu-drawings.s3-us-west-1.amazonaws.com/tracings/S41_age6_trial5.png","4","",""
"","3552","image-button-response","25","null","250006","68895b4cc3548521ab78eeca","68898c7de380e0fa864d774d","639b9ab341f4429b1b3c06a2","","","true","false","stimuli/catch_trials/catch_trial.png","0","","1"
"","5689","image-button-response","26","null","256198","68895b4cc3548521ab78eeca","68898c7de380e0fa864d774d","639b9ab341f4429b1b3c06a2","4","S44_age6_trial4.png","false","false","https://kisumu-drawings.s3-us-west-1.amazonaws.com/tracings/S44_age6_trial4.png","4","",""
"","2185","image-button-response","27","null","258886","68895b4cc3548521ab78eeca","68898c7de380e0fa864d774d","639b9ab341f4429b1b3c06a2","3","S62_age7_trial3.png","false","false","https://kisumu-drawings.s3-us-west-1.amazonaws.com/tracings/S62_age7_trial3.png","4","",""
"","3636","image-button-response","28","null","263039","68895b4cc3548521ab78eeca","68898c7de380e0fa864d774d","639b9ab341f4429b1b3c06a2","3","S43_age6_trial3.png","false","false","https://kisumu-drawings.s3-us-west-1.amazonaws.com/tracings/S43_age6_trial3.png","4","",""
"","5608","image-button-response","29","null","269158","68895b4cc3548521ab78eeca","68898c7de380e0fa864d774d","639b9ab341f4429b1b3c06a2","1","S61_age7_trial1.png","false","false","https://kisumu-drawings.s3-us-west-1.amazonaws.com/tracings/S61_age7_trial1.png","5","",""
"","2691","image-button-response","30","null","272351","68895b4cc3548521ab78eeca","68898c7de380e0fa864d774d","639b9ab341f4429b1b3c06a2","3","S100_age8_trial3.png","false","false","https://kisumu-drawings.s3-us-west-1.amazonaws.com/tracings/S100_age8_trial3.png","4","",""
"","3461","image-button-response","31","null","276319","68895b4cc3548521ab78eeca","68898c7de380e0fa864d774d","639b9ab341f4429b1b3c06a2","2","S42_age6_trial2.png","false","false","https://kisumu-drawings.s3-us-west-1.amazonaws.com/tracings/S42_age6_trial2.png","4","",""
"","4175","image-button-response","32","null","281006","68895b4cc3548521ab78eeca","68898c7de380e0fa864d774d","639b9ab341f4429b1b3c06a2","3","S61_age7_trial3.png","false","false","https://kisumu-drawings.s3-us-west-1.amazonaws.com/tracings/S61_age7_trial3.png","3","",""
"","2370","image-button-response","33","null","283879","68895b4cc3548521ab78eeca","68898c7de380e0fa864d774d","639b9ab341f4429b1b3c06a2","5","S42_age6_trial5.png","false","false","https://kisumu-drawings.s3-us-west-1.amazonaws.com/tracings/S42_age6_trial5.png","4","",""
"","2755","image-button-response","34","null","287151","68895b4cc3548521ab78eeca","68898c7de380e0fa864d774d","639b9ab341f4429b1b3c06a2","5","S103_age9_trial5.png","false","false","https://kisumu-drawings.s3-us-west-1.amazonaws.com/tracings/S103_age9_trial5.png","4","",""
"","4536","image-button-response","35","null","292198","68895b4cc3548521ab78eeca","68898c7de380e0fa864d774d","639b9ab341f4429b1b3c06a2","3","S10_age4_trial3.png","false","false","https://kisumu-drawings.s3-us-west-1.amazonaws.com/tracings/S10_age4_trial3.png","3","",""
"","3322","image-button-response","36","null","296023","68895b4cc3548521ab78eeca","68898c7de380e0fa864d774d","639b9ab341f4429b1b3c06a2","1","S21_age5_trial1.png","false","false","https://kisumu-drawings.s3-us-west-1.amazonaws.com/tracings/S21_age5_trial1.png","4","",""
"","3480","image-button-response","37","null","300014","68895b4cc3548521ab78eeca","68898c7de380e0fa864d774d","639b9ab341f4429b1b3c06a2","1","S44_age6_trial1.png","false","false","https://kisumu-drawings.s3-us-west-1.amazonaws.com/tracings/S44_age6_trial1.png","4","",""
"","4550","image-button-response","38","null","305078","68895b4cc3548521ab78eeca","68898c7de380e0fa864d774d","639b9ab341f4429b1b3c06a2","1","S11_age4_trial1.png","false","false","https://kisumu-drawings.s3-us-west-1.amazonaws.com/tracings/S11_age4_trial1.png","2","",""
"","3287","image-button-response","39","null","308870","68895b4cc3548521ab78eeca","68898c7de380e0fa864d774d","639b9ab341f4429b1b3c06a2","3","S102_age9_trial3.png","false","false","https://kisumu-drawings.s3-us-west-1.amazonaws.com/tracings/S102_age9_trial3.png","4","",""
"","3611","image-button-response","40","null","312991","68895b4cc3548521ab78eeca","68898c7de380e0fa864d774d","639b9ab341f4429b1b3c06a2","3","S103_age9_trial3.png","false","false","https://kisumu-drawings.s3-us-west-1.amazonaws.com/tracings/S103_age9_trial3.png","4","",""
"","4716","image-button-response","41","null","318222","68895b4cc3548521ab78eeca","68898c7de380e0fa864d774d","639b9ab341f4429b1b3c06a2","4","S21_age5_trial4.png","false","false","https://kisumu-drawings.s3-us-west-1.amazonaws.com/tracings/S21_age5_trial4.png","4","",""
"","7327","image-button-response","42","null","326055","68895b4cc3548521ab78eeca","68898c7de380e0fa864d774d","639b9ab341f4429b1b3c06a2","4","S43_age6_trial4.png","false","false","https://kisumu-drawings.s3-us-west-1.amazonaws.com/tracings/S43_age6_trial4.png","3","",""
"","4382","image-button-response","43","null","330942","68895b4cc3548521ab78eeca","68898c7de380e0fa864d774d","639b9ab341f4429b1b3c06a2","2","S83_age8_trial2.png","false","false","https://kisumu-drawings.s3-us-west-1.amazonaws.com/tracings/S83_age8_trial2.png","5","",""
"","3971","image-button-response","44","null","335430","68895b4cc3548521ab78eeca","68898c7de380e0fa864d774d","639b9ab341f4429b1b3c06a2","1","S100_age8_trial1.png","false","false","https://kisumu-drawings.s3-us-west-1.amazonaws.com/tracings/S100_age8_trial1.png","5","",""
"","8890","image-button-response","45","null","344831","68895b4cc3548521ab78eeca","68898c7de380e0fa864d774d","639b9ab341f4429b1b3c06a2","5","S81_age8_trial5.png","false","false","https://kisumu-drawings.s3-us-west-1.amazonaws.com/tracings/S81_age8_trial5.png","4","",""
"","2439","image-button-response","46","null","347775","68895b4cc3548521ab78eeca","68898c7de380e0fa864d774d","639b9ab341f4429b1b3c06a2","5","S21_age5_trial5.png","false","false","https://kisumu-drawings.s3-us-west-1.amazonaws.com/tracings/S21_age5_trial5.png","4","",""
"","7519","image-button-response","47","null","355799","68895b4cc3548521ab78eeca","68898c7de380e0fa864d774d","639b9ab341f4429b1b3c06a2","3","S82_age8_trial3.png","false","false","https://kisumu-drawings.s3-us-west-1.amazonaws.com/tracings/S82_age8_trial3.png","5","",""
"","4978","image-button-response","48","null","361278","68895b4cc3548521ab78eeca","68898c7de380e0fa864d774d","639b9ab341f4429b1b3c06a2","5","S62_age7_trial5.png","false","false","https://kisumu-drawings.s3-us-west-1.amazonaws.com/tracings/S62_age7_trial5.png","5","",""
"","3180","image-button-response","49","null","364975","68895b4cc3548521ab78eeca","68898c7de380e0fa864d774d","639b9ab341f4429b1b3c06a2","1","S104_age9_trial1.png","false","false","https://kisumu-drawings.s3-us-west-1.amazonaws.com/tracings/S104_age9_trial1.png","5","",""
"","3013","image-button-response","50","null","368502","68895b4cc3548521ab78eeca","68898c7de380e0fa864d774d","639b9ab341f4429b1b3c06a2","5","S102_age9_trial5.png","false","false","https://kisumu-drawings.s3-us-west-1.amazonaws.com/tracings/S102_age9_trial5.png","5","",""
"","6562","image-button-response","51","null","375582","68895b4cc3548521ab78eeca","68898c7de380e0fa864d774d","639b9ab341f4429b1b3c06a2","2","S13_age4_trial2.png","false","false","https://kisumu-drawings.s3-us-west-1.amazonaws.com/tracings/S13_age4_trial2.png","4","",""
"","4114","image-button-response","52","null","380215","68895b4cc3548521ab78eeca","68898c7de380e0fa864d774d","639b9ab341f4429b1b3c06a2","2","S23_age5_trial2.png","false","false","https://kisumu-drawings.s3-us-west-1.amazonaws.com/tracings/S23_age5_trial2.png","2","",""
"","9378","image-button-response","53","null","390094","68895b4cc3548521ab78eeca","68898c7de380e0fa864d774d","639b9ab341f4429b1b3c06a2","1","S12_age4_trial1.png","false","false","https://kisumu-drawings.s3-us-west-1.amazonaws.com/tracings/S12_age4_trial1.png","4","",""
"","3367","image-button-response","54","null","393966","68895b4cc3548521ab78eeca","68898c7de380e0fa864d774d","639b9ab341f4429b1b3c06a2","2","S21_age5_trial2.png","false","false","https://kisumu-drawings.s3-us-west-1.amazonaws.com/tracings/S21_age5_trial2.png","4","",""
"","5771","image-button-response","55","null","400254","68895b4cc3548521ab78eeca","68898c7de380e0fa864d774d","639b9ab341f4429b1b3c06a2","4","S13_age4_trial4.png","false","false","https://kisumu-drawings.s3-us-west-1.amazonaws.com/tracings/S13_age4_trial4.png","3","",""
"","7697","image-button-response","56","null","408454","68895b4cc3548521ab78eeca","68898c7de380e0fa864d774d","639b9ab341f4429b1b3c06a2","2","S43_age6_trial2.png","false","false","https://kisumu-drawings.s3-us-west-1.amazonaws.com/tracings/S43_age6_trial2.png","3","",""
"","2959","image-button-response","57","null","411926","68895b4cc3548521ab78eeca","68898c7de380e0fa864d774d","639b9ab341f4429b1b3c06a2","2","S12_age4_trial2.png","false","false","https://kisumu-drawings.s3-us-west-1.amazonaws.com/tracings/S12_age4_trial2.png","4","",""
"","3279","image-button-response","58","null","415711","68895b4cc3548521ab78eeca","68898c7de380e0fa864d774d","639b9ab341f4429b1b3c06a2","5","S12_age4_trial5.png","false","false","https://kisumu-drawings.s3-us-west-1.amazonaws.com/tracings/S12_age4_trial5.png","4","",""
"","3083","image-button-response","59","null","419302","68895b4cc3548521ab78eeca","68898c7de380e0fa864d774d","639b9ab341f4429b1b3c06a2","2","S63_age7_trial2.png","false","false","https://kisumu-drawings.s3-us-west-1.amazonaws.com/tracings/S63_age7_trial2.png","5","",""
"","5937","image-button-response","60","null","425742","68895b4cc3548521ab78eeca","68898c7de380e0fa864d774d","639b9ab341f4429b1b3c06a2","3","S12_age4_trial3.png","false","false","https://kisumu-drawings.s3-us-west-1.amazonaws.com/tracings/S12_age4_trial3.png","4","",""
"","4440","image-button-response","61","null","430694","68895b4cc3548521ab78eeca","68898c7de380e0fa864d774d","639b9ab341f4429b1b3c06a2","3","S23_age5_trial3.png","false","false","https://kisumu-drawings.s3-us-west-1.amazonaws.com/tracings/S23_age5_trial3.png","1","",""
