"view_history","rt","trial_type","trial_index","plugin_version","time_elapsed","study_id","session_id","participant_id","tracing_type","tracing_id","catch_trial","prep_trial","stimulus","response","sketcher_category","response_category"
"[{""page_index"":0,""viewing_time"":4411},{""page_index"":1,""viewing_time"":3461},{""page_index"":2,""viewing_time"":7803},{""page_index"":3,""viewing_time"":4526},{""page_index"":4,""viewing_time"":3386}]","23588","instructions","0","null","23599","68895b4cc3548521ab78eeca","688aa8fd81cc3a60a0c9a6e0","65e00891e4c0c8cad9c1583a","","","","","","","",""
"","2605","image-button-response","1","null","27210","68895b4cc3548521ab78eeca","688aa8fd81cc3a60a0c9a6e0","65e00891e4c0c8cad9c1583a","4","S31_age5_trial4.png","false","false","https://kisumu-drawings.s3-us-west-1.amazonaws.com/tracings/S31_age5_trial4.png","4","",""
"","2471","image-button-response","2","null","30183","68895b4cc3548521ab78eeca","688aa8fd81cc3a60a0c9a6e0","65e00891e4c0c8cad9c1583a","3","S32_age5_trial3.png","false","false","https://kisumu-drawings.s3-us-west-1.amazonaws.com/tracings/S32_age5_trial3.png","4","",""
"","4136","image-button-response","3","null","34820","68895b4cc3548521ab78eeca","688aa8fd81cc3a60a0c9a6e0","65e00891e4c0c8cad9c1583a","4","S113_age9_trial4.png","false","false","https://kisumu-drawings.s3-us-west-1.amazonaws.com/tracings/S113_age9_trial4.png","5","",""
"","3656","image-button-response","4","null","38978","68895b4cc3548521ab78eeca","688aa8fd81cc3a60a0c9a6e0","65e00891e4c0c8cad9c1583a","2","S2_age4_trial2.png","false","false","https://kisumu-drawings.s3-us-west-1.amazonaws.com/tracings/S2_age4_trial2.png","3","",""
"","2245","image-button-response","5","null","41726","68895b4cc3548521ab78eeca","688aa8fd81cc3a60a0c9a6e0","65e00891e4c0c8cad9c1583a","1","S112_age9_trial1.png","false","false","https://kisumu-drawings.s3-us-west-1.amazonaws.com/tracings/S112_age9_trial1.png","5","",""
"","1887","image-button-response","6","null","44115","68895b4cc3548521ab78eeca","688aa8fd81cc3a60a0c9a6e0","65e00891e4c0c8cad9c1583a","5","S33_age5_trial5.png","false","false","https://kisumu-drawings.s3-us-west-1.amazonaws.com/tracings/S33_age5_trial5.png","4","",""
"","3084","image-button-response","7","null","47701","68895b4cc3548521ab78eeca","688aa8fd81cc3a60a0c9a6e0","65e00891e4c0c8cad9c1583a","4","S91_age8_trial4.png","false","false","https://kisumu-drawings.s3-us-west-1.amazonaws.com/tracings/S91_age8_trial4.png","5","",""
"","4670","image-button-response","8","null","52874","68895b4cc3548521ab78eeca","688aa8fd81cc3a60a0c9a6e0","65e00891e4c0c8cad9c1583a","4","S32_age5_trial4.png","false","false","https://kisumu-drawings.s3-us-west-1.amazonaws.com/tracings/S32_age5_trial4.png","4","",""
"","5319","image-button-response","9","null","58695","68895b4cc3548521ab78eeca","688aa8fd81cc3a60a0c9a6e0","65e00891e4c0c8cad9c1583a","5","S51_age6_trial5.png","false","false","https://kisumu-drawings.s3-us-west-1.amazonaws.com/tracings/S51_age6_trial5.png","3","",""
"","1626","image-button-response","10","null","60824","68895b4cc3548521ab78eeca","688aa8fd81cc3a60a0c9a6e0","65e00891e4c0c8cad9c1583a","3","S91_age8_trial3.png","false","false","https://kisumu-drawings.s3-us-west-1.amazonaws.com/tracings/S91_age8_trial3.png","5","",""
"","1716","image-button-response","11","null","63043","68895b4cc3548521ab78eeca","688aa8fd81cc3a60a0c9a6e0","65e00891e4c0c8cad9c1583a","3","S31_age5_trial3.png","false","false","https://kisumu-drawings.s3-us-west-1.amazonaws.com/tracings/S31_age5_trial3.png","5","",""
"","1505","image-button-response","12","null","65050","68895b4cc3548521ab78eeca","688aa8fd81cc3a60a0c9a6e0","65e00891e4c0c8cad9c1583a","1","S32_age5_trial1.png","false","false","https://kisumu-drawings.s3-us-west-1.amazonaws.com/tracings/S32_age5_trial1.png","5","",""
"","23746","image-button-response","13","null","89297","68895b4cc3548521ab78eeca","688aa8fd81cc3a60a0c9a6e0","65e00891e4c0c8cad9c1583a","2","S32_age5_trial2.png","false","false","https://kisumu-drawings.s3-us-west-1.amazonaws.com/tracings/S32_age5_trial2.png","4","",""
"","3545","image-button-response","14","null","93343","68895b4cc3548521ab78eeca","688aa8fd81cc3a60a0c9a6e0","65e00891e4c0c8cad9c1583a","5","S92_age8_trial5.png","false","false","https://kisumu-drawings.s3-us-west-1.amazonaws.com/tracings/S92_age8_trial5.png","5","",""
"","6335","image-button-response","15","null","100180","68895b4cc3548521ab78eeca","688aa8fd81cc3a60a0c9a6e0","65e00891e4c0c8cad9c1583a","2","S20_age4_trial2.png","false","false","https://kisumu-drawings.s3-us-west-1.amazonaws.com/tracings/S20_age4_trial2.png","3","",""
"","3131","image-button-response","16","null","103813","68895b4cc3548521ab78eeca","688aa8fd81cc3a60a0c9a6e0","65e00891e4c0c8cad9c1583a","4","S53_age6_trial4.png","false","false","https://kisumu-drawings.s3-us-west-1.amazonaws.com/tracings/S53_age6_trial4.png","5","",""
"","1348","image-button-response","17","null","105663","68895b4cc3548521ab78eeca","688aa8fd81cc3a60a0c9a6e0","65e00891e4c0c8cad9c1583a","4","S73_age7_trial4.png","false","false","https://kisumu-drawings.s3-us-west-1.amazonaws.com/tracings/S73_age7_trial4.png","5","",""
"","1832","image-button-response","18","null","107996","68895b4cc3548521ab78eeca","688aa8fd81cc3a60a0c9a6e0","65e00891e4c0c8cad9c1583a","3","S1_age4_trial3.png","false","false","https://kisumu-drawings.s3-us-west-1.amazonaws.com/tracings/S1_age4_trial3.png","5","",""
"","233151","image-button-response","19","null","341649","68895b4cc3548521ab78eeca","688aa8fd81cc3a60a0c9a6e0","65e00891e4c0c8cad9c1583a","4","S74_age7_trial4.png","false","false","https://kisumu-drawings.s3-us-west-1.amazonaws.com/tracings/S74_age7_trial4.png","4","",""
"","1710","image-button-response","20","null","343861","68895b4cc3548521ab78eeca","688aa8fd81cc3a60a0c9a6e0","65e00891e4c0c8cad9c1583a","3","S92_age8_trial3.png","false","false","https://kisumu-drawings.s3-us-west-1.amazonaws.com/tracings/S92_age8_trial3.png","4","",""
"","1124","image-button-response","21","null","345488","68895b4cc3548521ab78eeca","688aa8fd81cc3a60a0c9a6e0","65e00891e4c0c8cad9c1583a","4","S1_age4_trial4.png","false","false","https://kisumu-drawings.s3-us-west-1.amazonaws.com/tracings/S1_age4_trial4.png","4","",""
"","2264","image-button-response","22","null","348255","68895b4cc3548521ab78eeca","688aa8fd81cc3a60a0c9a6e0","65e00891e4c0c8cad9c1583a","3","S20_age4_trial3.png","false","false","https://kisumu-drawings.s3-us-west-1.amazonaws.com/tracings/S20_age4_trial3.png","2","",""
"","2992","image-button-response","23","null","351748","68895b4cc3548521ab78eeca","688aa8fd81cc3a60a0c9a6e0","65e00891e4c0c8cad9c1583a","5","S20_age4_trial5.png","false","false","https://kisumu-drawings.s3-us-west-1.amazonaws.com/tracings/S20_age4_trial5.png","2","",""
"","17094","image-button-response","24","null","369344","68895b4cc3548521ab78eeca","688aa8fd81cc3a60a0c9a6e0","65e00891e4c0c8cad9c1583a","5","S112_age9_trial5.png","false","false","https://kisumu-drawings.s3-us-west-1.amazonaws.com/tracings/S112_age9_trial5.png","5","",""
"","2821","image-button-response","25","null","372666","68895b4cc3548521ab78eeca","688aa8fd81cc3a60a0c9a6e0","65e00891e4c0c8cad9c1583a","2","S33_age5_trial2.png","false","false","https://kisumu-drawings.s3-us-west-1.amazonaws.com/tracings/S33_age5_trial2.png","1","",""
"","20892","image-button-response","26","null","394061","68895b4cc3548521ab78eeca","688aa8fd81cc3a60a0c9a6e0","65e00891e4c0c8cad9c1583a","2","S53_age6_trial2.png","false","false","https://kisumu-drawings.s3-us-west-1.amazonaws.com/tracings/S53_age6_trial2.png","5","",""
"","2548","image-button-response","27","null","397110","68895b4cc3548521ab78eeca","688aa8fd81cc3a60a0c9a6e0","65e00891e4c0c8cad9c1583a","1","S72_age7_trial1.png","false","false","https://kisumu-drawings.s3-us-west-1.amazonaws.com/tracings/S72_age7_trial1.png","3","",""
"","1775","image-button-response","28","null","399387","68895b4cc3548521ab78eeca","688aa8fd81cc3a60a0c9a6e0","65e00891e4c0c8cad9c1583a","1","S2_age4_trial1.png","false","false","https://kisumu-drawings.s3-us-west-1.amazonaws.com/tracings/S2_age4_trial1.png","5","",""
"","1710","image-button-response","29","null","401599","68895b4cc3548521ab78eeca","688aa8fd81cc3a60a0c9a6e0","65e00891e4c0c8cad9c1583a","2","S73_age7_trial2.png","false","false","https://kisumu-drawings.s3-us-west-1.amazonaws.com/tracings/S73_age7_trial2.png","5","",""
"","55476","image-button-response","30","null","457578","68895b4cc3548521ab78eeca","688aa8fd81cc3a60a0c9a6e0","65e00891e4c0c8cad9c1583a","4","S52_age6_trial4.png","false","false","https://kisumu-drawings.s3-us-west-1.amazonaws.com/tracings/S52_age6_trial4.png","5","",""
"","8617","image-button-response","31","null","466698","68895b4cc3548521ab78eeca","688aa8fd81cc3a60a0c9a6e0","65e00891e4c0c8cad9c1583a","1","S52_age6_trial1.png","false","false","https://kisumu-drawings.s3-us-west-1.amazonaws.com/tracings/S52_age6_trial1.png","5","",""
"","5509","image-button-response","32","null","472709","68895b4cc3548521ab78eeca","688aa8fd81cc3a60a0c9a6e0","65e00891e4c0c8cad9c1583a","3","S73_age7_trial3.png","false","false","https://kisumu-drawings.s3-us-west-1.amazonaws.com/tracings/S73_age7_trial3.png","5","",""
"","3136","image-button-response","33","null","476346","68895b4cc3548521ab78eeca","688aa8fd81cc3a60a0c9a6e0","65e00891e4c0c8cad9c1583a","1","S113_age9_trial1.png","false","false","https://kisumu-drawings.s3-us-west-1.amazonaws.com/tracings/S113_age9_trial1.png","5","",""
"","9183","image-button-response","34","null","486031","68895b4cc3548521ab78eeca","688aa8fd81cc3a60a0c9a6e0","65e00891e4c0c8cad9c1583a","5","S93_age8_trial5.png","false","false","https://kisumu-drawings.s3-us-west-1.amazonaws.com/tracings/S93_age8_trial5.png","5","",""
"","1841","image-button-response","35","null","488374","68895b4cc3548521ab78eeca","688aa8fd81cc3a60a0c9a6e0","65e00891e4c0c8cad9c1583a","5","S52_age6_trial5.png","false","false","https://kisumu-drawings.s3-us-west-1.amazonaws.com/tracings/S52_age6_trial5.png","5","",""
"","2541","image-button-response","36","null","491417","68895b4cc3548521ab78eeca","688aa8fd81cc3a60a0c9a6e0","65e00891e4c0c8cad9c1583a","2","S113_age9_trial2.png","false","false","https://kisumu-drawings.s3-us-west-1.amazonaws.com/tracings/S113_age9_trial2.png","5","",""
"","1299","image-button-response","37","null","493217","68895b4cc3548521ab78eeca","688aa8fd81cc3a60a0c9a6e0","65e00891e4c0c8cad9c1583a","5","S73_age7_trial5.png","false","false","https://kisumu-drawings.s3-us-west-1.amazonaws.com/tracings/S73_age7_trial5.png","5","",""
"","1264","image-button-response","38","null","494983","68895b4cc3548521ab78eeca","688aa8fd81cc3a60a0c9a6e0","65e00891e4c0c8cad9c1583a","3","S113_age9_trial3.png","false","false","https://kisumu-drawings.s3-us-west-1.amazonaws.com/tracings/S113_age9_trial3.png","5","",""
"","1303","image-button-response","39","null","496789","68895b4cc3548521ab78eeca","688aa8fd81cc3a60a0c9a6e0","65e00891e4c0c8cad9c1583a","2","S74_age7_trial2.png","false","false","https://kisumu-drawings.s3-us-west-1.amazonaws.com/tracings/S74_age7_trial2.png","5","",""
"","1277","image-button-response","40","null","498568","68895b4cc3548521ab78eeca","688aa8fd81cc3a60a0c9a6e0","65e00891e4c0c8cad9c1583a","3","S114_age9_trial3.png","false","false","https://kisumu-drawings.s3-us-west-1.amazonaws.com/tracings/S114_age9_trial3.png","5","",""
"","3106","image-button-response","41","null","502176","68895b4cc3548521ab78eeca","688aa8fd81cc3a60a0c9a6e0","65e00891e4c0c8cad9c1583a","5","S2_age4_trial5.png","false","false","https://kisumu-drawings.s3-us-west-1.amazonaws.com/tracings/S2_age4_trial5.png","2","",""
"","2164","image-button-response","42","null","504841","68895b4cc3548521ab78eeca","688aa8fd81cc3a60a0c9a6e0","65e00891e4c0c8cad9c1583a","5","S113_age9_trial5.png","false","false","https://kisumu-drawings.s3-us-west-1.amazonaws.com/tracings/S113_age9_trial5.png","5","",""
"","1195","image-button-response","43","null","506539","68895b4cc3548521ab78eeca","688aa8fd81cc3a60a0c9a6e0","65e00891e4c0c8cad9c1583a","","","true","false","stimuli/catch_trials/catch_trial.png","4","","5"
"","2210","image-button-response","44","null","509251","68895b4cc3548521ab78eeca","688aa8fd81cc3a60a0c9a6e0","65e00891e4c0c8cad9c1583a","5","S32_age5_trial5.png","false","false","https://kisumu-drawings.s3-us-west-1.amazonaws.com/tracings/S32_age5_trial5.png","1","",""
"","958","image-button-response","45","null","510712","68895b4cc3548521ab78eeca","688aa8fd81cc3a60a0c9a6e0","65e00891e4c0c8cad9c1583a","1","S91_age8_trial1.png","false","false","https://kisumu-drawings.s3-us-west-1.amazonaws.com/tracings/S91_age8_trial1.png","5","",""
"","2479","image-button-response","46","null","513693","68895b4cc3548521ab78eeca","688aa8fd81cc3a60a0c9a6e0","65e00891e4c0c8cad9c1583a","2","S92_age8_trial2.png","false","false","https://kisumu-drawings.s3-us-west-1.amazonaws.com/tracings/S92_age8_trial2.png","4","",""
"","1759","image-button-response","47","null","515954","68895b4cc3548521ab78eeca","688aa8fd81cc3a60a0c9a6e0","65e00891e4c0c8cad9c1583a","4","S112_age9_trial4.png","false","false","https://kisumu-drawings.s3-us-west-1.amazonaws.com/tracings/S112_age9_trial4.png","4","",""
"","2441","image-button-response","48","null","518897","68895b4cc3548521ab78eeca","688aa8fd81cc3a60a0c9a6e0","65e00891e4c0c8cad9c1583a","1","S53_age6_trial1.png","false","false","https://kisumu-drawings.s3-us-west-1.amazonaws.com/tracings/S53_age6_trial1.png","3","",""
"","1128","image-button-response","49","null","520526","68895b4cc3548521ab78eeca","688aa8fd81cc3a60a0c9a6e0","65e00891e4c0c8cad9c1583a","2","S52_age6_trial2.png","false","false","https://kisumu-drawings.s3-us-west-1.amazonaws.com/tracings/S52_age6_trial2.png","3","",""
"","1588","image-button-response","50","null","522617","68895b4cc3548521ab78eeca","688aa8fd81cc3a60a0c9a6e0","65e00891e4c0c8cad9c1583a","4","S92_age8_trial4.png","false","false","https://kisumu-drawings.s3-us-west-1.amazonaws.com/tracings/S92_age8_trial4.png","5","",""
"","1246","image-button-response","51","null","524364","68895b4cc3548521ab78eeca","688aa8fd81cc3a60a0c9a6e0","65e00891e4c0c8cad9c1583a","1","S20_age4_trial1.png","false","false","https://kisumu-drawings.s3-us-west-1.amazonaws.com/tracings/S20_age4_trial1.png","4","",""
"","2888","image-button-response","52","null","527755","68895b4cc3548521ab78eeca","688aa8fd81cc3a60a0c9a6e0","65e00891e4c0c8cad9c1583a","4","S20_age4_trial4.png","false","false","https://kisumu-drawings.s3-us-west-1.amazonaws.com/tracings/S20_age4_trial4.png","1","",""
"","8678","image-button-response","53","null","536935","68895b4cc3548521ab78eeca","688aa8fd81cc3a60a0c9a6e0","65e00891e4c0c8cad9c1583a","1","S33_age5_trial1.png","false","false","https://kisumu-drawings.s3-us-west-1.amazonaws.com/tracings/S33_age5_trial1.png","2","",""
"","2333","image-button-response","54","null","539770","68895b4cc3548521ab78eeca","688aa8fd81cc3a60a0c9a6e0","65e00891e4c0c8cad9c1583a","3","S52_age6_trial3.png","false","false","https://kisumu-drawings.s3-us-west-1.amazonaws.com/tracings/S52_age6_trial3.png","5","",""
"","1323","image-button-response","55","null","541595","68895b4cc3548521ab78eeca","688aa8fd81cc3a60a0c9a6e0","65e00891e4c0c8cad9c1583a","2","S93_age8_trial2.png","false","false","https://kisumu-drawings.s3-us-west-1.amazonaws.com/tracings/S93_age8_trial2.png","5","",""
"","1463","image-button-response","56","null","543575","68895b4cc3548521ab78eeca","688aa8fd81cc3a60a0c9a6e0","65e00891e4c0c8cad9c1583a","2","S112_age9_trial2.png","false","false","https://kisumu-drawings.s3-us-west-1.amazonaws.com/tracings/S112_age9_trial2.png","5","",""
"","1460","image-button-response","57","null","545538","68895b4cc3548521ab78eeca","688aa8fd81cc3a60a0c9a6e0","65e00891e4c0c8cad9c1583a","5","S72_age7_trial5.png","false","false","https://kisumu-drawings.s3-us-west-1.amazonaws.com/tracings/S72_age7_trial5.png","5","",""
"","2795","image-button-response","58","null","548835","68895b4cc3548521ab78eeca","688aa8fd81cc3a60a0c9a6e0","65e00891e4c0c8cad9c1583a","1","S71_age7_trial1.png","false","false","https://kisumu-drawings.s3-us-west-1.amazonaws.com/tracings/S71_age7_trial1.png","4","",""
"","1647","image-button-response","59","null","550983","68895b4cc3548521ab78eeca","688aa8fd81cc3a60a0c9a6e0","65e00891e4c0c8cad9c1583a","3","S53_age6_trial3.png","false","false","https://kisumu-drawings.s3-us-west-1.amazonaws.com/tracings/S53_age6_trial3.png","5","",""
"","1048","image-button-response","60","null","552533","68895b4cc3548521ab78eeca","688aa8fd81cc3a60a0c9a6e0","65e00891e4c0c8cad9c1583a","3","S72_age7_trial3.png","false","false","https://kisumu-drawings.s3-us-west-1.amazonaws.com/tracings/S72_age7_trial3.png","5","",""
"","1032","image-button-response","61","null","554066","68895b4cc3548521ab78eeca","688aa8fd81cc3a60a0c9a6e0","65e00891e4c0c8cad9c1583a","1","S92_age8_trial1.png","false","false","https://kisumu-drawings.s3-us-west-1.amazonaws.com/tracings/S92_age8_trial1.png","5","",""
