view_history,rt,trial_type,trial_index,plugin_version,time_elapsed,study_id,session_id,participant_id,tracing_type,tracing_id,catch_trial,prep_trial,stimulus,response,sketcher_category,response_category
"[{""page_index"":0,""viewing_time"":22174},{""page_index"":1,""viewing_time"":36509},{""page_index"":2,""viewing_time"":19524},{""page_index"":3,""viewing_time"":13647},{""page_index"":4,""viewing_time"":13669}]",105523,instructions,0,null,105537,68895b4cc3548521ab78eeca,688aab7b500199a6dc52a46e,65e5ec7c5cc8e775d79139b5,,,,,,,,
,12555,image-button-response,1,null,119119,68895b4cc3548521ab78eeca,688aab7b500199a6dc52a46e,65e5ec7c5cc8e775d79139b5,,,TRUE,FALSE,stimuli/catch_trials/catch_trial.png,0,,1
,6027,image-button-response,2,null,125664,68895b4cc3548521ab78eeca,688aab7b500199a6dc52a46e,65e5ec7c5cc8e775d79139b5,5,S113_age9_trial5.png,FALSE,FALSE,https://kisumu-drawings.s3-us-west-1.amazonaws.com/tracings/S113_age9_trial5.png,5,,
,9516,image-button-response,3,null,135687,68895b4cc3548521ab78eeca,688aab7b500199a6dc52a46e,65e5ec7c5cc8e775d79139b5,1,S2_age4_trial1.png,FALSE,FALSE,https://kisumu-drawings.s3-us-west-1.amazonaws.com/tracings/S2_age4_trial1.png,4,,
,14679,image-button-response,4,null,150881,68895b4cc3548521ab78eeca,688aab7b500199a6dc52a46e,65e5ec7c5cc8e775d79139b5,4,S31_age5_trial4.png,FALSE,FALSE,https://kisumu-drawings.s3-us-west-1.amazonaws.com/tracings/S31_age5_trial4.png,3,,
,7089,image-button-response,5,null,158486,68895b4cc3548521ab78eeca,688aab7b500199a6dc52a46e,65e5ec7c5cc8e775d79139b5,1,S91_age8_trial1.png,FALSE,FALSE,https://kisumu-drawings.s3-us-west-1.amazonaws.com/tracings/S91_age8_trial1.png,5,,
,15605,image-button-response,6,null,174603,68895b4cc3548521ab78eeca,688aab7b500199a6dc52a46e,65e5ec7c5cc8e775d79139b5,3,S72_age7_trial3.png,FALSE,FALSE,https://kisumu-drawings.s3-us-west-1.amazonaws.com/tracings/S72_age7_trial3.png,4,,
,4664,image-button-response,7,null,179779,68895b4cc3548521ab78eeca,688aab7b500199a6dc52a46e,65e5ec7c5cc8e775d79139b5,2,S33_age5_trial2.png,FALSE,FALSE,https://kisumu-drawings.s3-us-west-1.amazonaws.com/tracings/S33_age5_trial2.png,2,,
,7183,image-button-response,8,null,187473,68895b4cc3548521ab78eeca,688aab7b500199a6dc52a46e,65e5ec7c5cc8e775d79139b5,3,S54_age6_trial3.png,FALSE,FALSE,https://kisumu-drawings.s3-us-west-1.amazonaws.com/tracings/S54_age6_trial3.png,4,,
,3431,image-button-response,9,null,191410,68895b4cc3548521ab78eeca,688aab7b500199a6dc52a46e,65e5ec7c5cc8e775d79139b5,4,S113_age9_trial4.png,FALSE,FALSE,https://kisumu-drawings.s3-us-west-1.amazonaws.com/tracings/S113_age9_trial4.png,5,,
,4292,image-button-response,10,null,196214,68895b4cc3548521ab78eeca,688aab7b500199a6dc52a46e,65e5ec7c5cc8e775d79139b5,1,S53_age6_trial1.png,FALSE,FALSE,https://kisumu-drawings.s3-us-west-1.amazonaws.com/tracings/S53_age6_trial1.png,3,,
,4158,image-button-response,11,null,200880,68895b4cc3548521ab78eeca,688aab7b500199a6dc52a46e,65e5ec7c5cc8e775d79139b5,2,S54_age6_trial2.png,FALSE,FALSE,https://kisumu-drawings.s3-us-west-1.amazonaws.com/tracings/S54_age6_trial2.png,4,,
,5118,image-button-response,12,null,206504,68895b4cc3548521ab78eeca,688aab7b500199a6dc52a46e,65e5ec7c5cc8e775d79139b5,2,S74_age7_trial2.png,FALSE,FALSE,https://kisumu-drawings.s3-us-west-1.amazonaws.com/tracings/S74_age7_trial2.png,4,,
,4507,image-button-response,13,null,211516,68895b4cc3548521ab78eeca,688aab7b500199a6dc52a46e,65e5ec7c5cc8e775d79139b5,1,S92_age8_trial1.png,FALSE,FALSE,https://kisumu-drawings.s3-us-west-1.amazonaws.com/tracings/S92_age8_trial1.png,5,,
,4310,image-button-response,14,null,216332,68895b4cc3548521ab78eeca,688aab7b500199a6dc52a46e,65e5ec7c5cc8e775d79139b5,3,S2_age4_trial3.png,FALSE,FALSE,https://kisumu-drawings.s3-us-west-1.amazonaws.com/tracings/S2_age4_trial3.png,3,,
,3953,image-button-response,15,null,220792,68895b4cc3548521ab78eeca,688aab7b500199a6dc52a46e,65e5ec7c5cc8e775d79139b5,3,S32_age5_trial3.png,FALSE,FALSE,https://kisumu-drawings.s3-us-west-1.amazonaws.com/tracings/S32_age5_trial3.png,3,,
,1905,image-button-response,16,null,223207,68895b4cc3548521ab78eeca,688aab7b500199a6dc52a46e,65e5ec7c5cc8e775d79139b5,4,S74_age7_trial4.png,FALSE,FALSE,https://kisumu-drawings.s3-us-west-1.amazonaws.com/tracings/S74_age7_trial4.png,4,,
,3392,image-button-response,17,null,227109,68895b4cc3548521ab78eeca,688aab7b500199a6dc52a46e,65e5ec7c5cc8e775d79139b5,2,S73_age7_trial2.png,FALSE,FALSE,https://kisumu-drawings.s3-us-west-1.amazonaws.com/tracings/S73_age7_trial2.png,4,,
,1515,image-button-response,18,null,229133,68895b4cc3548521ab78eeca,688aab7b500199a6dc52a46e,65e5ec7c5cc8e775d79139b5,1,S113_age9_trial1.png,FALSE,FALSE,https://kisumu-drawings.s3-us-west-1.amazonaws.com/tracings/S113_age9_trial1.png,5,,
,2901,image-button-response,19,null,232540,68895b4cc3548521ab78eeca,688aab7b500199a6dc52a46e,65e5ec7c5cc8e775d79139b5,3,S31_age5_trial3.png,FALSE,FALSE,https://kisumu-drawings.s3-us-west-1.amazonaws.com/tracings/S31_age5_trial3.png,3,,
,2072,image-button-response,20,null,235122,68895b4cc3548521ab78eeca,688aab7b500199a6dc52a46e,65e5ec7c5cc8e775d79139b5,4,S53_age6_trial4.png,FALSE,FALSE,https://kisumu-drawings.s3-us-west-1.amazonaws.com/tracings/S53_age6_trial4.png,4,,
,2283,image-button-response,21,null,237908,68895b4cc3548521ab78eeca,688aab7b500199a6dc52a46e,65e5ec7c5cc8e775d79139b5,3,S73_age7_trial3.png,FALSE,FALSE,https://kisumu-drawings.s3-us-west-1.amazonaws.com/tracings/S73_age7_trial3.png,5,,
,1525,image-button-response,22,null,239946,68895b4cc3548521ab78eeca,688aab7b500199a6dc52a46e,65e5ec7c5cc8e775d79139b5,2,S113_age9_trial2.png,FALSE,FALSE,https://kisumu-drawings.s3-us-west-1.amazonaws.com/tracings/S113_age9_trial2.png,5,,
,1600,image-button-response,23,null,242054,68895b4cc3548521ab78eeca,688aab7b500199a6dc52a46e,65e5ec7c5cc8e775d79139b5,1,S72_age7_trial1.png,FALSE,FALSE,https://kisumu-drawings.s3-us-west-1.amazonaws.com/tracings/S72_age7_trial1.png,4,,
,1988,image-button-response,24,null,244544,68895b4cc3548521ab78eeca,688aab7b500199a6dc52a46e,65e5ec7c5cc8e775d79139b5,3,S53_age6_trial3.png,FALSE,FALSE,https://kisumu-drawings.s3-us-west-1.amazonaws.com/tracings/S53_age6_trial3.png,4,,
,1739,image-button-response,25,null,246789,68895b4cc3548521ab78eeca,688aab7b500199a6dc52a46e,65e5ec7c5cc8e775d79139b5,4,S91_age8_trial4.png,FALSE,FALSE,https://kisumu-drawings.s3-us-west-1.amazonaws.com/tracings/S91_age8_trial4.png,5,,
,3108,image-button-response,26,null,250411,68895b4cc3548521ab78eeca,688aab7b500199a6dc52a46e,65e5ec7c5cc8e775d79139b5,3,S92_age8_trial3.png,FALSE,FALSE,https://kisumu-drawings.s3-us-west-1.amazonaws.com/tracings/S92_age8_trial3.png,5,,
,1967,image-button-response,27,null,252882,68895b4cc3548521ab78eeca,688aab7b500199a6dc52a46e,65e5ec7c5cc8e775d79139b5,3,S20_age4_trial3.png,FALSE,FALSE,https://kisumu-drawings.s3-us-west-1.amazonaws.com/tracings/S20_age4_trial3.png,2,,
,3518,image-button-response,28,null,256907,68895b4cc3548521ab78eeca,688aab7b500199a6dc52a46e,65e5ec7c5cc8e775d79139b5,5,S2_age4_trial5.png,FALSE,FALSE,https://kisumu-drawings.s3-us-west-1.amazonaws.com/tracings/S2_age4_trial5.png,3,,
,3190,image-button-response,29,null,260604,68895b4cc3548521ab78eeca,688aab7b500199a6dc52a46e,65e5ec7c5cc8e775d79139b5,2,S93_age8_trial2.png,FALSE,FALSE,https://kisumu-drawings.s3-us-west-1.amazonaws.com/tracings/S93_age8_trial2.png,5,,
,3322,image-button-response,30,null,264436,68895b4cc3548521ab78eeca,688aab7b500199a6dc52a46e,65e5ec7c5cc8e775d79139b5,5,S52_age6_trial5.png,FALSE,FALSE,https://kisumu-drawings.s3-us-west-1.amazonaws.com/tracings/S52_age6_trial5.png,5,,
,2955,image-button-response,31,null,267901,68895b4cc3548521ab78eeca,688aab7b500199a6dc52a46e,65e5ec7c5cc8e775d79139b5,5,S3_age4_trial5.png,FALSE,FALSE,https://kisumu-drawings.s3-us-west-1.amazonaws.com/tracings/S3_age4_trial5.png,3,,
,1969,image-button-response,32,null,270373,68895b4cc3548521ab78eeca,688aab7b500199a6dc52a46e,65e5ec7c5cc8e775d79139b5,5,S74_age7_trial5.png,FALSE,FALSE,https://kisumu-drawings.s3-us-west-1.amazonaws.com/tracings/S74_age7_trial5.png,4,,
,5033,image-button-response,33,null,275913,68895b4cc3548521ab78eeca,688aab7b500199a6dc52a46e,65e5ec7c5cc8e775d79139b5,5,S92_age8_trial5.png,FALSE,FALSE,https://kisumu-drawings.s3-us-west-1.amazonaws.com/tracings/S92_age8_trial5.png,5,,
,2630,image-button-response,34,null,279062,68895b4cc3548521ab78eeca,688aab7b500199a6dc52a46e,65e5ec7c5cc8e775d79139b5,5,S93_age8_trial5.png,FALSE,FALSE,https://kisumu-drawings.s3-us-west-1.amazonaws.com/tracings/S93_age8_trial5.png,5,,
,2808,image-button-response,35,null,282377,68895b4cc3548521ab78eeca,688aab7b500199a6dc52a46e,65e5ec7c5cc8e775d79139b5,4,S54_age6_trial4.png,FALSE,FALSE,https://kisumu-drawings.s3-us-west-1.amazonaws.com/tracings/S54_age6_trial4.png,5,,
,3081,image-button-response,36,null,285965,68895b4cc3548521ab78eeca,688aab7b500199a6dc52a46e,65e5ec7c5cc8e775d79139b5,4,S112_age9_trial4.png,FALSE,FALSE,https://kisumu-drawings.s3-us-west-1.amazonaws.com/tracings/S112_age9_trial4.png,5,,
,4202,image-button-response,37,null,290683,68895b4cc3548521ab78eeca,688aab7b500199a6dc52a46e,65e5ec7c5cc8e775d79139b5,1,S20_age4_trial1.png,FALSE,FALSE,https://kisumu-drawings.s3-us-west-1.amazonaws.com/tracings/S20_age4_trial1.png,4,,
,3652,image-button-response,38,null,294845,68895b4cc3548521ab78eeca,688aab7b500199a6dc52a46e,65e5ec7c5cc8e775d79139b5,2,S92_age8_trial2.png,FALSE,FALSE,https://kisumu-drawings.s3-us-west-1.amazonaws.com/tracings/S92_age8_trial2.png,4,,
,2035,image-button-response,39,null,297394,68895b4cc3548521ab78eeca,688aab7b500199a6dc52a46e,65e5ec7c5cc8e775d79139b5,4,S1_age4_trial4.png,FALSE,FALSE,https://kisumu-drawings.s3-us-west-1.amazonaws.com/tracings/S1_age4_trial4.png,3,,
,2888,image-button-response,40,null,300786,68895b4cc3548521ab78eeca,688aab7b500199a6dc52a46e,65e5ec7c5cc8e775d79139b5,3,S91_age8_trial3.png,FALSE,FALSE,https://kisumu-drawings.s3-us-west-1.amazonaws.com/tracings/S91_age8_trial3.png,5,,
,6856,image-button-response,41,null,308155,68895b4cc3548521ab78eeca,688aab7b500199a6dc52a46e,65e5ec7c5cc8e775d79139b5,5,S32_age5_trial5.png,FALSE,FALSE,https://kisumu-drawings.s3-us-west-1.amazonaws.com/tracings/S32_age5_trial5.png,3,,
,3736,image-button-response,42,null,312399,68895b4cc3548521ab78eeca,688aab7b500199a6dc52a46e,65e5ec7c5cc8e775d79139b5,4,S92_age8_trial4.png,FALSE,FALSE,https://kisumu-drawings.s3-us-west-1.amazonaws.com/tracings/S92_age8_trial4.png,4,,
,4106,image-button-response,43,null,317015,68895b4cc3548521ab78eeca,688aab7b500199a6dc52a46e,65e5ec7c5cc8e775d79139b5,2,S2_age4_trial2.png,FALSE,FALSE,https://kisumu-drawings.s3-us-west-1.amazonaws.com/tracings/S2_age4_trial2.png,3,,
,2467,image-button-response,44,null,319992,68895b4cc3548521ab78eeca,688aab7b500199a6dc52a46e,65e5ec7c5cc8e775d79139b5,5,S112_age9_trial5.png,FALSE,FALSE,https://kisumu-drawings.s3-us-west-1.amazonaws.com/tracings/S112_age9_trial5.png,5,,
,4337,image-button-response,45,null,324849,68895b4cc3548521ab78eeca,688aab7b500199a6dc52a46e,65e5ec7c5cc8e775d79139b5,3,S114_age9_trial3.png,FALSE,FALSE,https://kisumu-drawings.s3-us-west-1.amazonaws.com/tracings/S114_age9_trial3.png,5,,
,1684,image-button-response,46,null,327044,68895b4cc3548521ab78eeca,688aab7b500199a6dc52a46e,65e5ec7c5cc8e775d79139b5,4,S32_age5_trial4.png,FALSE,FALSE,https://kisumu-drawings.s3-us-west-1.amazonaws.com/tracings/S32_age5_trial4.png,2,,
,1643,image-button-response,47,null,329198,68895b4cc3548521ab78eeca,688aab7b500199a6dc52a46e,65e5ec7c5cc8e775d79139b5,1,S33_age5_trial1.png,FALSE,FALSE,https://kisumu-drawings.s3-us-west-1.amazonaws.com/tracings/S33_age5_trial1.png,2,,
,3953,image-button-response,48,null,333678,68895b4cc3548521ab78eeca,688aab7b500199a6dc52a46e,65e5ec7c5cc8e775d79139b5,2,S53_age6_trial2.png,FALSE,FALSE,https://kisumu-drawings.s3-us-west-1.amazonaws.com/tracings/S53_age6_trial2.png,3,,
,1629,image-button-response,49,null,335812,68895b4cc3548521ab78eeca,688aab7b500199a6dc52a46e,65e5ec7c5cc8e775d79139b5,5,S33_age5_trial5.png,FALSE,FALSE,https://kisumu-drawings.s3-us-west-1.amazonaws.com/tracings/S33_age5_trial5.png,2,,
,2526,image-button-response,50,null,338849,68895b4cc3548521ab78eeca,688aab7b500199a6dc52a46e,65e5ec7c5cc8e775d79139b5,1,S32_age5_trial1.png,FALSE,FALSE,https://kisumu-drawings.s3-us-west-1.amazonaws.com/tracings/S32_age5_trial1.png,3,,
,3397,image-button-response,51,null,342755,68895b4cc3548521ab78eeca,688aab7b500199a6dc52a46e,65e5ec7c5cc8e775d79139b5,1,S52_age6_trial1.png,FALSE,FALSE,https://kisumu-drawings.s3-us-west-1.amazonaws.com/tracings/S52_age6_trial1.png,3,,
,1852,image-button-response,52,null,345126,68895b4cc3548521ab78eeca,688aab7b500199a6dc52a46e,65e5ec7c5cc8e775d79139b5,5,S51_age6_trial5.png,FALSE,FALSE,https://kisumu-drawings.s3-us-west-1.amazonaws.com/tracings/S51_age6_trial5.png,2,,
,2356,image-button-response,53,null,347993,68895b4cc3548521ab78eeca,688aab7b500199a6dc52a46e,65e5ec7c5cc8e775d79139b5,2,S34_age5_trial2.png,FALSE,FALSE,https://kisumu-drawings.s3-us-west-1.amazonaws.com/tracings/S34_age5_trial2.png,3,,
,1851,image-button-response,54,null,350347,68895b4cc3548521ab78eeca,688aab7b500199a6dc52a46e,65e5ec7c5cc8e775d79139b5,4,S20_age4_trial4.png,FALSE,FALSE,https://kisumu-drawings.s3-us-west-1.amazonaws.com/tracings/S20_age4_trial4.png,1,,
,2700,image-button-response,55,null,353557,68895b4cc3548521ab78eeca,688aab7b500199a6dc52a46e,65e5ec7c5cc8e775d79139b5,5,S73_age7_trial5.png,FALSE,FALSE,https://kisumu-drawings.s3-us-west-1.amazonaws.com/tracings/S73_age7_trial5.png,4,,
,2410,image-button-response,56,null,356483,68895b4cc3548521ab78eeca,688aab7b500199a6dc52a46e,65e5ec7c5cc8e775d79139b5,4,S73_age7_trial4.png,FALSE,FALSE,https://kisumu-drawings.s3-us-west-1.amazonaws.com/tracings/S73_age7_trial4.png,5,,
,1914,image-button-response,57,null,358909,68895b4cc3548521ab78eeca,688aab7b500199a6dc52a46e,65e5ec7c5cc8e775d79139b5,1,S112_age9_trial1.png,FALSE,FALSE,https://kisumu-drawings.s3-us-west-1.amazonaws.com/tracings/S112_age9_trial1.png,4,,
,3968,image-button-response,58,null,363386,68895b4cc3548521ab78eeca,688aab7b500199a6dc52a46e,65e5ec7c5cc8e775d79139b5,2,S112_age9_trial2.png,FALSE,FALSE,https://kisumu-drawings.s3-us-west-1.amazonaws.com/tracings/S112_age9_trial2.png,5,,
,3025,image-button-response,59,null,366926,68895b4cc3548521ab78eeca,688aab7b500199a6dc52a46e,65e5ec7c5cc8e775d79139b5,2,S3_age4_trial2.png,FALSE,FALSE,https://kisumu-drawings.s3-us-west-1.amazonaws.com/tracings/S3_age4_trial2.png,2,,
,4942,image-button-response,60,null,372382,68895b4cc3548521ab78eeca,688aab7b500199a6dc52a46e,65e5ec7c5cc8e775d79139b5,3,S113_age9_trial3.png,FALSE,FALSE,https://kisumu-drawings.s3-us-west-1.amazonaws.com/tracings/S113_age9_trial3.png,5,,
,2560,image-button-response,61,null,375449,68895b4cc3548521ab78eeca,688aab7b500199a6dc52a46e,65e5ec7c5cc8e775d79139b5,1,S71_age7_trial1.png,FALSE,FALSE,https://kisumu-drawings.s3-us-west-1.amazonaws.com/tracings/S71_age7_trial1.png,5,,
