"view_history","rt","trial_type","trial_index","plugin_version","time_elapsed","study_id","session_id","participant_id","tracing_type","tracing_id","catch_trial","prep_trial","stimulus","response","sketcher_category","response_category"
"[{""page_index"":0,""viewing_time"":62413},{""page_index"":1,""viewing_time"":4743},{""page_index"":2,""viewing_time"":7644},{""page_index"":3,""viewing_time"":4001},{""page_index"":4,""viewing_time"":1411}]","80213","instructions","0","null","80230","68895b4cc3548521ab78eeca","688a319cb460db41a4604df2","65e74f3dd1cf1c6869f7af37","","","","","","","",""
"","5261","image-button-response","1","null","86499","68895b4cc3548521ab78eeca","688a319cb460db41a4604df2","65e74f3dd1cf1c6869f7af37","4","S27_age5_trial4.png","false","false","https://kisumu-drawings.s3-us-west-1.amazonaws.com/tracings/S27_age5_trial4.png","2","",""
"","24198","image-button-response","2","null","111199","68895b4cc3548521ab78eeca","688a319cb460db41a4604df2","65e74f3dd1cf1c6869f7af37","5","S86_age8_trial5.png","false","false","https://kisumu-drawings.s3-us-west-1.amazonaws.com/tracings/S86_age8_trial5.png","2","",""
"","5209","image-button-response","3","null","116911","68895b4cc3548521ab78eeca","688a319cb460db41a4604df2","65e74f3dd1cf1c6869f7af37","1","S86_age8_trial1.png","false","false","https://kisumu-drawings.s3-us-west-1.amazonaws.com/tracings/S86_age8_trial1.png","1","",""
"","3586","image-button-response","4","null","121000","68895b4cc3548521ab78eeca","688a319cb460db41a4604df2","65e74f3dd1cf1c6869f7af37","3","S28_age5_trial3.png","false","false","https://kisumu-drawings.s3-us-west-1.amazonaws.com/tracings/S28_age5_trial3.png","2","",""
"","80983","image-button-response","5","null","202483","68895b4cc3548521ab78eeca","688a319cb460db41a4604df2","65e74f3dd1cf1c6869f7af37","4","S48_age6_trial4.png","false","false","https://kisumu-drawings.s3-us-west-1.amazonaws.com/tracings/S48_age6_trial4.png","1","",""
"","8767","image-button-response","6","null","211753","68895b4cc3548521ab78eeca","688a319cb460db41a4604df2","65e74f3dd1cf1c6869f7af37","5","S17_age4_trial5.png","false","false","https://kisumu-drawings.s3-us-west-1.amazonaws.com/tracings/S17_age4_trial5.png","2","",""
"","9157","image-button-response","7","null","221412","68895b4cc3548521ab78eeca","688a319cb460db41a4604df2","65e74f3dd1cf1c6869f7af37","1","S28_age5_trial1.png","false","false","https://kisumu-drawings.s3-us-west-1.amazonaws.com/tracings/S28_age5_trial1.png","2","",""
"","6000","image-button-response","8","null","227916","68895b4cc3548521ab78eeca","688a319cb460db41a4604df2","65e74f3dd1cf1c6869f7af37","1","S108_age9_trial1.png","false","false","https://kisumu-drawings.s3-us-west-1.amazonaws.com/tracings/S108_age9_trial1.png","3","",""
"","7379","image-button-response","9","null","235797","68895b4cc3548521ab78eeca","688a319cb460db41a4604df2","65e74f3dd1cf1c6869f7af37","1","S67_age7_trial1.png","false","false","https://kisumu-drawings.s3-us-west-1.amazonaws.com/tracings/S67_age7_trial1.png","2","",""
"","7413","image-button-response","10","null","243714","68895b4cc3548521ab78eeca","688a319cb460db41a4604df2","65e74f3dd1cf1c6869f7af37","5","S87_age8_trial5.png","false","false","https://kisumu-drawings.s3-us-west-1.amazonaws.com/tracings/S87_age8_trial5.png","2","",""
"","8697","image-button-response","11","null","252913","68895b4cc3548521ab78eeca","688a319cb460db41a4604df2","65e74f3dd1cf1c6869f7af37","1","S87_age8_trial1.png","false","false","https://kisumu-drawings.s3-us-west-1.amazonaws.com/tracings/S87_age8_trial1.png","2","",""
"","4822","image-button-response","12","null","258237","68895b4cc3548521ab78eeca","688a319cb460db41a4604df2","65e74f3dd1cf1c6869f7af37","3","S68_age7_trial3.png","false","false","https://kisumu-drawings.s3-us-west-1.amazonaws.com/tracings/S68_age7_trial3.png","4","",""
"","2815","image-button-response","13","null","261555","68895b4cc3548521ab78eeca","688a319cb460db41a4604df2","65e74f3dd1cf1c6869f7af37","5","S28_age5_trial5.png","false","false","https://kisumu-drawings.s3-us-west-1.amazonaws.com/tracings/S28_age5_trial5.png","1","",""
"","10290","image-button-response","14","null","272347","68895b4cc3548521ab78eeca","688a319cb460db41a4604df2","65e74f3dd1cf1c6869f7af37","5","S69_age7_trial5.png","false","false","https://kisumu-drawings.s3-us-west-1.amazonaws.com/tracings/S69_age7_trial5.png","4","",""
"","16308","image-button-response","15","null","289158","68895b4cc3548521ab78eeca","688a319cb460db41a4604df2","65e74f3dd1cf1c6869f7af37","4","S47_age6_trial4.png","false","false","https://kisumu-drawings.s3-us-west-1.amazonaws.com/tracings/S47_age6_trial4.png","2","",""
"","5641","image-button-response","16","null","295302","68895b4cc3548521ab78eeca","688a319cb460db41a4604df2","65e74f3dd1cf1c6869f7af37","5","S109_age9_trial5.png","false","false","https://kisumu-drawings.s3-us-west-1.amazonaws.com/tracings/S109_age9_trial5.png","5","",""
"","3822","image-button-response","17","null","299626","68895b4cc3548521ab78eeca","688a319cb460db41a4604df2","65e74f3dd1cf1c6869f7af37","3","S67_age7_trial3.png","false","false","https://kisumu-drawings.s3-us-west-1.amazonaws.com/tracings/S67_age7_trial3.png","5","",""
"","7798","image-button-response","18","null","307926","68895b4cc3548521ab78eeca","688a319cb460db41a4604df2","65e74f3dd1cf1c6869f7af37","1","S68_age7_trial1.png","false","false","https://kisumu-drawings.s3-us-west-1.amazonaws.com/tracings/S68_age7_trial1.png","5","",""
"","4105","image-button-response","19","null","312533","68895b4cc3548521ab78eeca","688a319cb460db41a4604df2","65e74f3dd1cf1c6869f7af37","3","S108_age9_trial3.png","false","false","https://kisumu-drawings.s3-us-west-1.amazonaws.com/tracings/S108_age9_trial3.png","2","",""
"","5827","image-button-response","20","null","318863","68895b4cc3548521ab78eeca","688a319cb460db41a4604df2","65e74f3dd1cf1c6869f7af37","1","S107_age9_trial1.png","false","false","https://kisumu-drawings.s3-us-west-1.amazonaws.com/tracings/S107_age9_trial1.png","3","",""
"","4207","image-button-response","21","null","323572","68895b4cc3548521ab78eeca","688a319cb460db41a4604df2","65e74f3dd1cf1c6869f7af37","3","S27_age5_trial3.png","false","false","https://kisumu-drawings.s3-us-west-1.amazonaws.com/tracings/S27_age5_trial3.png","2","",""
"","7067","image-button-response","22","null","331142","68895b4cc3548521ab78eeca","688a319cb460db41a4604df2","65e74f3dd1cf1c6869f7af37","2","S87_age8_trial2.png","false","false","https://kisumu-drawings.s3-us-west-1.amazonaws.com/tracings/S87_age8_trial2.png","1","",""
"","6029","image-button-response","23","null","337672","68895b4cc3548521ab78eeca","688a319cb460db41a4604df2","65e74f3dd1cf1c6869f7af37","5","S47_age6_trial5.png","false","false","https://kisumu-drawings.s3-us-west-1.amazonaws.com/tracings/S47_age6_trial5.png","3","",""
"","8070","image-button-response","24","null","346244","68895b4cc3548521ab78eeca","688a319cb460db41a4604df2","65e74f3dd1cf1c6869f7af37","4","S108_age9_trial4.png","false","false","https://kisumu-drawings.s3-us-west-1.amazonaws.com/tracings/S108_age9_trial4.png","3","",""
"","5324","image-button-response","25","null","352071","68895b4cc3548521ab78eeca","688a319cb460db41a4604df2","65e74f3dd1cf1c6869f7af37","1","S18_age4_trial1.png","false","false","https://kisumu-drawings.s3-us-west-1.amazonaws.com/tracings/S18_age4_trial1.png","1","",""
"","4392","image-button-response","26","null","356965","68895b4cc3548521ab78eeca","688a319cb460db41a4604df2","65e74f3dd1cf1c6869f7af37","2","S49_age6_trial2.png","false","false","https://kisumu-drawings.s3-us-west-1.amazonaws.com/tracings/S49_age6_trial2.png","1","",""
"","5225","image-button-response","27","null","362692","68895b4cc3548521ab78eeca","688a319cb460db41a4604df2","65e74f3dd1cf1c6869f7af37","5","S108_age9_trial5.png","false","false","https://kisumu-drawings.s3-us-west-1.amazonaws.com/tracings/S108_age9_trial5.png","4","",""
"","7824","image-button-response","28","null","371018","68895b4cc3548521ab78eeca","688a319cb460db41a4604df2","65e74f3dd1cf1c6869f7af37","2","S68_age7_trial2.png","false","false","https://kisumu-drawings.s3-us-west-1.amazonaws.com/tracings/S68_age7_trial2.png","3","",""
"","4759","image-button-response","29","null","376280","68895b4cc3548521ab78eeca","688a319cb460db41a4604df2","65e74f3dd1cf1c6869f7af37","4","S70_age7_trial4.png","false","false","https://kisumu-drawings.s3-us-west-1.amazonaws.com/tracings/S70_age7_trial4.png","4","",""
"","7576","image-button-response","30","null","384358","68895b4cc3548521ab78eeca","688a319cb460db41a4604df2","65e74f3dd1cf1c6869f7af37","1","S47_age6_trial1.png","false","false","https://kisumu-drawings.s3-us-west-1.amazonaws.com/tracings/S47_age6_trial1.png","2","",""
"","16910","image-button-response","31","null","401770","68895b4cc3548521ab78eeca","688a319cb460db41a4604df2","65e74f3dd1cf1c6869f7af37","2","S19_age4_trial2.png","false","false","https://kisumu-drawings.s3-us-west-1.amazonaws.com/tracings/S19_age4_trial2.png","1","",""
"","2909","image-button-response","32","null","405181","68895b4cc3548521ab78eeca","688a319cb460db41a4604df2","65e74f3dd1cf1c6869f7af37","2","S28_age5_trial2.png","false","false","https://kisumu-drawings.s3-us-west-1.amazonaws.com/tracings/S28_age5_trial2.png","1","",""
"","4942","image-button-response","33","null","410626","68895b4cc3548521ab78eeca","688a319cb460db41a4604df2","65e74f3dd1cf1c6869f7af37","3","S15_age4_trial3.png","false","false","https://kisumu-drawings.s3-us-west-1.amazonaws.com/tracings/S15_age4_trial3.png","1","",""
"","4807","image-button-response","34","null","415935","68895b4cc3548521ab78eeca","688a319cb460db41a4604df2","65e74f3dd1cf1c6869f7af37","3","S107_age9_trial3.png","false","false","https://kisumu-drawings.s3-us-west-1.amazonaws.com/tracings/S107_age9_trial3.png","2","",""
"","4223","image-button-response","35","null","420660","68895b4cc3548521ab78eeca","688a319cb460db41a4604df2","65e74f3dd1cf1c6869f7af37","5","S18_age4_trial5.png","false","false","https://kisumu-drawings.s3-us-west-1.amazonaws.com/tracings/S18_age4_trial5.png","1","",""
"","4641","image-button-response","36","null","425804","68895b4cc3548521ab78eeca","688a319cb460db41a4604df2","65e74f3dd1cf1c6869f7af37","4","S109_age9_trial4.png","false","false","https://kisumu-drawings.s3-us-west-1.amazonaws.com/tracings/S109_age9_trial4.png","5","",""
"","5148","image-button-response","37","null","431455","68895b4cc3548521ab78eeca","688a319cb460db41a4604df2","65e74f3dd1cf1c6869f7af37","3","S49_age6_trial3.png","false","false","https://kisumu-drawings.s3-us-west-1.amazonaws.com/tracings/S49_age6_trial3.png","2","",""
"","5465","image-button-response","38","null","437422","68895b4cc3548521ab78eeca","688a319cb460db41a4604df2","65e74f3dd1cf1c6869f7af37","4","S16_age4_trial4.png","false","false","https://kisumu-drawings.s3-us-west-1.amazonaws.com/tracings/S16_age4_trial4.png","1","",""
"","4223","image-button-response","39","null","442147","68895b4cc3548521ab78eeca","688a319cb460db41a4604df2","65e74f3dd1cf1c6869f7af37","2","S108_age9_trial2.png","false","false","https://kisumu-drawings.s3-us-west-1.amazonaws.com/tracings/S108_age9_trial2.png","4","",""
"","6770","image-button-response","40","null","449420","68895b4cc3548521ab78eeca","688a319cb460db41a4604df2","65e74f3dd1cf1c6869f7af37","3","S87_age8_trial3.png","false","false","https://kisumu-drawings.s3-us-west-1.amazonaws.com/tracings/S87_age8_trial3.png","2","",""
"","7701","image-button-response","41","null","457624","68895b4cc3548521ab78eeca","688a319cb460db41a4604df2","65e74f3dd1cf1c6869f7af37","5","S48_age6_trial5.png","false","false","https://kisumu-drawings.s3-us-west-1.amazonaws.com/tracings/S48_age6_trial5.png","1","",""
"","3995","image-button-response","42","null","462122","68895b4cc3548521ab78eeca","688a319cb460db41a4604df2","65e74f3dd1cf1c6869f7af37","2","S27_age5_trial2.png","false","false","https://kisumu-drawings.s3-us-west-1.amazonaws.com/tracings/S27_age5_trial2.png","2","",""
"","14848","image-button-response","43","null","477472","68895b4cc3548521ab78eeca","688a319cb460db41a4604df2","65e74f3dd1cf1c6869f7af37","2","S107_age9_trial2.png","false","false","https://kisumu-drawings.s3-us-west-1.amazonaws.com/tracings/S107_age9_trial2.png","3","",""
"","6046","image-button-response","44","null","484020","68895b4cc3548521ab78eeca","688a319cb460db41a4604df2","65e74f3dd1cf1c6869f7af37","5","S27_age5_trial5.png","false","false","https://kisumu-drawings.s3-us-west-1.amazonaws.com/tracings/S27_age5_trial5.png","2","",""
"","11252","image-button-response","45","null","495775","68895b4cc3548521ab78eeca","688a319cb460db41a4604df2","65e74f3dd1cf1c6869f7af37","2","S88_age8_trial2.png","false","false","https://kisumu-drawings.s3-us-west-1.amazonaws.com/tracings/S88_age8_trial2.png","4","",""
"","34914","image-button-response","46","null","531190","68895b4cc3548521ab78eeca","688a319cb460db41a4604df2","65e74f3dd1cf1c6869f7af37","","","true","false","stimuli/catch_trials/catch_trial.png","4","","5"
"","4396","image-button-response","47","null","536089","68895b4cc3548521ab78eeca","688a319cb460db41a4604df2","65e74f3dd1cf1c6869f7af37","4","S88_age8_trial4.png","false","false","https://kisumu-drawings.s3-us-west-1.amazonaws.com/tracings/S88_age8_trial4.png","2","",""
"","7990","image-button-response","48","null","544599","68895b4cc3548521ab78eeca","688a319cb460db41a4604df2","65e74f3dd1cf1c6869f7af37","1","S17_age4_trial1.png","false","false","https://kisumu-drawings.s3-us-west-1.amazonaws.com/tracings/S17_age4_trial1.png","2","",""
"","4263","image-button-response","49","null","549372","68895b4cc3548521ab78eeca","688a319cb460db41a4604df2","65e74f3dd1cf1c6869f7af37","5","S68_age7_trial5.png","false","false","https://kisumu-drawings.s3-us-west-1.amazonaws.com/tracings/S68_age7_trial5.png","2","",""
"","5409","image-button-response","50","null","555290","68895b4cc3548521ab78eeca","688a319cb460db41a4604df2","65e74f3dd1cf1c6869f7af37","2","S48_age6_trial2.png","false","false","https://kisumu-drawings.s3-us-west-1.amazonaws.com/tracings/S48_age6_trial2.png","1","",""
"","4733","image-button-response","51","null","560529","68895b4cc3548521ab78eeca","688a319cb460db41a4604df2","65e74f3dd1cf1c6869f7af37","2","S18_age4_trial2.png","false","false","https://kisumu-drawings.s3-us-west-1.amazonaws.com/tracings/S18_age4_trial2.png","2","",""
"","6124","image-button-response","52","null","567159","68895b4cc3548521ab78eeca","688a319cb460db41a4604df2","65e74f3dd1cf1c6869f7af37","3","S16_age4_trial3.png","false","false","https://kisumu-drawings.s3-us-west-1.amazonaws.com/tracings/S16_age4_trial3.png","1","",""
"","4909","image-button-response","53","null","572572","68895b4cc3548521ab78eeca","688a319cb460db41a4604df2","65e74f3dd1cf1c6869f7af37","3","S48_age6_trial3.png","false","false","https://kisumu-drawings.s3-us-west-1.amazonaws.com/tracings/S48_age6_trial3.png","1","",""
"","6085","image-button-response","54","null","579161","68895b4cc3548521ab78eeca","688a319cb460db41a4604df2","65e74f3dd1cf1c6869f7af37","2","S69_age7_trial2.png","false","false","https://kisumu-drawings.s3-us-west-1.amazonaws.com/tracings/S69_age7_trial2.png","5","",""
"","5123","image-button-response","55","null","584787","68895b4cc3548521ab78eeca","688a319cb460db41a4604df2","65e74f3dd1cf1c6869f7af37","4","S69_age7_trial4.png","false","false","https://kisumu-drawings.s3-us-west-1.amazonaws.com/tracings/S69_age7_trial4.png","4","",""
"","6228","image-button-response","56","null","591517","68895b4cc3548521ab78eeca","688a319cb460db41a4604df2","65e74f3dd1cf1c6869f7af37","4","S87_age8_trial4.png","false","false","https://kisumu-drawings.s3-us-west-1.amazonaws.com/tracings/S87_age8_trial4.png","1","",""
"","5196","image-button-response","57","null","597216","68895b4cc3548521ab78eeca","688a319cb460db41a4604df2","65e74f3dd1cf1c6869f7af37","4","S17_age4_trial4.png","false","false","https://kisumu-drawings.s3-us-west-1.amazonaws.com/tracings/S17_age4_trial4.png","2","",""
"","6215","image-button-response","58","null","603933","68895b4cc3548521ab78eeca","688a319cb460db41a4604df2","65e74f3dd1cf1c6869f7af37","4","S28_age5_trial4.png","false","false","https://kisumu-drawings.s3-us-west-1.amazonaws.com/tracings/S28_age5_trial4.png","1","",""
"","3189","image-button-response","59","null","607625","68895b4cc3548521ab78eeca","688a319cb460db41a4604df2","65e74f3dd1cf1c6869f7af37","1","S27_age5_trial1.png","false","false","https://kisumu-drawings.s3-us-west-1.amazonaws.com/tracings/S27_age5_trial1.png","1","",""
"","4887","image-button-response","60","null","613014","68895b4cc3548521ab78eeca","688a319cb460db41a4604df2","65e74f3dd1cf1c6869f7af37","3","S86_age8_trial3.png","false","false","https://kisumu-drawings.s3-us-west-1.amazonaws.com/tracings/S86_age8_trial3.png","2","",""
"","5804","image-button-response","61","null","619320","68895b4cc3548521ab78eeca","688a319cb460db41a4604df2","65e74f3dd1cf1c6869f7af37","1","S48_age6_trial1.png","false","false","https://kisumu-drawings.s3-us-west-1.amazonaws.com/tracings/S48_age6_trial1.png","1","",""
