"view_history","rt","trial_type","trial_index","plugin_version","time_elapsed","study_id","session_id","participant_id","tracing_type","tracing_id","catch_trial","prep_trial","stimulus","response","sketcher_category","response_category"
"[{""page_index"":0,""viewing_time"":13679},{""page_index"":1,""viewing_time"":11518},{""page_index"":2,""viewing_time"":11601},{""page_index"":3,""viewing_time"":6050},{""page_index"":4,""viewing_time"":22802}]","65649","instructions","0","null","65655","68895b4cc3548521ab78eeca","6889867bc8346bfd586c854c","6612d5d5abf4df0d84f44b3e","","","","","","","",""
"","11917","image-button-response","1","null","78589","68895b4cc3548521ab78eeca","6889867bc8346bfd586c854c","6612d5d5abf4df0d84f44b3e","1","S42_age6_trial1.png","false","false","https://kisumu-drawings.s3-us-west-1.amazonaws.com/tracings/S42_age6_trial1.png","3","",""
"","4262","image-button-response","2","null","83355","68895b4cc3548521ab78eeca","6889867bc8346bfd586c854c","6612d5d5abf4df0d84f44b3e","2","S22_age5_trial2.png","false","false","https://kisumu-drawings.s3-us-west-1.amazonaws.com/tracings/S22_age5_trial2.png","4","",""
"","8599","image-button-response","3","null","92472","68895b4cc3548521ab78eeca","6889867bc8346bfd586c854c","6612d5d5abf4df0d84f44b3e","5","S101_age9_trial5.png","false","false","https://kisumu-drawings.s3-us-west-1.amazonaws.com/tracings/S101_age9_trial5.png","5","",""
"","3410","image-button-response","4","null","96388","68895b4cc3548521ab78eeca","6889867bc8346bfd586c854c","6612d5d5abf4df0d84f44b3e","4","S11_age4_trial4.png","false","false","https://kisumu-drawings.s3-us-west-1.amazonaws.com/tracings/S11_age4_trial4.png","1","",""
"","3095","image-button-response","5","null","99989","68895b4cc3548521ab78eeca","6889867bc8346bfd586c854c","6612d5d5abf4df0d84f44b3e","2","S82_age8_trial2.png","false","false","https://kisumu-drawings.s3-us-west-1.amazonaws.com/tracings/S82_age8_trial2.png","5","",""
"","3929","image-button-response","6","null","104423","68895b4cc3548521ab78eeca","6889867bc8346bfd586c854c","6612d5d5abf4df0d84f44b3e","3","S22_age5_trial3.png","false","false","https://kisumu-drawings.s3-us-west-1.amazonaws.com/tracings/S22_age5_trial3.png","4","",""
"","4412","image-button-response","7","null","109341","68895b4cc3548521ab78eeca","6889867bc8346bfd586c854c","6612d5d5abf4df0d84f44b3e","3","S43_age6_trial3.png","false","false","https://kisumu-drawings.s3-us-west-1.amazonaws.com/tracings/S43_age6_trial3.png","4","",""
"","3613","image-button-response","8","null","113457","68895b4cc3548521ab78eeca","6889867bc8346bfd586c854c","6612d5d5abf4df0d84f44b3e","5","S21_age5_trial5.png","false","false","https://kisumu-drawings.s3-us-west-1.amazonaws.com/tracings/S21_age5_trial5.png","4","",""
"","2477","image-button-response","9","null","116440","68895b4cc3548521ab78eeca","6889867bc8346bfd586c854c","6612d5d5abf4df0d84f44b3e","2","S101_age9_trial2.png","false","false","https://kisumu-drawings.s3-us-west-1.amazonaws.com/tracings/S101_age9_trial2.png","5","",""
"","4626","image-button-response","10","null","121572","68895b4cc3548521ab78eeca","6889867bc8346bfd586c854c","6612d5d5abf4df0d84f44b3e","3","S100_age8_trial3.png","false","false","https://kisumu-drawings.s3-us-west-1.amazonaws.com/tracings/S100_age8_trial3.png","3","",""
"","4128","image-button-response","11","null","126208","68895b4cc3548521ab78eeca","6889867bc8346bfd586c854c","6612d5d5abf4df0d84f44b3e","4","S102_age9_trial4.png","false","false","https://kisumu-drawings.s3-us-west-1.amazonaws.com/tracings/S102_age9_trial4.png","4","",""
"","4314","image-button-response","12","null","131041","68895b4cc3548521ab78eeca","6889867bc8346bfd586c854c","6612d5d5abf4df0d84f44b3e","3","S101_age9_trial3.png","false","false","https://kisumu-drawings.s3-us-west-1.amazonaws.com/tracings/S101_age9_trial3.png","5","",""
"","6529","image-button-response","13","null","138074","68895b4cc3548521ab78eeca","6889867bc8346bfd586c854c","6612d5d5abf4df0d84f44b3e","2","S42_age6_trial2.png","false","false","https://kisumu-drawings.s3-us-west-1.amazonaws.com/tracings/S42_age6_trial2.png","4","",""
"","3161","image-button-response","14","null","141742","68895b4cc3548521ab78eeca","6889867bc8346bfd586c854c","6612d5d5abf4df0d84f44b3e","5","S11_age4_trial5.png","false","false","https://kisumu-drawings.s3-us-west-1.amazonaws.com/tracings/S11_age4_trial5.png","1","",""
"","4846","image-button-response","15","null","147092","68895b4cc3548521ab78eeca","6889867bc8346bfd586c854c","6612d5d5abf4df0d84f44b3e","1","S11_age4_trial1.png","false","false","https://kisumu-drawings.s3-us-west-1.amazonaws.com/tracings/S11_age4_trial1.png","1","",""
"","3063","image-button-response","16","null","150661","68895b4cc3548521ab78eeca","6889867bc8346bfd586c854c","6612d5d5abf4df0d84f44b3e","2","S81_age8_trial2.png","false","false","https://kisumu-drawings.s3-us-west-1.amazonaws.com/tracings/S81_age8_trial2.png","5","",""
"","3260","image-button-response","17","null","154425","68895b4cc3548521ab78eeca","6889867bc8346bfd586c854c","6612d5d5abf4df0d84f44b3e","4","S103_age9_trial4.png","false","false","https://kisumu-drawings.s3-us-west-1.amazonaws.com/tracings/S103_age9_trial4.png","4","",""
"","2811","image-button-response","18","null","157743","68895b4cc3548521ab78eeca","6889867bc8346bfd586c854c","6612d5d5abf4df0d84f44b3e","3","S41_age6_trial3.png","false","false","https://kisumu-drawings.s3-us-west-1.amazonaws.com/tracings/S41_age6_trial3.png","3","",""
"","3680","image-button-response","19","null","161927","68895b4cc3548521ab78eeca","6889867bc8346bfd586c854c","6612d5d5abf4df0d84f44b3e","2","S63_age7_trial2.png","false","false","https://kisumu-drawings.s3-us-west-1.amazonaws.com/tracings/S63_age7_trial2.png","4","",""
"","4729","image-button-response","20","null","167160","68895b4cc3548521ab78eeca","6889867bc8346bfd586c854c","6612d5d5abf4df0d84f44b3e","5","S41_age6_trial5.png","false","false","https://kisumu-drawings.s3-us-west-1.amazonaws.com/tracings/S41_age6_trial5.png","3","",""
"","2745","image-button-response","21","null","170410","68895b4cc3548521ab78eeca","6889867bc8346bfd586c854c","6612d5d5abf4df0d84f44b3e","1","S61_age7_trial1.png","false","false","https://kisumu-drawings.s3-us-west-1.amazonaws.com/tracings/S61_age7_trial1.png","5","",""
"","6245","image-button-response","22","null","177160","68895b4cc3548521ab78eeca","6889867bc8346bfd586c854c","6612d5d5abf4df0d84f44b3e","3","S81_age8_trial3.png","false","false","https://kisumu-drawings.s3-us-west-1.amazonaws.com/tracings/S81_age8_trial3.png","4","",""
"","3479","image-button-response","23","null","181144","68895b4cc3548521ab78eeca","6889867bc8346bfd586c854c","6612d5d5abf4df0d84f44b3e","4","S41_age6_trial4.png","false","false","https://kisumu-drawings.s3-us-west-1.amazonaws.com/tracings/S41_age6_trial4.png","4","",""
"","2263","image-button-response","24","null","183911","68895b4cc3548521ab78eeca","6889867bc8346bfd586c854c","6612d5d5abf4df0d84f44b3e","1","S103_age9_trial1.png","false","false","https://kisumu-drawings.s3-us-west-1.amazonaws.com/tracings/S103_age9_trial1.png","5","",""
"","2658","image-button-response","25","null","187075","68895b4cc3548521ab78eeca","6889867bc8346bfd586c854c","6612d5d5abf4df0d84f44b3e","4","S42_age6_trial4.png","false","false","https://kisumu-drawings.s3-us-west-1.amazonaws.com/tracings/S42_age6_trial4.png","2","",""
"","3744","image-button-response","26","null","191330","68895b4cc3548521ab78eeca","6889867bc8346bfd586c854c","6612d5d5abf4df0d84f44b3e","4","S100_age8_trial4.png","false","false","https://kisumu-drawings.s3-us-west-1.amazonaws.com/tracings/S100_age8_trial4.png","3","",""
"","2712","image-button-response","27","null","194545","68895b4cc3548521ab78eeca","6889867bc8346bfd586c854c","6612d5d5abf4df0d84f44b3e","","","true","false","stimuli/catch_trials/catch_trial.png","0","","1"
"","5578","image-button-response","28","null","200627","68895b4cc3548521ab78eeca","6889867bc8346bfd586c854c","6612d5d5abf4df0d84f44b3e","4","S81_age8_trial4.png","false","false","https://kisumu-drawings.s3-us-west-1.amazonaws.com/tracings/S81_age8_trial4.png","5","",""
"","4413","image-button-response","29","null","205545","68895b4cc3548521ab78eeca","6889867bc8346bfd586c854c","6612d5d5abf4df0d84f44b3e","3","S62_age7_trial3.png","false","false","https://kisumu-drawings.s3-us-west-1.amazonaws.com/tracings/S62_age7_trial3.png","3","",""
"","3128","image-button-response","30","null","209179","68895b4cc3548521ab78eeca","6889867bc8346bfd586c854c","6612d5d5abf4df0d84f44b3e","2","S11_age4_trial2.png","false","false","https://kisumu-drawings.s3-us-west-1.amazonaws.com/tracings/S11_age4_trial2.png","1","",""
"","6395","image-button-response","31","null","216079","68895b4cc3548521ab78eeca","6889867bc8346bfd586c854c","6612d5d5abf4df0d84f44b3e","4","S61_age7_trial4.png","false","false","https://kisumu-drawings.s3-us-west-1.amazonaws.com/tracings/S61_age7_trial4.png","5","",""
"","7227","image-button-response","32","null","223812","68895b4cc3548521ab78eeca","6889867bc8346bfd586c854c","6612d5d5abf4df0d84f44b3e","5","S102_age9_trial5.png","false","false","https://kisumu-drawings.s3-us-west-1.amazonaws.com/tracings/S102_age9_trial5.png","3","",""
"","4361","image-button-response","33","null","228681","68895b4cc3548521ab78eeca","6889867bc8346bfd586c854c","6612d5d5abf4df0d84f44b3e","1","S100_age8_trial1.png","false","false","https://kisumu-drawings.s3-us-west-1.amazonaws.com/tracings/S100_age8_trial1.png","5","",""
"","3347","image-button-response","34","null","232531","68895b4cc3548521ab78eeca","6889867bc8346bfd586c854c","6612d5d5abf4df0d84f44b3e","1","S10_age4_trial1.png","false","false","https://kisumu-drawings.s3-us-west-1.amazonaws.com/tracings/S10_age4_trial1.png","3","",""
"","3362","image-button-response","35","null","236397","68895b4cc3548521ab78eeca","6889867bc8346bfd586c854c","6612d5d5abf4df0d84f44b3e","5","S10_age4_trial5.png","false","false","https://kisumu-drawings.s3-us-west-1.amazonaws.com/tracings/S10_age4_trial5.png","2","",""
"","10978","image-button-response","36","null","247880","68895b4cc3548521ab78eeca","6889867bc8346bfd586c854c","6612d5d5abf4df0d84f44b3e","5","S22_age5_trial5.png","false","false","https://kisumu-drawings.s3-us-west-1.amazonaws.com/tracings/S22_age5_trial5.png","2","",""
"","5064","image-button-response","37","null","253451","68895b4cc3548521ab78eeca","6889867bc8346bfd586c854c","6612d5d5abf4df0d84f44b3e","2","S62_age7_trial2.png","false","false","https://kisumu-drawings.s3-us-west-1.amazonaws.com/tracings/S62_age7_trial2.png","4","",""
"","5198","image-button-response","38","null","259165","68895b4cc3548521ab78eeca","6889867bc8346bfd586c854c","6612d5d5abf4df0d84f44b3e","3","S102_age9_trial3.png","false","false","https://kisumu-drawings.s3-us-west-1.amazonaws.com/tracings/S102_age9_trial3.png","3","",""
"","3030","image-button-response","39","null","262701","68895b4cc3548521ab78eeca","6889867bc8346bfd586c854c","6612d5d5abf4df0d84f44b3e","1","S62_age7_trial1.png","false","false","https://kisumu-drawings.s3-us-west-1.amazonaws.com/tracings/S62_age7_trial1.png","5","",""
"","11862","image-button-response","40","null","275065","68895b4cc3548521ab78eeca","6889867bc8346bfd586c854c","6612d5d5abf4df0d84f44b3e","5","S62_age7_trial5.png","false","false","https://kisumu-drawings.s3-us-west-1.amazonaws.com/tracings/S62_age7_trial5.png","4","",""
"","9094","image-button-response","41","null","284665","68895b4cc3548521ab78eeca","6889867bc8346bfd586c854c","6612d5d5abf4df0d84f44b3e","3","S12_age4_trial3.png","false","false","https://kisumu-drawings.s3-us-west-1.amazonaws.com/tracings/S12_age4_trial3.png","4","",""
"","4194","image-button-response","42","null","289366","68895b4cc3548521ab78eeca","6889867bc8346bfd586c854c","6612d5d5abf4df0d84f44b3e","5","S100_age8_trial5.png","false","false","https://kisumu-drawings.s3-us-west-1.amazonaws.com/tracings/S100_age8_trial5.png","3","",""
"","3031","image-button-response","43","null","292901","68895b4cc3548521ab78eeca","6889867bc8346bfd586c854c","6612d5d5abf4df0d84f44b3e","1","S21_age5_trial1.png","false","false","https://kisumu-drawings.s3-us-west-1.amazonaws.com/tracings/S21_age5_trial1.png","3","",""
"","3595","image-button-response","44","null","297001","68895b4cc3548521ab78eeca","6889867bc8346bfd586c854c","6612d5d5abf4df0d84f44b3e","4","S21_age5_trial4.png","false","false","https://kisumu-drawings.s3-us-west-1.amazonaws.com/tracings/S21_age5_trial4.png","3","",""
"","2130","image-button-response","45","null","299635","68895b4cc3548521ab78eeca","6889867bc8346bfd586c854c","6612d5d5abf4df0d84f44b3e","4","S62_age7_trial4.png","false","false","https://kisumu-drawings.s3-us-west-1.amazonaws.com/tracings/S62_age7_trial4.png","4","",""
"","3229","image-button-response","46","null","303367","68895b4cc3548521ab78eeca","6889867bc8346bfd586c854c","6612d5d5abf4df0d84f44b3e","2","S41_age6_trial2.png","false","false","https://kisumu-drawings.s3-us-west-1.amazonaws.com/tracings/S41_age6_trial2.png","4","",""
"","7129","image-button-response","47","null","311001","68895b4cc3548521ab78eeca","6889867bc8346bfd586c854c","6612d5d5abf4df0d84f44b3e","5","S61_age7_trial5.png","false","false","https://kisumu-drawings.s3-us-west-1.amazonaws.com/tracings/S61_age7_trial5.png","5","",""
"","3481","image-button-response","48","null","314986","68895b4cc3548521ab78eeca","6889867bc8346bfd586c854c","6612d5d5abf4df0d84f44b3e","3","S23_age5_trial3.png","false","false","https://kisumu-drawings.s3-us-west-1.amazonaws.com/tracings/S23_age5_trial3.png","1","",""
"","8012","image-button-response","49","null","323501","68895b4cc3548521ab78eeca","6889867bc8346bfd586c854c","6612d5d5abf4df0d84f44b3e","1","S101_age9_trial1.png","false","false","https://kisumu-drawings.s3-us-west-1.amazonaws.com/tracings/S101_age9_trial1.png","4","",""
"","4810","image-button-response","50","null","328817","68895b4cc3548521ab78eeca","6889867bc8346bfd586c854c","6612d5d5abf4df0d84f44b3e","4","S10_age4_trial4.png","false","false","https://kisumu-drawings.s3-us-west-1.amazonaws.com/tracings/S10_age4_trial4.png","2","",""
"","3195","image-button-response","51","null","332519","68895b4cc3548521ab78eeca","6889867bc8346bfd586c854c","6612d5d5abf4df0d84f44b3e","1","S81_age8_trial1.png","false","false","https://kisumu-drawings.s3-us-west-1.amazonaws.com/tracings/S81_age8_trial1.png","4","",""
"","2546","image-button-response","52","null","335569","68895b4cc3548521ab78eeca","6889867bc8346bfd586c854c","6612d5d5abf4df0d84f44b3e","2","S10_age4_trial2.png","false","false","https://kisumu-drawings.s3-us-west-1.amazonaws.com/tracings/S10_age4_trial2.png","3","",""
"","2311","image-button-response","53","null","338385","68895b4cc3548521ab78eeca","6889867bc8346bfd586c854c","6612d5d5abf4df0d84f44b3e","3","S10_age4_trial3.png","false","false","https://kisumu-drawings.s3-us-west-1.amazonaws.com/tracings/S10_age4_trial3.png","2","",""
"","6928","image-button-response","54","null","345820","68895b4cc3548521ab78eeca","6889867bc8346bfd586c854c","6612d5d5abf4df0d84f44b3e","2","S102_age9_trial2.png","false","false","https://kisumu-drawings.s3-us-west-1.amazonaws.com/tracings/S102_age9_trial2.png","3","",""
"","6693","image-button-response","55","null","353020","68895b4cc3548521ab78eeca","6889867bc8346bfd586c854c","6612d5d5abf4df0d84f44b3e","3","S61_age7_trial3.png","false","false","https://kisumu-drawings.s3-us-west-1.amazonaws.com/tracings/S61_age7_trial3.png","4","",""
"","14433","image-button-response","56","null","367956","68895b4cc3548521ab78eeca","6889867bc8346bfd586c854c","6612d5d5abf4df0d84f44b3e","5","S81_age8_trial5.png","false","false","https://kisumu-drawings.s3-us-west-1.amazonaws.com/tracings/S81_age8_trial5.png","3","",""
"","3876","image-button-response","57","null","372336","68895b4cc3548521ab78eeca","6889867bc8346bfd586c854c","6612d5d5abf4df0d84f44b3e","1","S41_age6_trial1.png","false","false","https://kisumu-drawings.s3-us-west-1.amazonaws.com/tracings/S41_age6_trial1.png","4","",""
"","3413","image-button-response","58","null","376256","68895b4cc3548521ab78eeca","6889867bc8346bfd586c854c","6612d5d5abf4df0d84f44b3e","4","S22_age5_trial4.png","false","false","https://kisumu-drawings.s3-us-west-1.amazonaws.com/tracings/S22_age5_trial4.png","4","",""
"","2129","image-button-response","59","null","378889","68895b4cc3548521ab78eeca","6889867bc8346bfd586c854c","6612d5d5abf4df0d84f44b3e","1","S22_age5_trial1.png","false","false","https://kisumu-drawings.s3-us-west-1.amazonaws.com/tracings/S22_age5_trial1.png","4","",""
"","12060","image-button-response","60","null","391453","68895b4cc3548521ab78eeca","6889867bc8346bfd586c854c","6612d5d5abf4df0d84f44b3e","2","S21_age5_trial2.png","false","false","https://kisumu-drawings.s3-us-west-1.amazonaws.com/tracings/S21_age5_trial2.png","4","",""
"","8678","image-button-response","61","null","400641","68895b4cc3548521ab78eeca","6889867bc8346bfd586c854c","6612d5d5abf4df0d84f44b3e","5","S42_age6_trial5.png","false","false","https://kisumu-drawings.s3-us-west-1.amazonaws.com/tracings/S42_age6_trial5.png","3","",""
