"view_history","rt","trial_type","trial_index","plugin_version","time_elapsed","study_id","session_id","participant_id","tracing_type","tracing_id","catch_trial","prep_trial","stimulus","response","sketcher_category","response_category"
"[{""page_index"":0,""viewing_time"":21609},{""page_index"":1,""viewing_time"":11968},{""page_index"":2,""viewing_time"":4591},{""page_index"":3,""viewing_time"":12171},{""page_index"":4,""viewing_time"":1960}]","52298","instructions","0","null","52305","68895b4cc3548521ab78eeca","688a344ee15972be1e07a5d0","66587c4637981e408edaf59a","","","","","","","",""
"","3002","image-button-response","1","null","56325","68895b4cc3548521ab78eeca","688a344ee15972be1e07a5d0","66587c4637981e408edaf59a","3","S28_age5_trial3.png","false","false","https://kisumu-drawings.s3-us-west-1.amazonaws.com/tracings/S28_age5_trial3.png","3","",""
"","3604","image-button-response","2","null","60445","68895b4cc3548521ab78eeca","688a344ee15972be1e07a5d0","66587c4637981e408edaf59a","2","S68_age7_trial2.png","false","false","https://kisumu-drawings.s3-us-west-1.amazonaws.com/tracings/S68_age7_trial2.png","4","",""
"","1537","image-button-response","3","null","62487","68895b4cc3548521ab78eeca","688a344ee15972be1e07a5d0","66587c4637981e408edaf59a","4","S70_age7_trial4.png","false","false","https://kisumu-drawings.s3-us-west-1.amazonaws.com/tracings/S70_age7_trial4.png","4","",""
"","2125","image-button-response","4","null","65117","68895b4cc3548521ab78eeca","688a344ee15972be1e07a5d0","66587c4637981e408edaf59a","4","S88_age8_trial4.png","false","false","https://kisumu-drawings.s3-us-west-1.amazonaws.com/tracings/S88_age8_trial4.png","2","",""
"","1623","image-button-response","5","null","67254","68895b4cc3548521ab78eeca","688a344ee15972be1e07a5d0","66587c4637981e408edaf59a","2","S69_age7_trial2.png","false","false","https://kisumu-drawings.s3-us-west-1.amazonaws.com/tracings/S69_age7_trial2.png","4","",""
"","1765","image-button-response","6","null","69522","68895b4cc3548521ab78eeca","688a344ee15972be1e07a5d0","66587c4637981e408edaf59a","3","S68_age7_trial3.png","false","false","https://kisumu-drawings.s3-us-west-1.amazonaws.com/tracings/S68_age7_trial3.png","4","",""
"","2439","image-button-response","7","null","72466","68895b4cc3548521ab78eeca","688a344ee15972be1e07a5d0","66587c4637981e408edaf59a","4","S108_age9_trial4.png","false","false","https://kisumu-drawings.s3-us-west-1.amazonaws.com/tracings/S108_age9_trial4.png","3","",""
"","1773","image-button-response","8","null","74745","68895b4cc3548521ab78eeca","688a344ee15972be1e07a5d0","66587c4637981e408edaf59a","5","S48_age6_trial5.png","false","false","https://kisumu-drawings.s3-us-west-1.amazonaws.com/tracings/S48_age6_trial5.png","1","",""
"","1822","image-button-response","9","null","77079","68895b4cc3548521ab78eeca","688a344ee15972be1e07a5d0","66587c4637981e408edaf59a","2","S107_age9_trial2.png","false","false","https://kisumu-drawings.s3-us-west-1.amazonaws.com/tracings/S107_age9_trial2.png","4","",""
"","1502","image-button-response","10","null","79086","68895b4cc3548521ab78eeca","688a344ee15972be1e07a5d0","66587c4637981e408edaf59a","4","S27_age5_trial4.png","false","false","https://kisumu-drawings.s3-us-west-1.amazonaws.com/tracings/S27_age5_trial4.png","2","",""
"","1484","image-button-response","11","null","81073","68895b4cc3548521ab78eeca","688a344ee15972be1e07a5d0","66587c4637981e408edaf59a","4","S69_age7_trial4.png","false","false","https://kisumu-drawings.s3-us-west-1.amazonaws.com/tracings/S69_age7_trial4.png","3","",""
"","1298","image-button-response","12","null","82894","68895b4cc3548521ab78eeca","688a344ee15972be1e07a5d0","66587c4637981e408edaf59a","5","S108_age9_trial5.png","false","false","https://kisumu-drawings.s3-us-west-1.amazonaws.com/tracings/S108_age9_trial5.png","3","",""
"","1549","image-button-response","13","null","84949","68895b4cc3548521ab78eeca","688a344ee15972be1e07a5d0","66587c4637981e408edaf59a","5","S29_age5_trial5.png","false","false","https://kisumu-drawings.s3-us-west-1.amazonaws.com/tracings/S29_age5_trial5.png","1","",""
"","2246","image-button-response","14","null","87698","68895b4cc3548521ab78eeca","688a344ee15972be1e07a5d0","66587c4637981e408edaf59a","3","S86_age8_trial3.png","false","false","https://kisumu-drawings.s3-us-west-1.amazonaws.com/tracings/S86_age8_trial3.png","3","",""
"","1576","image-button-response","15","null","89787","68895b4cc3548521ab78eeca","688a344ee15972be1e07a5d0","66587c4637981e408edaf59a","3","S17_age4_trial3.png","false","false","https://kisumu-drawings.s3-us-west-1.amazonaws.com/tracings/S17_age4_trial3.png","3","",""
"","1912","image-button-response","16","null","92209","68895b4cc3548521ab78eeca","688a344ee15972be1e07a5d0","66587c4637981e408edaf59a","1","S18_age4_trial1.png","false","false","https://kisumu-drawings.s3-us-west-1.amazonaws.com/tracings/S18_age4_trial1.png","2","",""
"","1735","image-button-response","17","null","94447","68895b4cc3548521ab78eeca","688a344ee15972be1e07a5d0","66587c4637981e408edaf59a","4","S48_age6_trial4.png","false","false","https://kisumu-drawings.s3-us-west-1.amazonaws.com/tracings/S48_age6_trial4.png","1","",""
"","4896","image-button-response","18","null","99846","68895b4cc3548521ab78eeca","688a344ee15972be1e07a5d0","66587c4637981e408edaf59a","2","S49_age6_trial2.png","false","false","https://kisumu-drawings.s3-us-west-1.amazonaws.com/tracings/S49_age6_trial2.png","3","",""
"","1706","image-button-response","19","null","102065","68895b4cc3548521ab78eeca","688a344ee15972be1e07a5d0","66587c4637981e408edaf59a","5","S17_age4_trial5.png","false","false","https://kisumu-drawings.s3-us-west-1.amazonaws.com/tracings/S17_age4_trial5.png","3","",""
"","2243","image-button-response","20","null","104825","68895b4cc3548521ab78eeca","688a344ee15972be1e07a5d0","66587c4637981e408edaf59a","1","S27_age5_trial1.png","false","false","https://kisumu-drawings.s3-us-west-1.amazonaws.com/tracings/S27_age5_trial1.png","2","",""
"","1486","image-button-response","21","null","106822","68895b4cc3548521ab78eeca","688a344ee15972be1e07a5d0","66587c4637981e408edaf59a","1","S108_age9_trial1.png","false","false","https://kisumu-drawings.s3-us-west-1.amazonaws.com/tracings/S108_age9_trial1.png","4","",""
"","2256","image-button-response","22","null","109583","68895b4cc3548521ab78eeca","688a344ee15972be1e07a5d0","66587c4637981e408edaf59a","2","S108_age9_trial2.png","false","false","https://kisumu-drawings.s3-us-west-1.amazonaws.com/tracings/S108_age9_trial2.png","4","",""
"","1631","image-button-response","23","null","111725","68895b4cc3548521ab78eeca","688a344ee15972be1e07a5d0","66587c4637981e408edaf59a","2","S87_age8_trial2.png","false","false","https://kisumu-drawings.s3-us-west-1.amazonaws.com/tracings/S87_age8_trial2.png","3","",""
"","1839","image-button-response","24","null","114067","68895b4cc3548521ab78eeca","688a344ee15972be1e07a5d0","66587c4637981e408edaf59a","1","S17_age4_trial1.png","false","false","https://kisumu-drawings.s3-us-west-1.amazonaws.com/tracings/S17_age4_trial1.png","4","",""
"","1866","image-button-response","25","null","116447","68895b4cc3548521ab78eeca","688a344ee15972be1e07a5d0","66587c4637981e408edaf59a","5","S88_age8_trial5.png","false","false","https://kisumu-drawings.s3-us-west-1.amazonaws.com/tracings/S88_age8_trial5.png","3","",""
"","1526","image-button-response","26","null","118482","68895b4cc3548521ab78eeca","688a344ee15972be1e07a5d0","66587c4637981e408edaf59a","2","S27_age5_trial2.png","false","false","https://kisumu-drawings.s3-us-west-1.amazonaws.com/tracings/S27_age5_trial2.png","2","",""
"","1562","image-button-response","27","null","120546","68895b4cc3548521ab78eeca","688a344ee15972be1e07a5d0","66587c4637981e408edaf59a","1","S67_age7_trial1.png","false","false","https://kisumu-drawings.s3-us-west-1.amazonaws.com/tracings/S67_age7_trial1.png","3","",""
"","1903","image-button-response","28","null","122959","68895b4cc3548521ab78eeca","688a344ee15972be1e07a5d0","66587c4637981e408edaf59a","2","S19_age4_trial2.png","false","false","https://kisumu-drawings.s3-us-west-1.amazonaws.com/tracings/S19_age4_trial2.png","1","",""
"","1612","image-button-response","29","null","125077","68895b4cc3548521ab78eeca","688a344ee15972be1e07a5d0","66587c4637981e408edaf59a","1","S88_age8_trial1.png","false","false","https://kisumu-drawings.s3-us-west-1.amazonaws.com/tracings/S88_age8_trial1.png","4","",""
"","1587","image-button-response","30","null","127175","68895b4cc3548521ab78eeca","688a344ee15972be1e07a5d0","66587c4637981e408edaf59a","4","S49_age6_trial4.png","false","false","https://kisumu-drawings.s3-us-west-1.amazonaws.com/tracings/S49_age6_trial4.png","2","",""
"","1737","image-button-response","31","null","129415","68895b4cc3548521ab78eeca","688a344ee15972be1e07a5d0","66587c4637981e408edaf59a","3","S49_age6_trial3.png","false","false","https://kisumu-drawings.s3-us-west-1.amazonaws.com/tracings/S49_age6_trial3.png","3","",""
"","1786","image-button-response","32","null","131703","68895b4cc3548521ab78eeca","688a344ee15972be1e07a5d0","66587c4637981e408edaf59a","5","S47_age6_trial5.png","false","false","https://kisumu-drawings.s3-us-west-1.amazonaws.com/tracings/S47_age6_trial5.png","2","",""
"","1531","image-button-response","33","null","133738","68895b4cc3548521ab78eeca","688a344ee15972be1e07a5d0","66587c4637981e408edaf59a","1","S109_age9_trial1.png","false","false","https://kisumu-drawings.s3-us-west-1.amazonaws.com/tracings/S109_age9_trial1.png","3","",""
"","1512","image-button-response","34","null","135775","68895b4cc3548521ab78eeca","688a344ee15972be1e07a5d0","66587c4637981e408edaf59a","3","S107_age9_trial3.png","false","false","https://kisumu-drawings.s3-us-west-1.amazonaws.com/tracings/S107_age9_trial3.png","3","",""
"","1836","image-button-response","35","null","138115","68895b4cc3548521ab78eeca","688a344ee15972be1e07a5d0","66587c4637981e408edaf59a","","","true","false","stimuli/catch_trials/catch_trial.png","0","","1"
"","1926","image-button-response","36","null","140543","68895b4cc3548521ab78eeca","688a344ee15972be1e07a5d0","66587c4637981e408edaf59a","4","S16_age4_trial4.png","false","false","https://kisumu-drawings.s3-us-west-1.amazonaws.com/tracings/S16_age4_trial4.png","1","",""
"","1834","image-button-response","37","null","142894","68895b4cc3548521ab78eeca","688a344ee15972be1e07a5d0","66587c4637981e408edaf59a","3","S67_age7_trial3.png","false","false","https://kisumu-drawings.s3-us-west-1.amazonaws.com/tracings/S67_age7_trial3.png","4","",""
"","2661","image-button-response","38","null","146061","68895b4cc3548521ab78eeca","688a344ee15972be1e07a5d0","66587c4637981e408edaf59a","1","S87_age8_trial1.png","false","false","https://kisumu-drawings.s3-us-west-1.amazonaws.com/tracings/S87_age8_trial1.png","5","",""
"","1731","image-button-response","39","null","148307","68895b4cc3548521ab78eeca","688a344ee15972be1e07a5d0","66587c4637981e408edaf59a","3","S48_age6_trial3.png","false","false","https://kisumu-drawings.s3-us-west-1.amazonaws.com/tracings/S48_age6_trial3.png","2","",""
"","1771","image-button-response","40","null","150581","68895b4cc3548521ab78eeca","688a344ee15972be1e07a5d0","66587c4637981e408edaf59a","2","S88_age8_trial2.png","false","false","https://kisumu-drawings.s3-us-west-1.amazonaws.com/tracings/S88_age8_trial2.png","4","",""
"","1477","image-button-response","41","null","152563","68895b4cc3548521ab78eeca","688a344ee15972be1e07a5d0","66587c4637981e408edaf59a","5","S70_age7_trial5.png","false","false","https://kisumu-drawings.s3-us-west-1.amazonaws.com/tracings/S70_age7_trial5.png","3","",""
"","1748","image-button-response","42","null","154826","68895b4cc3548521ab78eeca","688a344ee15972be1e07a5d0","66587c4637981e408edaf59a","5","S69_age7_trial5.png","false","false","https://kisumu-drawings.s3-us-west-1.amazonaws.com/tracings/S69_age7_trial5.png","3","",""
"","1759","image-button-response","43","null","157093","68895b4cc3548521ab78eeca","688a344ee15972be1e07a5d0","66587c4637981e408edaf59a","5","S87_age8_trial5.png","false","false","https://kisumu-drawings.s3-us-west-1.amazonaws.com/tracings/S87_age8_trial5.png","2","",""
"","1332","image-button-response","44","null","158941","68895b4cc3548521ab78eeca","688a344ee15972be1e07a5d0","66587c4637981e408edaf59a","4","S28_age5_trial4.png","false","false","https://kisumu-drawings.s3-us-west-1.amazonaws.com/tracings/S28_age5_trial4.png","2","",""
"","1657","image-button-response","45","null","161109","68895b4cc3548521ab78eeca","688a344ee15972be1e07a5d0","66587c4637981e408edaf59a","1","S49_age6_trial1.png","false","false","https://kisumu-drawings.s3-us-west-1.amazonaws.com/tracings/S49_age6_trial1.png","4","",""
"","1449","image-button-response","46","null","163071","68895b4cc3548521ab78eeca","688a344ee15972be1e07a5d0","66587c4637981e408edaf59a","5","S28_age5_trial5.png","false","false","https://kisumu-drawings.s3-us-west-1.amazonaws.com/tracings/S28_age5_trial5.png","2","",""
"","1881","image-button-response","47","null","165461","68895b4cc3548521ab78eeca","688a344ee15972be1e07a5d0","66587c4637981e408edaf59a","4","S17_age4_trial4.png","false","false","https://kisumu-drawings.s3-us-west-1.amazonaws.com/tracings/S17_age4_trial4.png","3","",""
"","2113","image-button-response","48","null","168077","68895b4cc3548521ab78eeca","688a344ee15972be1e07a5d0","66587c4637981e408edaf59a","1","S48_age6_trial1.png","false","false","https://kisumu-drawings.s3-us-west-1.amazonaws.com/tracings/S48_age6_trial1.png","2","",""
"","4242","image-button-response","49","null","172822","68895b4cc3548521ab78eeca","688a344ee15972be1e07a5d0","66587c4637981e408edaf59a","5","S18_age4_trial5.png","false","false","https://kisumu-drawings.s3-us-west-1.amazonaws.com/tracings/S18_age4_trial5.png","1","",""
"","2123","image-button-response","50","null","175461","68895b4cc3548521ab78eeca","688a344ee15972be1e07a5d0","66587c4637981e408edaf59a","2","S18_age4_trial2.png","false","false","https://kisumu-drawings.s3-us-west-1.amazonaws.com/tracings/S18_age4_trial2.png","3","",""
"","1329","image-button-response","51","null","177295","68895b4cc3548521ab78eeca","688a344ee15972be1e07a5d0","66587c4637981e408edaf59a","1","S28_age5_trial1.png","false","false","https://kisumu-drawings.s3-us-west-1.amazonaws.com/tracings/S28_age5_trial1.png","4","",""
"","2253","image-button-response","52","null","180051","68895b4cc3548521ab78eeca","688a344ee15972be1e07a5d0","66587c4637981e408edaf59a","3","S16_age4_trial3.png","false","false","https://kisumu-drawings.s3-us-west-1.amazonaws.com/tracings/S16_age4_trial3.png","2","",""
"","2461","image-button-response","53","null","183030","68895b4cc3548521ab78eeca","688a344ee15972be1e07a5d0","66587c4637981e408edaf59a","3","S108_age9_trial3.png","false","false","https://kisumu-drawings.s3-us-west-1.amazonaws.com/tracings/S108_age9_trial3.png","3","",""
"","2511","image-button-response","54","null","186067","68895b4cc3548521ab78eeca","688a344ee15972be1e07a5d0","66587c4637981e408edaf59a","3","S87_age8_trial3.png","false","false","https://kisumu-drawings.s3-us-west-1.amazonaws.com/tracings/S87_age8_trial3.png","3","",""
"","1718","image-button-response","55","null","188295","68895b4cc3548521ab78eeca","688a344ee15972be1e07a5d0","66587c4637981e408edaf59a","1","S68_age7_trial1.png","false","false","https://kisumu-drawings.s3-us-west-1.amazonaws.com/tracings/S68_age7_trial1.png","4","",""
"","2936","image-button-response","56","null","191747","68895b4cc3548521ab78eeca","688a344ee15972be1e07a5d0","66587c4637981e408edaf59a","3","S27_age5_trial3.png","false","false","https://kisumu-drawings.s3-us-west-1.amazonaws.com/tracings/S27_age5_trial3.png","3","",""
"","1304","image-button-response","57","null","193567","68895b4cc3548521ab78eeca","688a344ee15972be1e07a5d0","66587c4637981e408edaf59a","4","S87_age8_trial4.png","false","false","https://kisumu-drawings.s3-us-west-1.amazonaws.com/tracings/S87_age8_trial4.png","2","",""
"","2956","image-button-response","58","null","197041","68895b4cc3548521ab78eeca","688a344ee15972be1e07a5d0","66587c4637981e408edaf59a","2","S28_age5_trial2.png","false","false","https://kisumu-drawings.s3-us-west-1.amazonaws.com/tracings/S28_age5_trial2.png","3","",""
"","1897","image-button-response","59","null","199453","68895b4cc3548521ab78eeca","688a344ee15972be1e07a5d0","66587c4637981e408edaf59a","5","S109_age9_trial5.png","false","false","https://kisumu-drawings.s3-us-west-1.amazonaws.com/tracings/S109_age9_trial5.png","3","",""
"","1488","image-button-response","60","null","201453","68895b4cc3548521ab78eeca","688a344ee15972be1e07a5d0","66587c4637981e408edaf59a","2","S48_age6_trial2.png","false","false","https://kisumu-drawings.s3-us-west-1.amazonaws.com/tracings/S48_age6_trial2.png","2","",""
"","1390","image-button-response","61","null","203345","68895b4cc3548521ab78eeca","688a344ee15972be1e07a5d0","66587c4637981e408edaf59a","4","S109_age9_trial4.png","false","false","https://kisumu-drawings.s3-us-west-1.amazonaws.com/tracings/S109_age9_trial4.png","3","",""
