"view_history","rt","trial_type","trial_index","plugin_version","time_elapsed","study_id","session_id","participant_id","tracing_type","tracing_id","catch_trial","prep_trial","stimulus","response","sketcher_category","response_category"
"[{""page_index"":0,""viewing_time"":5849},{""page_index"":1,""viewing_time"":6667},{""page_index"":2,""viewing_time"":5898},{""page_index"":3,""viewing_time"":2967},{""page_index"":4,""viewing_time"":2566}]","23949","instructions","0","null","23964","68895b4cc3548521ab78eeca","688a919bcce125f8358ab339","6675d8be57dcb7f1e395c6e3","","","","","","","",""
"","6109","image-button-response","1","null","31082","68895b4cc3548521ab78eeca","688a919bcce125f8358ab339","6675d8be57dcb7f1e395c6e3","1","S19_age4_trial1.png","false","false","https://kisumu-drawings.s3-us-west-1.amazonaws.com/tracings/S19_age4_trial1.png","2","",""
"","4429","image-button-response","2","null","36015","68895b4cc3548521ab78eeca","688a919bcce125f8358ab339","6675d8be57dcb7f1e395c6e3","3","S52_age6_trial3.png","false","false","https://kisumu-drawings.s3-us-west-1.amazonaws.com/tracings/S52_age6_trial3.png","4","",""
"","6179","image-button-response","3","null","42699","68895b4cc3548521ab78eeca","688a919bcce125f8358ab339","6675d8be57dcb7f1e395c6e3","3","S72_age7_trial3.png","false","false","https://kisumu-drawings.s3-us-west-1.amazonaws.com/tracings/S72_age7_trial3.png","3","",""
"","3914","image-button-response","4","null","47115","68895b4cc3548521ab78eeca","688a919bcce125f8358ab339","6675d8be57dcb7f1e395c6e3","5","S112_age9_trial5.png","false","false","https://kisumu-drawings.s3-us-west-1.amazonaws.com/tracings/S112_age9_trial5.png","5","",""
"","3846","image-button-response","5","null","51466","68895b4cc3548521ab78eeca","688a919bcce125f8358ab339","6675d8be57dcb7f1e395c6e3","3","S111_age9_trial3.png","false","false","https://kisumu-drawings.s3-us-west-1.amazonaws.com/tracings/S111_age9_trial3.png","3","",""
"","4346","image-button-response","6","null","56315","68895b4cc3548521ab78eeca","688a919bcce125f8358ab339","6675d8be57dcb7f1e395c6e3","5","S31_age5_trial5.png","false","false","https://kisumu-drawings.s3-us-west-1.amazonaws.com/tracings/S31_age5_trial5.png","2","",""
"","3379","image-button-response","7","null","60199","68895b4cc3548521ab78eeca","688a919bcce125f8358ab339","6675d8be57dcb7f1e395c6e3","2","S1_age4_trial2.png","false","false","https://kisumu-drawings.s3-us-west-1.amazonaws.com/tracings/S1_age4_trial2.png","2","",""
"","4129","image-button-response","8","null","64832","68895b4cc3548521ab78eeca","688a919bcce125f8358ab339","6675d8be57dcb7f1e395c6e3","4","S52_age6_trial4.png","false","false","https://kisumu-drawings.s3-us-west-1.amazonaws.com/tracings/S52_age6_trial4.png","4","",""
"","7013","image-button-response","9","null","72349","68895b4cc3548521ab78eeca","688a919bcce125f8358ab339","6675d8be57dcb7f1e395c6e3","2","S111_age9_trial2.png","false","false","https://kisumu-drawings.s3-us-west-1.amazonaws.com/tracings/S111_age9_trial2.png","4","",""
"","4530","image-button-response","10","null","77382","68895b4cc3548521ab78eeca","688a919bcce125f8358ab339","6675d8be57dcb7f1e395c6e3","3","S90_age8_trial3.png","false","false","https://kisumu-drawings.s3-us-west-1.amazonaws.com/tracings/S90_age8_trial3.png","2","",""
"","3080","image-button-response","11","null","80966","68895b4cc3548521ab78eeca","688a919bcce125f8358ab339","6675d8be57dcb7f1e395c6e3","1","S1_age4_trial1.png","false","false","https://kisumu-drawings.s3-us-west-1.amazonaws.com/tracings/S1_age4_trial1.png","2","",""
"","3613","image-button-response","12","null","85082","68895b4cc3548521ab78eeca","688a919bcce125f8358ab339","6675d8be57dcb7f1e395c6e3","5","S52_age6_trial5.png","false","false","https://kisumu-drawings.s3-us-west-1.amazonaws.com/tracings/S52_age6_trial5.png","4","",""
"","4830","image-button-response","13","null","90416","68895b4cc3548521ab78eeca","688a919bcce125f8358ab339","6675d8be57dcb7f1e395c6e3","1","S50_age6_trial1.png","false","false","https://kisumu-drawings.s3-us-west-1.amazonaws.com/tracings/S50_age6_trial1.png","3","",""
"","3930","image-button-response","14","null","94849","68895b4cc3548521ab78eeca","688a919bcce125f8358ab339","6675d8be57dcb7f1e395c6e3","3","S31_age5_trial3.png","false","false","https://kisumu-drawings.s3-us-west-1.amazonaws.com/tracings/S31_age5_trial3.png","2","",""
"","3946","image-button-response","15","null","99300","68895b4cc3548521ab78eeca","688a919bcce125f8358ab339","6675d8be57dcb7f1e395c6e3","4","S111_age9_trial4.png","false","false","https://kisumu-drawings.s3-us-west-1.amazonaws.com/tracings/S111_age9_trial4.png","4","",""
"","4646","image-button-response","16","null","104450","68895b4cc3548521ab78eeca","688a919bcce125f8358ab339","6675d8be57dcb7f1e395c6e3","2","S53_age6_trial2.png","false","false","https://kisumu-drawings.s3-us-west-1.amazonaws.com/tracings/S53_age6_trial2.png","2","",""
"","2146","image-button-response","17","null","107099","68895b4cc3548521ab78eeca","688a919bcce125f8358ab339","6675d8be57dcb7f1e395c6e3","1","S32_age5_trial1.png","false","false","https://kisumu-drawings.s3-us-west-1.amazonaws.com/tracings/S32_age5_trial1.png","2","",""
"","4062","image-button-response","18","null","111665","68895b4cc3548521ab78eeca","688a919bcce125f8358ab339","6675d8be57dcb7f1e395c6e3","1","S51_age6_trial1.png","false","false","https://kisumu-drawings.s3-us-west-1.amazonaws.com/tracings/S51_age6_trial1.png","2","",""
"","4064","image-button-response","19","null","116233","68895b4cc3548521ab78eeca","688a919bcce125f8358ab339","6675d8be57dcb7f1e395c6e3","5","S1_age4_trial5.png","false","false","https://kisumu-drawings.s3-us-west-1.amazonaws.com/tracings/S1_age4_trial5.png","1","",""
"","4796","image-button-response","20","null","121533","68895b4cc3548521ab78eeca","688a919bcce125f8358ab339","6675d8be57dcb7f1e395c6e3","4","S20_age4_trial4.png","false","false","https://kisumu-drawings.s3-us-west-1.amazonaws.com/tracings/S20_age4_trial4.png","1","",""
"","5580","image-button-response","21","null","127617","68895b4cc3548521ab78eeca","688a919bcce125f8358ab339","6675d8be57dcb7f1e395c6e3","4","S112_age9_trial4.png","false","false","https://kisumu-drawings.s3-us-west-1.amazonaws.com/tracings/S112_age9_trial4.png","4","",""
"","4346","image-button-response","22","null","132469","68895b4cc3548521ab78eeca","688a919bcce125f8358ab339","6675d8be57dcb7f1e395c6e3","2","S91_age8_trial2.png","false","false","https://kisumu-drawings.s3-us-west-1.amazonaws.com/tracings/S91_age8_trial2.png","4","",""
"","6627","image-button-response","23","null","139600","68895b4cc3548521ab78eeca","688a919bcce125f8358ab339","6675d8be57dcb7f1e395c6e3","1","S111_age9_trial1.png","false","false","https://kisumu-drawings.s3-us-west-1.amazonaws.com/tracings/S111_age9_trial1.png","3","",""
"","5146","image-button-response","24","null","145251","68895b4cc3548521ab78eeca","688a919bcce125f8358ab339","6675d8be57dcb7f1e395c6e3","1","S112_age9_trial1.png","false","false","https://kisumu-drawings.s3-us-west-1.amazonaws.com/tracings/S112_age9_trial1.png","3","",""
"","5313","image-button-response","25","null","151068","68895b4cc3548521ab78eeca","688a919bcce125f8358ab339","6675d8be57dcb7f1e395c6e3","2","S71_age7_trial2.png","false","false","https://kisumu-drawings.s3-us-west-1.amazonaws.com/tracings/S71_age7_trial2.png","3","",""
"","3047","image-button-response","26","null","154618","68895b4cc3548521ab78eeca","688a919bcce125f8358ab339","6675d8be57dcb7f1e395c6e3","4","S90_age8_trial4.png","false","false","https://kisumu-drawings.s3-us-west-1.amazonaws.com/tracings/S90_age8_trial4.png","3","",""
"","3662","image-button-response","27","null","158714","68895b4cc3548521ab78eeca","688a919bcce125f8358ab339","6675d8be57dcb7f1e395c6e3","1","S71_age7_trial1.png","false","false","https://kisumu-drawings.s3-us-west-1.amazonaws.com/tracings/S71_age7_trial1.png","2","",""
"","3364","image-button-response","28","null","162581","68895b4cc3548521ab78eeca","688a919bcce125f8358ab339","6675d8be57dcb7f1e395c6e3","5","S71_age7_trial5.png","false","false","https://kisumu-drawings.s3-us-west-1.amazonaws.com/tracings/S71_age7_trial5.png","3","",""
"","5047","image-button-response","29","null","168131","68895b4cc3548521ab78eeca","688a919bcce125f8358ab339","6675d8be57dcb7f1e395c6e3","4","S51_age6_trial4.png","false","false","https://kisumu-drawings.s3-us-west-1.amazonaws.com/tracings/S51_age6_trial4.png","2","",""
"","4046","image-button-response","30","null","172680","68895b4cc3548521ab78eeca","688a919bcce125f8358ab339","6675d8be57dcb7f1e395c6e3","1","S31_age5_trial1.png","false","false","https://kisumu-drawings.s3-us-west-1.amazonaws.com/tracings/S31_age5_trial1.png","3","",""
"","5148","image-button-response","31","null","178330","68895b4cc3548521ab78eeca","688a919bcce125f8358ab339","6675d8be57dcb7f1e395c6e3","2","S72_age7_trial2.png","false","false","https://kisumu-drawings.s3-us-west-1.amazonaws.com/tracings/S72_age7_trial2.png","2","",""
"","3298","image-button-response","32","null","182130","68895b4cc3548521ab78eeca","688a919bcce125f8358ab339","6675d8be57dcb7f1e395c6e3","5","S90_age8_trial5.png","false","false","https://kisumu-drawings.s3-us-west-1.amazonaws.com/tracings/S90_age8_trial5.png","2","",""
"","4297","image-button-response","33","null","186931","68895b4cc3548521ab78eeca","688a919bcce125f8358ab339","6675d8be57dcb7f1e395c6e3","1","S72_age7_trial1.png","false","false","https://kisumu-drawings.s3-us-west-1.amazonaws.com/tracings/S72_age7_trial1.png","2","",""
"","3429","image-button-response","34","null","190864","68895b4cc3548521ab78eeca","688a919bcce125f8358ab339","6675d8be57dcb7f1e395c6e3","2","S110_age9_trial2.png","false","false","https://kisumu-drawings.s3-us-west-1.amazonaws.com/tracings/S110_age9_trial2.png","2","",""
"","3230","image-button-response","35","null","194597","68895b4cc3548521ab78eeca","688a919bcce125f8358ab339","6675d8be57dcb7f1e395c6e3","5","S20_age4_trial5.png","false","false","https://kisumu-drawings.s3-us-west-1.amazonaws.com/tracings/S20_age4_trial5.png","1","",""
"","1561","image-button-response","36","null","196664","68895b4cc3548521ab78eeca","688a919bcce125f8358ab339","6675d8be57dcb7f1e395c6e3","","","true","false","stimuli/catch_trials/catch_trial.png","0","","1"
"","5561","image-button-response","37","null","202730","68895b4cc3548521ab78eeca","688a919bcce125f8358ab339","6675d8be57dcb7f1e395c6e3","3","S53_age6_trial3.png","false","false","https://kisumu-drawings.s3-us-west-1.amazonaws.com/tracings/S53_age6_trial3.png","2","",""
"","3331","image-button-response","38","null","206563","68895b4cc3548521ab78eeca","688a919bcce125f8358ab339","6675d8be57dcb7f1e395c6e3","4","S71_age7_trial4.png","false","false","https://kisumu-drawings.s3-us-west-1.amazonaws.com/tracings/S71_age7_trial4.png","3","",""
"","4598","image-button-response","39","null","211664","68895b4cc3548521ab78eeca","688a919bcce125f8358ab339","6675d8be57dcb7f1e395c6e3","4","S72_age7_trial4.png","false","false","https://kisumu-drawings.s3-us-west-1.amazonaws.com/tracings/S72_age7_trial4.png","3","",""
"","2229","image-button-response","40","null","214396","68895b4cc3548521ab78eeca","688a919bcce125f8358ab339","6675d8be57dcb7f1e395c6e3","2","S31_age5_trial2.png","false","false","https://kisumu-drawings.s3-us-west-1.amazonaws.com/tracings/S31_age5_trial2.png","2","",""
"","1647","image-button-response","41","null","216547","68895b4cc3548521ab78eeca","688a919bcce125f8358ab339","6675d8be57dcb7f1e395c6e3","3","S1_age4_trial3.png","false","false","https://kisumu-drawings.s3-us-west-1.amazonaws.com/tracings/S1_age4_trial3.png","2","",""
"","4129","image-button-response","42","null","221178","68895b4cc3548521ab78eeca","688a919bcce125f8358ab339","6675d8be57dcb7f1e395c6e3","5","S111_age9_trial5.png","false","false","https://kisumu-drawings.s3-us-west-1.amazonaws.com/tracings/S111_age9_trial5.png","5","",""
"","2748","image-button-response","43","null","224429","68895b4cc3548521ab78eeca","688a919bcce125f8358ab339","6675d8be57dcb7f1e395c6e3","5","S32_age5_trial5.png","false","false","https://kisumu-drawings.s3-us-west-1.amazonaws.com/tracings/S32_age5_trial5.png","1","",""
"","3164","image-button-response","44","null","228096","68895b4cc3548521ab78eeca","688a919bcce125f8358ab339","6675d8be57dcb7f1e395c6e3","2","S20_age4_trial2.png","false","false","https://kisumu-drawings.s3-us-west-1.amazonaws.com/tracings/S20_age4_trial2.png","1","",""
"","3963","image-button-response","45","null","232562","68895b4cc3548521ab78eeca","688a919bcce125f8358ab339","6675d8be57dcb7f1e395c6e3","4","S91_age8_trial4.png","false","false","https://kisumu-drawings.s3-us-west-1.amazonaws.com/tracings/S91_age8_trial4.png","5","",""
"","3747","image-button-response","46","null","236813","68895b4cc3548521ab78eeca","688a919bcce125f8358ab339","6675d8be57dcb7f1e395c6e3","5","S91_age8_trial5.png","false","false","https://kisumu-drawings.s3-us-west-1.amazonaws.com/tracings/S91_age8_trial5.png","5","",""
"","3863","image-button-response","47","null","241179","68895b4cc3548521ab78eeca","688a919bcce125f8358ab339","6675d8be57dcb7f1e395c6e3","3","S91_age8_trial3.png","false","false","https://kisumu-drawings.s3-us-west-1.amazonaws.com/tracings/S91_age8_trial3.png","4","",""
"","2280","image-button-response","48","null","243963","68895b4cc3548521ab78eeca","688a919bcce125f8358ab339","6675d8be57dcb7f1e395c6e3","3","S32_age5_trial3.png","false","false","https://kisumu-drawings.s3-us-west-1.amazonaws.com/tracings/S32_age5_trial3.png","3","",""
"","3964","image-button-response","49","null","248429","68895b4cc3548521ab78eeca","688a919bcce125f8358ab339","6675d8be57dcb7f1e395c6e3","1","S92_age8_trial1.png","false","false","https://kisumu-drawings.s3-us-west-1.amazonaws.com/tracings/S92_age8_trial1.png","4","",""
"","3114","image-button-response","50","null","252045","68895b4cc3548521ab78eeca","688a919bcce125f8358ab339","6675d8be57dcb7f1e395c6e3","2","S90_age8_trial2.png","false","false","https://kisumu-drawings.s3-us-west-1.amazonaws.com/tracings/S90_age8_trial2.png","3","",""
"","1697","image-button-response","51","null","254245","68895b4cc3548521ab78eeca","688a919bcce125f8358ab339","6675d8be57dcb7f1e395c6e3","4","S1_age4_trial4.png","false","false","https://kisumu-drawings.s3-us-west-1.amazonaws.com/tracings/S1_age4_trial4.png","2","",""
"","2814","image-button-response","52","null","257561","68895b4cc3548521ab78eeca","688a919bcce125f8358ab339","6675d8be57dcb7f1e395c6e3","2","S52_age6_trial2.png","false","false","https://kisumu-drawings.s3-us-west-1.amazonaws.com/tracings/S52_age6_trial2.png","3","",""
"","4214","image-button-response","53","null","262279","68895b4cc3548521ab78eeca","688a919bcce125f8358ab339","6675d8be57dcb7f1e395c6e3","1","S91_age8_trial1.png","false","false","https://kisumu-drawings.s3-us-west-1.amazonaws.com/tracings/S91_age8_trial1.png","5","",""
"","3280","image-button-response","54","null","266062","68895b4cc3548521ab78eeca","688a919bcce125f8358ab339","6675d8be57dcb7f1e395c6e3","4","S32_age5_trial4.png","false","false","https://kisumu-drawings.s3-us-west-1.amazonaws.com/tracings/S32_age5_trial4.png","2","",""
"","2898","image-button-response","55","null","269462","68895b4cc3548521ab78eeca","688a919bcce125f8358ab339","6675d8be57dcb7f1e395c6e3","3","S71_age7_trial3.png","false","false","https://kisumu-drawings.s3-us-west-1.amazonaws.com/tracings/S71_age7_trial3.png","3","",""
"","6613","image-button-response","56","null","276578","68895b4cc3548521ab78eeca","688a919bcce125f8358ab339","6675d8be57dcb7f1e395c6e3","3","S112_age9_trial3.png","false","false","https://kisumu-drawings.s3-us-west-1.amazonaws.com/tracings/S112_age9_trial3.png","3","",""
"","3430","image-button-response","57","null","280511","68895b4cc3548521ab78eeca","688a919bcce125f8358ab339","6675d8be57dcb7f1e395c6e3","4","S31_age5_trial4.png","false","false","https://kisumu-drawings.s3-us-west-1.amazonaws.com/tracings/S31_age5_trial4.png","2","",""
"","3697","image-button-response","58","null","284711","68895b4cc3548521ab78eeca","688a919bcce125f8358ab339","6675d8be57dcb7f1e395c6e3","2","S32_age5_trial2.png","false","false","https://kisumu-drawings.s3-us-west-1.amazonaws.com/tracings/S32_age5_trial2.png","2","",""
"","3530","image-button-response","59","null","288744","68895b4cc3548521ab78eeca","688a919bcce125f8358ab339","6675d8be57dcb7f1e395c6e3","5","S72_age7_trial5.png","false","false","https://kisumu-drawings.s3-us-west-1.amazonaws.com/tracings/S72_age7_trial5.png","3","",""
"","3480","image-button-response","60","null","292728","68895b4cc3548521ab78eeca","688a919bcce125f8358ab339","6675d8be57dcb7f1e395c6e3","3","S19_age4_trial3.png","false","false","https://kisumu-drawings.s3-us-west-1.amazonaws.com/tracings/S19_age4_trial3.png","1","",""
"","2947","image-button-response","61","null","296178","68895b4cc3548521ab78eeca","688a919bcce125f8358ab339","6675d8be57dcb7f1e395c6e3","5","S51_age6_trial5.png","false","false","https://kisumu-drawings.s3-us-west-1.amazonaws.com/tracings/S51_age6_trial5.png","2","",""
