"view_history","rt","trial_type","trial_index","plugin_version","time_elapsed","study_id","session_id","participant_id","tracing_type","tracing_id","catch_trial","prep_trial","stimulus","response","sketcher_category","response_category"
"[{""page_index"":0,""viewing_time"":86015},{""page_index"":1,""viewing_time"":5180},{""page_index"":2,""viewing_time"":4109},{""page_index"":3,""viewing_time"":2033},{""page_index"":4,""viewing_time"":6924}]","104261","instructions","0","null","104311","68895b4cc3548521ab78eeca","688a972501c1115c60bddf41","66940332d70583ebe9a33c05","","","","","","","",""
"","9437","image-button-response","1","null","114768","68895b4cc3548521ab78eeca","688a972501c1115c60bddf41","66940332d70583ebe9a33c05","1","S52_age6_trial1.png","false","false","https://kisumu-drawings.s3-us-west-1.amazonaws.com/tracings/S52_age6_trial1.png","4","",""
"","4129","image-button-response","2","null","119417","68895b4cc3548521ab78eeca","688a972501c1115c60bddf41","66940332d70583ebe9a33c05","2","S91_age8_trial2.png","false","false","https://kisumu-drawings.s3-us-west-1.amazonaws.com/tracings/S91_age8_trial2.png","5","",""
"","4360","image-button-response","3","null","124301","68895b4cc3548521ab78eeca","688a972501c1115c60bddf41","66940332d70583ebe9a33c05","3","S20_age4_trial3.png","false","false","https://kisumu-drawings.s3-us-west-1.amazonaws.com/tracings/S20_age4_trial3.png","2","",""
"","8327","image-button-response","4","null","133144","68895b4cc3548521ab78eeca","688a972501c1115c60bddf41","66940332d70583ebe9a33c05","1","S31_age5_trial1.png","false","false","https://kisumu-drawings.s3-us-west-1.amazonaws.com/tracings/S31_age5_trial1.png","1","",""
"","6230","image-button-response","5","null","139885","68895b4cc3548521ab78eeca","688a972501c1115c60bddf41","66940332d70583ebe9a33c05","3","S53_age6_trial3.png","false","false","https://kisumu-drawings.s3-us-west-1.amazonaws.com/tracings/S53_age6_trial3.png","4","",""
"","4149","image-button-response","6","null","144545","68895b4cc3548521ab78eeca","688a972501c1115c60bddf41","66940332d70583ebe9a33c05","3","S112_age9_trial3.png","false","false","https://kisumu-drawings.s3-us-west-1.amazonaws.com/tracings/S112_age9_trial3.png","5","",""
"","4429","image-button-response","7","null","149487","68895b4cc3548521ab78eeca","688a972501c1115c60bddf41","66940332d70583ebe9a33c05","4","S73_age7_trial4.png","false","false","https://kisumu-drawings.s3-us-west-1.amazonaws.com/tracings/S73_age7_trial4.png","4","",""
"","7861","image-button-response","8","null","157868","68895b4cc3548521ab78eeca","688a972501c1115c60bddf41","66940332d70583ebe9a33c05","4","S52_age6_trial4.png","false","false","https://kisumu-drawings.s3-us-west-1.amazonaws.com/tracings/S52_age6_trial4.png","3","",""
"","4544","image-button-response","9","null","162925","68895b4cc3548521ab78eeca","688a972501c1115c60bddf41","66940332d70583ebe9a33c05","4","S20_age4_trial4.png","false","false","https://kisumu-drawings.s3-us-west-1.amazonaws.com/tracings/S20_age4_trial4.png","1","",""
"","2952","image-button-response","10","null","166385","68895b4cc3548521ab78eeca","688a972501c1115c60bddf41","66940332d70583ebe9a33c05","3","S71_age7_trial3.png","false","false","https://kisumu-drawings.s3-us-west-1.amazonaws.com/tracings/S71_age7_trial3.png","4","",""
"","6718","image-button-response","11","null","173608","68895b4cc3548521ab78eeca","688a972501c1115c60bddf41","66940332d70583ebe9a33c05","5","S1_age4_trial5.png","false","false","https://kisumu-drawings.s3-us-west-1.amazonaws.com/tracings/S1_age4_trial5.png","2","",""
"","12123","image-button-response","12","null","186248","68895b4cc3548521ab78eeca","688a972501c1115c60bddf41","66940332d70583ebe9a33c05","2","S52_age6_trial2.png","false","false","https://kisumu-drawings.s3-us-west-1.amazonaws.com/tracings/S52_age6_trial2.png","4","",""
"","8298","image-button-response","13","null","195064","68895b4cc3548521ab78eeca","688a972501c1115c60bddf41","66940332d70583ebe9a33c05","1","S32_age5_trial1.png","false","false","https://kisumu-drawings.s3-us-west-1.amazonaws.com/tracings/S32_age5_trial1.png","3","",""
"","3233","image-button-response","14","null","198815","68895b4cc3548521ab78eeca","688a972501c1115c60bddf41","66940332d70583ebe9a33c05","3","S72_age7_trial3.png","false","false","https://kisumu-drawings.s3-us-west-1.amazonaws.com/tracings/S72_age7_trial3.png","4","",""
"","3737","image-button-response","15","null","203067","68895b4cc3548521ab78eeca","688a972501c1115c60bddf41","66940332d70583ebe9a33c05","3","S90_age8_trial3.png","false","false","https://kisumu-drawings.s3-us-west-1.amazonaws.com/tracings/S90_age8_trial3.png","4","",""
"","4926","image-button-response","16","null","208498","68895b4cc3548521ab78eeca","688a972501c1115c60bddf41","66940332d70583ebe9a33c05","1","S113_age9_trial1.png","false","false","https://kisumu-drawings.s3-us-west-1.amazonaws.com/tracings/S113_age9_trial1.png","5","",""
"","10669","image-button-response","17","null","219683","68895b4cc3548521ab78eeca","688a972501c1115c60bddf41","66940332d70583ebe9a33c05","5","S31_age5_trial5.png","false","false","https://kisumu-drawings.s3-us-west-1.amazonaws.com/tracings/S31_age5_trial5.png","3","",""
"","3226","image-button-response","18","null","223423","68895b4cc3548521ab78eeca","688a972501c1115c60bddf41","66940332d70583ebe9a33c05","2","S90_age8_trial2.png","false","false","https://kisumu-drawings.s3-us-west-1.amazonaws.com/tracings/S90_age8_trial2.png","4","",""
"","10411","image-button-response","19","null","234341","68895b4cc3548521ab78eeca","688a972501c1115c60bddf41","66940332d70583ebe9a33c05","2","S72_age7_trial2.png","false","false","https://kisumu-drawings.s3-us-west-1.amazonaws.com/tracings/S72_age7_trial2.png","4","",""
"","4109","image-button-response","20","null","238963","68895b4cc3548521ab78eeca","688a972501c1115c60bddf41","66940332d70583ebe9a33c05","1","S72_age7_trial1.png","false","false","https://kisumu-drawings.s3-us-west-1.amazonaws.com/tracings/S72_age7_trial1.png","3","",""
"","2468","image-button-response","21","null","241948","68895b4cc3548521ab78eeca","688a972501c1115c60bddf41","66940332d70583ebe9a33c05","2","S112_age9_trial2.png","false","false","https://kisumu-drawings.s3-us-west-1.amazonaws.com/tracings/S112_age9_trial2.png","4","",""
"","3903","image-button-response","22","null","246386","68895b4cc3548521ab78eeca","688a972501c1115c60bddf41","66940332d70583ebe9a33c05","5","S20_age4_trial5.png","false","false","https://kisumu-drawings.s3-us-west-1.amazonaws.com/tracings/S20_age4_trial5.png","1","",""
"","7133","image-button-response","23","null","254037","68895b4cc3548521ab78eeca","688a972501c1115c60bddf41","66940332d70583ebe9a33c05","4","S74_age7_trial4.png","false","false","https://kisumu-drawings.s3-us-west-1.amazonaws.com/tracings/S74_age7_trial4.png","5","",""
"","3347","image-button-response","24","null","257895","68895b4cc3548521ab78eeca","688a972501c1115c60bddf41","66940332d70583ebe9a33c05","3","S111_age9_trial3.png","false","false","https://kisumu-drawings.s3-us-west-1.amazonaws.com/tracings/S111_age9_trial3.png","5","",""
"","2717","image-button-response","25","null","261126","68895b4cc3548521ab78eeca","688a972501c1115c60bddf41","66940332d70583ebe9a33c05","1","S1_age4_trial1.png","false","false","https://kisumu-drawings.s3-us-west-1.amazonaws.com/tracings/S1_age4_trial1.png","4","",""
"","3118","image-button-response","26","null","264759","68895b4cc3548521ab78eeca","688a972501c1115c60bddf41","66940332d70583ebe9a33c05","1","S20_age4_trial1.png","false","false","https://kisumu-drawings.s3-us-west-1.amazonaws.com/tracings/S20_age4_trial1.png","4","",""
"","3560","image-button-response","27","null","268838","68895b4cc3548521ab78eeca","688a972501c1115c60bddf41","66940332d70583ebe9a33c05","4","S91_age8_trial4.png","false","false","https://kisumu-drawings.s3-us-west-1.amazonaws.com/tracings/S91_age8_trial4.png","5","",""
"","2650","image-button-response","28","null","271999","68895b4cc3548521ab78eeca","688a972501c1115c60bddf41","66940332d70583ebe9a33c05","5","S52_age6_trial5.png","false","false","https://kisumu-drawings.s3-us-west-1.amazonaws.com/tracings/S52_age6_trial5.png","5","",""
"","10185","image-button-response","29","null","282688","68895b4cc3548521ab78eeca","688a972501c1115c60bddf41","66940332d70583ebe9a33c05","2","S32_age5_trial2.png","false","false","https://kisumu-drawings.s3-us-west-1.amazonaws.com/tracings/S32_age5_trial2.png","3","",""
"","4139","image-button-response","30","null","287332","68895b4cc3548521ab78eeca","688a972501c1115c60bddf41","66940332d70583ebe9a33c05","5","S92_age8_trial5.png","false","false","https://kisumu-drawings.s3-us-west-1.amazonaws.com/tracings/S92_age8_trial5.png","4","",""
"","34732","image-button-response","31","null","322594","68895b4cc3548521ab78eeca","688a972501c1115c60bddf41","66940332d70583ebe9a33c05","4","S53_age6_trial4.png","false","false","https://kisumu-drawings.s3-us-west-1.amazonaws.com/tracings/S53_age6_trial4.png","3","",""
"","3858","image-button-response","32","null","326961","68895b4cc3548521ab78eeca","688a972501c1115c60bddf41","66940332d70583ebe9a33c05","3","S52_age6_trial3.png","false","false","https://kisumu-drawings.s3-us-west-1.amazonaws.com/tracings/S52_age6_trial3.png","4","",""
"","2582","image-button-response","33","null","330052","68895b4cc3548521ab78eeca","688a972501c1115c60bddf41","66940332d70583ebe9a33c05","5","S112_age9_trial5.png","false","false","https://kisumu-drawings.s3-us-west-1.amazonaws.com/tracings/S112_age9_trial5.png","5","",""
"","4023","image-button-response","34","null","334595","68895b4cc3548521ab78eeca","688a972501c1115c60bddf41","66940332d70583ebe9a33c05","3","S1_age4_trial3.png","false","false","https://kisumu-drawings.s3-us-west-1.amazonaws.com/tracings/S1_age4_trial3.png","3","",""
"","2545","image-button-response","35","null","337649","68895b4cc3548521ab78eeca","688a972501c1115c60bddf41","66940332d70583ebe9a33c05","5","S91_age8_trial5.png","false","false","https://kisumu-drawings.s3-us-west-1.amazonaws.com/tracings/S91_age8_trial5.png","5","",""
"","1850","image-button-response","36","null","340014","68895b4cc3548521ab78eeca","688a972501c1115c60bddf41","66940332d70583ebe9a33c05","5","S32_age5_trial5.png","false","false","https://kisumu-drawings.s3-us-west-1.amazonaws.com/tracings/S32_age5_trial5.png","2","",""
"","1842","image-button-response","37","null","342359","68895b4cc3548521ab78eeca","688a972501c1115c60bddf41","66940332d70583ebe9a33c05","2","S71_age7_trial2.png","false","false","https://kisumu-drawings.s3-us-west-1.amazonaws.com/tracings/S71_age7_trial2.png","4","",""
"","3724","image-button-response","38","null","346596","68895b4cc3548521ab78eeca","688a972501c1115c60bddf41","66940332d70583ebe9a33c05","5","S51_age6_trial5.png","false","false","https://kisumu-drawings.s3-us-west-1.amazonaws.com/tracings/S51_age6_trial5.png","3","",""
"","2336","image-button-response","39","null","349462","68895b4cc3548521ab78eeca","688a972501c1115c60bddf41","66940332d70583ebe9a33c05","2","S53_age6_trial2.png","false","false","https://kisumu-drawings.s3-us-west-1.amazonaws.com/tracings/S53_age6_trial2.png","4","",""
"","2005","image-button-response","40","null","351972","68895b4cc3548521ab78eeca","688a972501c1115c60bddf41","66940332d70583ebe9a33c05","2","S111_age9_trial2.png","false","false","https://kisumu-drawings.s3-us-west-1.amazonaws.com/tracings/S111_age9_trial2.png","5","",""
"","3397","image-button-response","41","null","355884","68895b4cc3548521ab78eeca","688a972501c1115c60bddf41","66940332d70583ebe9a33c05","2","S31_age5_trial2.png","false","false","https://kisumu-drawings.s3-us-west-1.amazonaws.com/tracings/S31_age5_trial2.png","3","",""
"","2700","image-button-response","42","null","359097","68895b4cc3548521ab78eeca","688a972501c1115c60bddf41","66940332d70583ebe9a33c05","5","S113_age9_trial5.png","false","false","https://kisumu-drawings.s3-us-west-1.amazonaws.com/tracings/S113_age9_trial5.png","5","",""
"","3129","image-button-response","43","null","362733","68895b4cc3548521ab78eeca","688a972501c1115c60bddf41","66940332d70583ebe9a33c05","4","S1_age4_trial4.png","false","false","https://kisumu-drawings.s3-us-west-1.amazonaws.com/tracings/S1_age4_trial4.png","4","",""
"","4187","image-button-response","44","null","367433","68895b4cc3548521ab78eeca","688a972501c1115c60bddf41","66940332d70583ebe9a33c05","1","S71_age7_trial1.png","false","false","https://kisumu-drawings.s3-us-west-1.amazonaws.com/tracings/S71_age7_trial1.png","5","",""
"","3415","image-button-response","45","null","371371","68895b4cc3548521ab78eeca","688a972501c1115c60bddf41","66940332d70583ebe9a33c05","4","S113_age9_trial4.png","false","false","https://kisumu-drawings.s3-us-west-1.amazonaws.com/tracings/S113_age9_trial4.png","5","",""
"","2613","image-button-response","46","null","374489","68895b4cc3548521ab78eeca","688a972501c1115c60bddf41","66940332d70583ebe9a33c05","1","S112_age9_trial1.png","false","false","https://kisumu-drawings.s3-us-west-1.amazonaws.com/tracings/S112_age9_trial1.png","5","",""
"","4834","image-button-response","47","null","379840","68895b4cc3548521ab78eeca","688a972501c1115c60bddf41","66940332d70583ebe9a33c05","4","S90_age8_trial4.png","false","false","https://kisumu-drawings.s3-us-west-1.amazonaws.com/tracings/S90_age8_trial4.png","5","",""
"","3232","image-button-response","48","null","383589","68895b4cc3548521ab78eeca","688a972501c1115c60bddf41","66940332d70583ebe9a33c05","4","S112_age9_trial4.png","false","false","https://kisumu-drawings.s3-us-west-1.amazonaws.com/tracings/S112_age9_trial4.png","5","",""
"","9188","image-button-response","49","null","393290","68895b4cc3548521ab78eeca","688a972501c1115c60bddf41","66940332d70583ebe9a33c05","3","S31_age5_trial3.png","false","false","https://kisumu-drawings.s3-us-west-1.amazonaws.com/tracings/S31_age5_trial3.png","4","",""
"","14290","image-button-response","50","null","408089","68895b4cc3548521ab78eeca","688a972501c1115c60bddf41","66940332d70583ebe9a33c05","4","S31_age5_trial4.png","false","false","https://kisumu-drawings.s3-us-west-1.amazonaws.com/tracings/S31_age5_trial4.png","2","",""
"","7180","image-button-response","51","null","415774","68895b4cc3548521ab78eeca","688a972501c1115c60bddf41","66940332d70583ebe9a33c05","1","S53_age6_trial1.png","false","false","https://kisumu-drawings.s3-us-west-1.amazonaws.com/tracings/S53_age6_trial1.png","5","",""
"","3904","image-button-response","52","null","420186","68895b4cc3548521ab78eeca","688a972501c1115c60bddf41","66940332d70583ebe9a33c05","4","S32_age5_trial4.png","false","false","https://kisumu-drawings.s3-us-west-1.amazonaws.com/tracings/S32_age5_trial4.png","2","",""
"","2633","image-button-response","53","null","423335","68895b4cc3548521ab78eeca","688a972501c1115c60bddf41","66940332d70583ebe9a33c05","5","S73_age7_trial5.png","false","false","https://kisumu-drawings.s3-us-west-1.amazonaws.com/tracings/S73_age7_trial5.png","5","",""
"","5552","image-button-response","54","null","429400","68895b4cc3548521ab78eeca","688a972501c1115c60bddf41","66940332d70583ebe9a33c05","3","S32_age5_trial3.png","false","false","https://kisumu-drawings.s3-us-west-1.amazonaws.com/tracings/S32_age5_trial3.png","3","",""
"","15029","image-button-response","55","null","444937","68895b4cc3548521ab78eeca","688a972501c1115c60bddf41","66940332d70583ebe9a33c05","","","true","false","stimuli/catch_trials/catch_trial.png","0","","1"
"","5809","image-button-response","56","null","451254","68895b4cc3548521ab78eeca","688a972501c1115c60bddf41","66940332d70583ebe9a33c05","2","S20_age4_trial2.png","false","false","https://kisumu-drawings.s3-us-west-1.amazonaws.com/tracings/S20_age4_trial2.png","1","",""
"","3038","image-button-response","57","null","454800","68895b4cc3548521ab78eeca","688a972501c1115c60bddf41","66940332d70583ebe9a33c05","2","S1_age4_trial2.png","false","false","https://kisumu-drawings.s3-us-west-1.amazonaws.com/tracings/S1_age4_trial2.png","4","",""
"","3322","image-button-response","58","null","458634","68895b4cc3548521ab78eeca","688a972501c1115c60bddf41","66940332d70583ebe9a33c05","3","S91_age8_trial3.png","false","false","https://kisumu-drawings.s3-us-west-1.amazonaws.com/tracings/S91_age8_trial3.png","5","",""
"","11565","image-button-response","59","null","470712","68895b4cc3548521ab78eeca","688a972501c1115c60bddf41","66940332d70583ebe9a33c05","1","S91_age8_trial1.png","false","false","https://kisumu-drawings.s3-us-west-1.amazonaws.com/tracings/S91_age8_trial1.png","5","",""
"","2971","image-button-response","60","null","474194","68895b4cc3548521ab78eeca","688a972501c1115c60bddf41","66940332d70583ebe9a33c05","1","S92_age8_trial1.png","false","false","https://kisumu-drawings.s3-us-west-1.amazonaws.com/tracings/S92_age8_trial1.png","5","",""
"","6571","image-button-response","61","null","481269","68895b4cc3548521ab78eeca","688a972501c1115c60bddf41","66940332d70583ebe9a33c05","5","S72_age7_trial5.png","false","false","https://kisumu-drawings.s3-us-west-1.amazonaws.com/tracings/S72_age7_trial5.png","4","",""
