"view_history","rt","trial_type","trial_index","plugin_version","time_elapsed","study_id","session_id","participant_id","tracing_type","tracing_id","catch_trial","prep_trial","stimulus","response","sketcher_category","response_category"
"[{""page_index"":0,""viewing_time"":8099},{""page_index"":1,""viewing_time"":11504},{""page_index"":2,""viewing_time"":4737},{""page_index"":3,""viewing_time"":3583},{""page_index"":4,""viewing_time"":5968}]","33891","instructions","0","null","33897","68895b4cc3548521ab78eeca","688998c66af5eea62a0f01f4","66ab2c0196e62d0107412f24","","","","","","","",""
"","4663","image-button-response","1","null","39568","68895b4cc3548521ab78eeca","688998c66af5eea62a0f01f4","66ab2c0196e62d0107412f24","3","S63_age7_trial3.png","false","false","https://kisumu-drawings.s3-us-west-1.amazonaws.com/tracings/S63_age7_trial3.png","3","",""
"","2649","image-button-response","2","null","42721","68895b4cc3548521ab78eeca","688998c66af5eea62a0f01f4","66ab2c0196e62d0107412f24","1","S44_age6_trial1.png","false","false","https://kisumu-drawings.s3-us-west-1.amazonaws.com/tracings/S44_age6_trial1.png","4","",""
"","2673","image-button-response","3","null","45897","68895b4cc3548521ab78eeca","688998c66af5eea62a0f01f4","66ab2c0196e62d0107412f24","1","S24_age5_trial1.png","false","false","https://kisumu-drawings.s3-us-west-1.amazonaws.com/tracings/S24_age5_trial1.png","2","",""
"","1913","image-button-response","4","null","48313","68895b4cc3548521ab78eeca","688998c66af5eea62a0f01f4","66ab2c0196e62d0107412f24","2","S23_age5_trial2.png","false","false","https://kisumu-drawings.s3-us-west-1.amazonaws.com/tracings/S23_age5_trial2.png","2","",""
"","3399","image-button-response","5","null","52217","68895b4cc3548521ab78eeca","688998c66af5eea62a0f01f4","66ab2c0196e62d0107412f24","2","S44_age6_trial2.png","false","false","https://kisumu-drawings.s3-us-west-1.amazonaws.com/tracings/S44_age6_trial2.png","5","",""
"","2064","image-button-response","6","null","54784","68895b4cc3548521ab78eeca","688998c66af5eea62a0f01f4","66ab2c0196e62d0107412f24","2","S64_age7_trial2.png","false","false","https://kisumu-drawings.s3-us-west-1.amazonaws.com/tracings/S64_age7_trial2.png","5","",""
"","3065","image-button-response","7","null","58352","68895b4cc3548521ab78eeca","688998c66af5eea62a0f01f4","66ab2c0196e62d0107412f24","5","S44_age6_trial5.png","false","false","https://kisumu-drawings.s3-us-west-1.amazonaws.com/tracings/S44_age6_trial5.png","4","",""
"","2272","image-button-response","8","null","61128","68895b4cc3548521ab78eeca","688998c66af5eea62a0f01f4","66ab2c0196e62d0107412f24","5","S23_age5_trial5.png","false","false","https://kisumu-drawings.s3-us-west-1.amazonaws.com/tracings/S23_age5_trial5.png","2","",""
"","1800","image-button-response","9","null","63432","68895b4cc3548521ab78eeca","688998c66af5eea62a0f01f4","66ab2c0196e62d0107412f24","4","S103_age9_trial4.png","false","false","https://kisumu-drawings.s3-us-west-1.amazonaws.com/tracings/S103_age9_trial4.png","5","",""
"","1594","image-button-response","10","null","65529","68895b4cc3548521ab78eeca","688998c66af5eea62a0f01f4","66ab2c0196e62d0107412f24","3","S82_age8_trial3.png","false","false","https://kisumu-drawings.s3-us-west-1.amazonaws.com/tracings/S82_age8_trial3.png","5","",""
"","3008","image-button-response","11","null","69040","68895b4cc3548521ab78eeca","688998c66af5eea62a0f01f4","66ab2c0196e62d0107412f24","3","S103_age9_trial3.png","false","false","https://kisumu-drawings.s3-us-west-1.amazonaws.com/tracings/S103_age9_trial3.png","5","",""
"","2385","image-button-response","12","null","71928","68895b4cc3548521ab78eeca","688998c66af5eea62a0f01f4","66ab2c0196e62d0107412f24","5","S13_age4_trial5.png","false","false","https://kisumu-drawings.s3-us-west-1.amazonaws.com/tracings/S13_age4_trial5.png","4","",""
"","2304","image-button-response","13","null","74736","68895b4cc3548521ab78eeca","688998c66af5eea62a0f01f4","66ab2c0196e62d0107412f24","5","S12_age4_trial5.png","false","false","https://kisumu-drawings.s3-us-west-1.amazonaws.com/tracings/S12_age4_trial5.png","4","",""
"","4321","image-button-response","14","null","79560","68895b4cc3548521ab78eeca","688998c66af5eea62a0f01f4","66ab2c0196e62d0107412f24","1","S13_age4_trial1.png","false","false","https://kisumu-drawings.s3-us-west-1.amazonaws.com/tracings/S13_age4_trial1.png","3","",""
"","2288","image-button-response","15","null","82353","68895b4cc3548521ab78eeca","688998c66af5eea62a0f01f4","66ab2c0196e62d0107412f24","4","S63_age7_trial4.png","false","false","https://kisumu-drawings.s3-us-west-1.amazonaws.com/tracings/S63_age7_trial4.png","4","",""
"","1464","image-button-response","16","null","84320","68895b4cc3548521ab78eeca","688998c66af5eea62a0f01f4","66ab2c0196e62d0107412f24","1","S82_age8_trial1.png","false","false","https://kisumu-drawings.s3-us-west-1.amazonaws.com/tracings/S82_age8_trial1.png","5","",""
"","1664","image-button-response","17","null","86488","68895b4cc3548521ab78eeca","688998c66af5eea62a0f01f4","66ab2c0196e62d0107412f24","3","S83_age8_trial3.png","false","false","https://kisumu-drawings.s3-us-west-1.amazonaws.com/tracings/S83_age8_trial3.png","5","",""
"","2330","image-button-response","18","null","89320","68895b4cc3548521ab78eeca","688998c66af5eea62a0f01f4","66ab2c0196e62d0107412f24","1","S23_age5_trial1.png","false","false","https://kisumu-drawings.s3-us-west-1.amazonaws.com/tracings/S23_age5_trial1.png","4","",""
"","2112","image-button-response","19","null","91936","68895b4cc3548521ab78eeca","688998c66af5eea62a0f01f4","66ab2c0196e62d0107412f24","4","S43_age6_trial4.png","false","false","https://kisumu-drawings.s3-us-west-1.amazonaws.com/tracings/S43_age6_trial4.png","3","",""
"","1881","image-button-response","20","null","94320","68895b4cc3548521ab78eeca","688998c66af5eea62a0f01f4","66ab2c0196e62d0107412f24","","","true","false","stimuli/catch_trials/catch_trial.png","0","","1"
"","1872","image-button-response","21","null","96695","68895b4cc3548521ab78eeca","688998c66af5eea62a0f01f4","66ab2c0196e62d0107412f24","2","S82_age8_trial2.png","false","false","https://kisumu-drawings.s3-us-west-1.amazonaws.com/tracings/S82_age8_trial2.png","5","",""
"","3387","image-button-response","22","null","100584","68895b4cc3548521ab78eeca","688998c66af5eea62a0f01f4","66ab2c0196e62d0107412f24","4","S12_age4_trial4.png","false","false","https://kisumu-drawings.s3-us-west-1.amazonaws.com/tracings/S12_age4_trial4.png","4","",""
"","2041","image-button-response","23","null","103128","68895b4cc3548521ab78eeca","688998c66af5eea62a0f01f4","66ab2c0196e62d0107412f24","2","S103_age9_trial2.png","false","false","https://kisumu-drawings.s3-us-west-1.amazonaws.com/tracings/S103_age9_trial2.png","5","",""
"","1689","image-button-response","24","null","105320","68895b4cc3548521ab78eeca","688998c66af5eea62a0f01f4","66ab2c0196e62d0107412f24","3","S41_age6_trial3.png","false","false","https://kisumu-drawings.s3-us-west-1.amazonaws.com/tracings/S41_age6_trial3.png","4","",""
"","1480","image-button-response","25","null","107304","68895b4cc3548521ab78eeca","688998c66af5eea62a0f01f4","66ab2c0196e62d0107412f24","5","S63_age7_trial5.png","false","false","https://kisumu-drawings.s3-us-west-1.amazonaws.com/tracings/S63_age7_trial5.png","4","",""
"","1441","image-button-response","26","null","109249","68895b4cc3548521ab78eeca","688998c66af5eea62a0f01f4","66ab2c0196e62d0107412f24","1","S43_age6_trial1.png","false","false","https://kisumu-drawings.s3-us-west-1.amazonaws.com/tracings/S43_age6_trial1.png","4","",""
"","1346","image-button-response","27","null","111097","68895b4cc3548521ab78eeca","688998c66af5eea62a0f01f4","66ab2c0196e62d0107412f24","1","S103_age9_trial1.png","false","false","https://kisumu-drawings.s3-us-west-1.amazonaws.com/tracings/S103_age9_trial1.png","5","",""
"","4279","image-button-response","28","null","115880","68895b4cc3548521ab78eeca","688998c66af5eea62a0f01f4","66ab2c0196e62d0107412f24","2","S43_age6_trial2.png","false","false","https://kisumu-drawings.s3-us-west-1.amazonaws.com/tracings/S43_age6_trial2.png","4","",""
"","2873","image-button-response","29","null","119256","68895b4cc3548521ab78eeca","688998c66af5eea62a0f01f4","66ab2c0196e62d0107412f24","3","S24_age5_trial3.png","false","false","https://kisumu-drawings.s3-us-west-1.amazonaws.com/tracings/S24_age5_trial3.png","2","",""
"","2289","image-button-response","30","null","122048","68895b4cc3548521ab78eeca","688998c66af5eea62a0f01f4","66ab2c0196e62d0107412f24","5","S64_age7_trial5.png","false","false","https://kisumu-drawings.s3-us-west-1.amazonaws.com/tracings/S64_age7_trial5.png","4","",""
"","1514","image-button-response","31","null","124064","68895b4cc3548521ab78eeca","688998c66af5eea62a0f01f4","66ab2c0196e62d0107412f24","5","S43_age6_trial5.png","false","false","https://kisumu-drawings.s3-us-west-1.amazonaws.com/tracings/S43_age6_trial5.png","4","",""
"","3000","image-button-response","32","null","127568","68895b4cc3548521ab78eeca","688998c66af5eea62a0f01f4","66ab2c0196e62d0107412f24","5","S83_age8_trial5.png","false","false","https://kisumu-drawings.s3-us-west-1.amazonaws.com/tracings/S83_age8_trial5.png","5","",""
"","1283","image-button-response","33","null","129353","68895b4cc3548521ab78eeca","688998c66af5eea62a0f01f4","66ab2c0196e62d0107412f24","1","S104_age9_trial1.png","false","false","https://kisumu-drawings.s3-us-west-1.amazonaws.com/tracings/S104_age9_trial1.png","5","",""
"","1641","image-button-response","34","null","131496","68895b4cc3548521ab78eeca","688998c66af5eea62a0f01f4","66ab2c0196e62d0107412f24","2","S104_age9_trial2.png","false","false","https://kisumu-drawings.s3-us-west-1.amazonaws.com/tracings/S104_age9_trial2.png","5","",""
"","2010","image-button-response","35","null","134008","68895b4cc3548521ab78eeca","688998c66af5eea62a0f01f4","66ab2c0196e62d0107412f24","4","S24_age5_trial4.png","false","false","https://kisumu-drawings.s3-us-west-1.amazonaws.com/tracings/S24_age5_trial4.png","3","",""
"","1906","image-button-response","36","null","136416","68895b4cc3548521ab78eeca","688998c66af5eea62a0f01f4","66ab2c0196e62d0107412f24","2","S13_age4_trial2.png","false","false","https://kisumu-drawings.s3-us-west-1.amazonaws.com/tracings/S13_age4_trial2.png","3","",""
"","1826","image-button-response","37","null","138744","68895b4cc3548521ab78eeca","688998c66af5eea62a0f01f4","66ab2c0196e62d0107412f24","3","S43_age6_trial3.png","false","false","https://kisumu-drawings.s3-us-west-1.amazonaws.com/tracings/S43_age6_trial3.png","5","",""
"","1496","image-button-response","38","null","140744","68895b4cc3548521ab78eeca","688998c66af5eea62a0f01f4","66ab2c0196e62d0107412f24","3","S104_age9_trial3.png","false","false","https://kisumu-drawings.s3-us-west-1.amazonaws.com/tracings/S104_age9_trial3.png","5","",""
"","1690","image-button-response","39","null","142936","68895b4cc3548521ab78eeca","688998c66af5eea62a0f01f4","66ab2c0196e62d0107412f24","4","S13_age4_trial4.png","false","false","https://kisumu-drawings.s3-us-west-1.amazonaws.com/tracings/S13_age4_trial4.png","2","",""
"","3176","image-button-response","40","null","146616","68895b4cc3548521ab78eeca","688998c66af5eea62a0f01f4","66ab2c0196e62d0107412f24","5","S104_age9_trial5.png","false","false","https://kisumu-drawings.s3-us-west-1.amazonaws.com/tracings/S104_age9_trial5.png","5","",""
"","2578","image-button-response","41","null","149696","68895b4cc3548521ab78eeca","688998c66af5eea62a0f01f4","66ab2c0196e62d0107412f24","2","S24_age5_trial2.png","false","false","https://kisumu-drawings.s3-us-west-1.amazonaws.com/tracings/S24_age5_trial2.png","3","",""
"","1280","image-button-response","42","null","151480","68895b4cc3548521ab78eeca","688998c66af5eea62a0f01f4","66ab2c0196e62d0107412f24","2","S63_age7_trial2.png","false","false","https://kisumu-drawings.s3-us-west-1.amazonaws.com/tracings/S63_age7_trial2.png","5","",""
"","4729","image-button-response","43","null","156712","68895b4cc3548521ab78eeca","688998c66af5eea62a0f01f4","66ab2c0196e62d0107412f24","4","S64_age7_trial4.png","false","false","https://kisumu-drawings.s3-us-west-1.amazonaws.com/tracings/S64_age7_trial4.png","4","",""
"","1833","image-button-response","44","null","159048","68895b4cc3548521ab78eeca","688998c66af5eea62a0f01f4","66ab2c0196e62d0107412f24","5","S24_age5_trial5.png","false","false","https://kisumu-drawings.s3-us-west-1.amazonaws.com/tracings/S24_age5_trial5.png","3","",""
"","1724","image-button-response","45","null","161272","68895b4cc3548521ab78eeca","688998c66af5eea62a0f01f4","66ab2c0196e62d0107412f24","4","S83_age8_trial4.png","false","false","https://kisumu-drawings.s3-us-west-1.amazonaws.com/tracings/S83_age8_trial4.png","4","",""
"","2722","image-button-response","46","null","164496","68895b4cc3548521ab78eeca","688998c66af5eea62a0f01f4","66ab2c0196e62d0107412f24","5","S103_age9_trial5.png","false","false","https://kisumu-drawings.s3-us-west-1.amazonaws.com/tracings/S103_age9_trial5.png","5","",""
"","4993","image-button-response","47","null","169993","68895b4cc3548521ab78eeca","688998c66af5eea62a0f01f4","66ab2c0196e62d0107412f24","3","S10_age4_trial3.png","false","false","https://kisumu-drawings.s3-us-west-1.amazonaws.com/tracings/S10_age4_trial3.png","3","",""
"","2672","image-button-response","48","null","173168","68895b4cc3548521ab78eeca","688998c66af5eea62a0f01f4","66ab2c0196e62d0107412f24","1","S64_age7_trial1.png","false","false","https://kisumu-drawings.s3-us-west-1.amazonaws.com/tracings/S64_age7_trial1.png","3","",""
"","1561","image-button-response","49","null","175232","68895b4cc3548521ab78eeca","688998c66af5eea62a0f01f4","66ab2c0196e62d0107412f24","2","S83_age8_trial2.png","false","false","https://kisumu-drawings.s3-us-west-1.amazonaws.com/tracings/S83_age8_trial2.png","5","",""
"","1282","image-button-response","50","null","177016","68895b4cc3548521ab78eeca","688998c66af5eea62a0f01f4","66ab2c0196e62d0107412f24","3","S12_age4_trial3.png","false","false","https://kisumu-drawings.s3-us-west-1.amazonaws.com/tracings/S12_age4_trial3.png","5","",""
"","1082","image-button-response","51","null","178600","68895b4cc3548521ab78eeca","688998c66af5eea62a0f01f4","66ab2c0196e62d0107412f24","1","S83_age8_trial1.png","false","false","https://kisumu-drawings.s3-us-west-1.amazonaws.com/tracings/S83_age8_trial1.png","5","",""
"","2463","image-button-response","52","null","181567","68895b4cc3548521ab78eeca","688998c66af5eea62a0f01f4","66ab2c0196e62d0107412f24","4","S104_age9_trial4.png","false","false","https://kisumu-drawings.s3-us-west-1.amazonaws.com/tracings/S104_age9_trial4.png","5","",""
"","1546","image-button-response","53","null","183616","68895b4cc3548521ab78eeca","688998c66af5eea62a0f01f4","66ab2c0196e62d0107412f24","2","S12_age4_trial2.png","false","false","https://kisumu-drawings.s3-us-west-1.amazonaws.com/tracings/S12_age4_trial2.png","4","",""
"","4217","image-button-response","54","null","188336","68895b4cc3548521ab78eeca","688998c66af5eea62a0f01f4","66ab2c0196e62d0107412f24","1","S12_age4_trial1.png","false","false","https://kisumu-drawings.s3-us-west-1.amazonaws.com/tracings/S12_age4_trial1.png","5","",""
"","2354","image-button-response","55","null","191192","68895b4cc3548521ab78eeca","688998c66af5eea62a0f01f4","66ab2c0196e62d0107412f24","4","S82_age8_trial4.png","false","false","https://kisumu-drawings.s3-us-west-1.amazonaws.com/tracings/S82_age8_trial4.png","4","",""
"","1890","image-button-response","56","null","193585","68895b4cc3548521ab78eeca","688998c66af5eea62a0f01f4","66ab2c0196e62d0107412f24","5","S82_age8_trial5.png","false","false","https://kisumu-drawings.s3-us-west-1.amazonaws.com/tracings/S82_age8_trial5.png","4","",""
"","2295","image-button-response","57","null","196383","68895b4cc3548521ab78eeca","688998c66af5eea62a0f01f4","66ab2c0196e62d0107412f24","3","S23_age5_trial3.png","false","false","https://kisumu-drawings.s3-us-west-1.amazonaws.com/tracings/S23_age5_trial3.png","1","",""
"","3281","image-button-response","58","null","200168","68895b4cc3548521ab78eeca","688998c66af5eea62a0f01f4","66ab2c0196e62d0107412f24","4","S44_age6_trial4.png","false","false","https://kisumu-drawings.s3-us-west-1.amazonaws.com/tracings/S44_age6_trial4.png","3","",""
"","1681","image-button-response","59","null","202352","68895b4cc3548521ab78eeca","688998c66af5eea62a0f01f4","66ab2c0196e62d0107412f24","1","S63_age7_trial1.png","false","false","https://kisumu-drawings.s3-us-west-1.amazonaws.com/tracings/S63_age7_trial1.png","5","",""
"","1672","image-button-response","60","null","204528","68895b4cc3548521ab78eeca","688998c66af5eea62a0f01f4","66ab2c0196e62d0107412f24","3","S64_age7_trial3.png","false","false","https://kisumu-drawings.s3-us-west-1.amazonaws.com/tracings/S64_age7_trial3.png","5","",""
"","4226","image-button-response","61","null","209256","68895b4cc3548521ab78eeca","688998c66af5eea62a0f01f4","66ab2c0196e62d0107412f24","4","S23_age5_trial4.png","false","false","https://kisumu-drawings.s3-us-west-1.amazonaws.com/tracings/S23_age5_trial4.png","1","",""
