"view_history","rt","trial_type","trial_index","plugin_version","time_elapsed","study_id","session_id","participant_id","tracing_type","tracing_id","catch_trial","prep_trial","stimulus","response","sketcher_category","response_category"
"[{""page_index"":0,""viewing_time"":7954},{""page_index"":1,""viewing_time"":8220},{""page_index"":2,""viewing_time"":8944},{""page_index"":3,""viewing_time"":3647},{""page_index"":4,""viewing_time"":9308}]","38073","instructions","0","null","38080","68895b4cc3548521ab78eeca","688964170178ab22da8d065a","66bbdb718eac7b2d0d21edf7","","","","","","","",""
"","7092","image-button-response","1","null","46180","68895b4cc3548521ab78eeca","688964170178ab22da8d065a","66bbdb718eac7b2d0d21edf7","4","S101_age9_trial4.png","false","false","https://kisumu-drawings.s3-us-west-1.amazonaws.com/tracings/S101_age9_trial4.png","4","",""
"","5276","image-button-response","2","null","51970","68895b4cc3548521ab78eeca","688964170178ab22da8d065a","66bbdb718eac7b2d0d21edf7","3","S11_age4_trial3.png","false","false","https://kisumu-drawings.s3-us-west-1.amazonaws.com/tracings/S11_age4_trial3.png","2","",""
"","2767","image-button-response","3","null","55254","68895b4cc3548521ab78eeca","688964170178ab22da8d065a","66bbdb718eac7b2d0d21edf7","2","S101_age9_trial2.png","false","false","https://kisumu-drawings.s3-us-west-1.amazonaws.com/tracings/S101_age9_trial2.png","4","",""
"","3065","image-button-response","4","null","58834","68895b4cc3548521ab78eeca","688964170178ab22da8d065a","66bbdb718eac7b2d0d21edf7","2","S100_age8_trial2.png","false","false","https://kisumu-drawings.s3-us-west-1.amazonaws.com/tracings/S100_age8_trial2.png","5","",""
"","3208","image-button-response","5","null","62556","68895b4cc3548521ab78eeca","688964170178ab22da8d065a","66bbdb718eac7b2d0d21edf7","3","S42_age6_trial3.png","false","false","https://kisumu-drawings.s3-us-west-1.amazonaws.com/tracings/S42_age6_trial3.png","5","",""
"","3152","image-button-response","6","null","66212","68895b4cc3548521ab78eeca","688964170178ab22da8d065a","66bbdb718eac7b2d0d21edf7","3","S10_age4_trial3.png","false","false","https://kisumu-drawings.s3-us-west-1.amazonaws.com/tracings/S10_age4_trial3.png","4","",""
"","3799","image-button-response","7","null","70529","68895b4cc3548521ab78eeca","688964170178ab22da8d065a","66bbdb718eac7b2d0d21edf7","1","S100_age8_trial1.png","false","false","https://kisumu-drawings.s3-us-west-1.amazonaws.com/tracings/S100_age8_trial1.png","5","",""
"","2423","image-button-response","8","null","73463","68895b4cc3548521ab78eeca","688964170178ab22da8d065a","66bbdb718eac7b2d0d21edf7","2","S61_age7_trial2.png","false","false","https://kisumu-drawings.s3-us-west-1.amazonaws.com/tracings/S61_age7_trial2.png","5","",""
"","2819","image-button-response","9","null","76790","68895b4cc3548521ab78eeca","688964170178ab22da8d065a","66bbdb718eac7b2d0d21edf7","2","S81_age8_trial2.png","false","false","https://kisumu-drawings.s3-us-west-1.amazonaws.com/tracings/S81_age8_trial2.png","5","",""
"","2221","image-button-response","10","null","79520","68895b4cc3548521ab78eeca","688964170178ab22da8d065a","66bbdb718eac7b2d0d21edf7","2","S62_age7_trial2.png","false","false","https://kisumu-drawings.s3-us-west-1.amazonaws.com/tracings/S62_age7_trial2.png","5","",""
"","1579","image-button-response","11","null","81602","68895b4cc3548521ab78eeca","688964170178ab22da8d065a","66bbdb718eac7b2d0d21edf7","1","S41_age6_trial1.png","false","false","https://kisumu-drawings.s3-us-west-1.amazonaws.com/tracings/S41_age6_trial1.png","5","",""
"","4611","image-button-response","12","null","86717","68895b4cc3548521ab78eeca","688964170178ab22da8d065a","66bbdb718eac7b2d0d21edf7","3","S81_age8_trial3.png","false","false","https://kisumu-drawings.s3-us-west-1.amazonaws.com/tracings/S81_age8_trial3.png","5","",""
"","2499","image-button-response","13","null","89721","68895b4cc3548521ab78eeca","688964170178ab22da8d065a","66bbdb718eac7b2d0d21edf7","2","S21_age5_trial2.png","false","false","https://kisumu-drawings.s3-us-west-1.amazonaws.com/tracings/S21_age5_trial2.png","5","",""
"","2430","image-button-response","14","null","92664","68895b4cc3548521ab78eeca","688964170178ab22da8d065a","66bbdb718eac7b2d0d21edf7","5","S101_age9_trial5.png","false","false","https://kisumu-drawings.s3-us-west-1.amazonaws.com/tracings/S101_age9_trial5.png","5","",""
"","4584","image-button-response","15","null","97752","68895b4cc3548521ab78eeca","688964170178ab22da8d065a","66bbdb718eac7b2d0d21edf7","4","S22_age5_trial4.png","false","false","https://kisumu-drawings.s3-us-west-1.amazonaws.com/tracings/S22_age5_trial4.png","4","",""
"","3550","image-button-response","16","null","101808","68895b4cc3548521ab78eeca","688964170178ab22da8d065a","66bbdb718eac7b2d0d21edf7","5","S42_age6_trial5.png","false","false","https://kisumu-drawings.s3-us-west-1.amazonaws.com/tracings/S42_age6_trial5.png","4","",""
"","3141","image-button-response","17","null","105457","68895b4cc3548521ab78eeca","688964170178ab22da8d065a","66bbdb718eac7b2d0d21edf7","5","S62_age7_trial5.png","false","false","https://kisumu-drawings.s3-us-west-1.amazonaws.com/tracings/S62_age7_trial5.png","5","",""
"","6963","image-button-response","18","null","112925","68895b4cc3548521ab78eeca","688964170178ab22da8d065a","66bbdb718eac7b2d0d21edf7","1","S22_age5_trial1.png","false","false","https://kisumu-drawings.s3-us-west-1.amazonaws.com/tracings/S22_age5_trial1.png","4","",""
"","10293","image-button-response","19","null","123731","68895b4cc3548521ab78eeca","688964170178ab22da8d065a","66bbdb718eac7b2d0d21edf7","5","S10_age4_trial5.png","false","false","https://kisumu-drawings.s3-us-west-1.amazonaws.com/tracings/S10_age4_trial5.png","2","",""
"","4252","image-button-response","20","null","128484","68895b4cc3548521ab78eeca","688964170178ab22da8d065a","66bbdb718eac7b2d0d21edf7","1","S21_age5_trial1.png","false","false","https://kisumu-drawings.s3-us-west-1.amazonaws.com/tracings/S21_age5_trial1.png","4","",""
"","4505","image-button-response","21","null","133494","68895b4cc3548521ab78eeca","688964170178ab22da8d065a","66bbdb718eac7b2d0d21edf7","5","S81_age8_trial5.png","false","false","https://kisumu-drawings.s3-us-west-1.amazonaws.com/tracings/S81_age8_trial5.png","4","",""
"","5455","image-button-response","22","null","139459","68895b4cc3548521ab78eeca","688964170178ab22da8d065a","66bbdb718eac7b2d0d21edf7","2","S42_age6_trial2.png","false","false","https://kisumu-drawings.s3-us-west-1.amazonaws.com/tracings/S42_age6_trial2.png","3","",""
"","4018","image-button-response","23","null","143987","68895b4cc3548521ab78eeca","688964170178ab22da8d065a","66bbdb718eac7b2d0d21edf7","2","S41_age6_trial2.png","false","false","https://kisumu-drawings.s3-us-west-1.amazonaws.com/tracings/S41_age6_trial2.png","4","",""
"","4942","image-button-response","24","null","149434","68895b4cc3548521ab78eeca","688964170178ab22da8d065a","66bbdb718eac7b2d0d21edf7","4","S62_age7_trial4.png","false","false","https://kisumu-drawings.s3-us-west-1.amazonaws.com/tracings/S62_age7_trial4.png","4","",""
"","2941","image-button-response","25","null","152880","68895b4cc3548521ab78eeca","688964170178ab22da8d065a","66bbdb718eac7b2d0d21edf7","1","S10_age4_trial1.png","false","false","https://kisumu-drawings.s3-us-west-1.amazonaws.com/tracings/S10_age4_trial1.png","4","",""
"","5440","image-button-response","26","null","158825","68895b4cc3548521ab78eeca","688964170178ab22da8d065a","66bbdb718eac7b2d0d21edf7","2","S11_age4_trial2.png","false","false","https://kisumu-drawings.s3-us-west-1.amazonaws.com/tracings/S11_age4_trial2.png","1","",""
"","4894","image-button-response","27","null","164226","68895b4cc3548521ab78eeca","688964170178ab22da8d065a","66bbdb718eac7b2d0d21edf7","3","S100_age8_trial3.png","false","false","https://kisumu-drawings.s3-us-west-1.amazonaws.com/tracings/S100_age8_trial3.png","3","",""
"","4574","image-button-response","28","null","169317","68895b4cc3548521ab78eeca","688964170178ab22da8d065a","66bbdb718eac7b2d0d21edf7","4","S41_age6_trial4.png","false","false","https://kisumu-drawings.s3-us-west-1.amazonaws.com/tracings/S41_age6_trial4.png","2","",""
"","3672","image-button-response","29","null","173501","68895b4cc3548521ab78eeca","688964170178ab22da8d065a","66bbdb718eac7b2d0d21edf7","4","S102_age9_trial4.png","false","false","https://kisumu-drawings.s3-us-west-1.amazonaws.com/tracings/S102_age9_trial4.png","3","",""
"","2441","image-button-response","30","null","176444","68895b4cc3548521ab78eeca","688964170178ab22da8d065a","66bbdb718eac7b2d0d21edf7","1","S11_age4_trial1.png","false","false","https://kisumu-drawings.s3-us-west-1.amazonaws.com/tracings/S11_age4_trial1.png","1","",""
"","5052","image-button-response","31","null","182010","68895b4cc3548521ab78eeca","688964170178ab22da8d065a","66bbdb718eac7b2d0d21edf7","3","S22_age5_trial3.png","false","false","https://kisumu-drawings.s3-us-west-1.amazonaws.com/tracings/S22_age5_trial3.png","3","",""
"","8852","image-button-response","32","null","191373","68895b4cc3548521ab78eeca","688964170178ab22da8d065a","66bbdb718eac7b2d0d21edf7","5","S22_age5_trial5.png","false","false","https://kisumu-drawings.s3-us-west-1.amazonaws.com/tracings/S22_age5_trial5.png","3","",""
"","2787","image-button-response","33","null","194677","68895b4cc3548521ab78eeca","688964170178ab22da8d065a","66bbdb718eac7b2d0d21edf7","5","S41_age6_trial5.png","false","false","https://kisumu-drawings.s3-us-west-1.amazonaws.com/tracings/S41_age6_trial5.png","3","",""
"","3370","image-button-response","34","null","198551","68895b4cc3548521ab78eeca","688964170178ab22da8d065a","66bbdb718eac7b2d0d21edf7","4","S42_age6_trial4.png","false","false","https://kisumu-drawings.s3-us-west-1.amazonaws.com/tracings/S42_age6_trial4.png","1","",""
"","2824","image-button-response","35","null","201887","68895b4cc3548521ab78eeca","688964170178ab22da8d065a","66bbdb718eac7b2d0d21edf7","5","S11_age4_trial5.png","false","false","https://kisumu-drawings.s3-us-west-1.amazonaws.com/tracings/S11_age4_trial5.png","1","",""
"","4818","image-button-response","36","null","207217","68895b4cc3548521ab78eeca","688964170178ab22da8d065a","66bbdb718eac7b2d0d21edf7","3","S101_age9_trial3.png","false","false","https://kisumu-drawings.s3-us-west-1.amazonaws.com/tracings/S101_age9_trial3.png","5","",""
"","3197","image-button-response","37","null","210923","68895b4cc3548521ab78eeca","688964170178ab22da8d065a","66bbdb718eac7b2d0d21edf7","4","S100_age8_trial4.png","false","false","https://kisumu-drawings.s3-us-west-1.amazonaws.com/tracings/S100_age8_trial4.png","2","",""
"","5527","image-button-response","38","null","216961","68895b4cc3548521ab78eeca","688964170178ab22da8d065a","66bbdb718eac7b2d0d21edf7","3","S102_age9_trial3.png","false","false","https://kisumu-drawings.s3-us-west-1.amazonaws.com/tracings/S102_age9_trial3.png","4","",""
"","5081","image-button-response","39","null","222556","68895b4cc3548521ab78eeca","688964170178ab22da8d065a","66bbdb718eac7b2d0d21edf7","5","S102_age9_trial5.png","false","false","https://kisumu-drawings.s3-us-west-1.amazonaws.com/tracings/S102_age9_trial5.png","4","",""
"","1937","image-button-response","40","null","225004","68895b4cc3548521ab78eeca","688964170178ab22da8d065a","66bbdb718eac7b2d0d21edf7","3","S21_age5_trial3.png","false","false","https://kisumu-drawings.s3-us-west-1.amazonaws.com/tracings/S21_age5_trial3.png","2","",""
"","4253","image-button-response","41","null","229760","68895b4cc3548521ab78eeca","688964170178ab22da8d065a","66bbdb718eac7b2d0d21edf7","2","S102_age9_trial2.png","false","false","https://kisumu-drawings.s3-us-west-1.amazonaws.com/tracings/S102_age9_trial2.png","3","",""
"","3517","image-button-response","42","null","233785","68895b4cc3548521ab78eeca","688964170178ab22da8d065a","66bbdb718eac7b2d0d21edf7","4","S61_age7_trial4.png","false","false","https://kisumu-drawings.s3-us-west-1.amazonaws.com/tracings/S61_age7_trial4.png","5","",""
"","3806","image-button-response","43","null","238094","68895b4cc3548521ab78eeca","688964170178ab22da8d065a","66bbdb718eac7b2d0d21edf7","4","S21_age5_trial4.png","false","false","https://kisumu-drawings.s3-us-west-1.amazonaws.com/tracings/S21_age5_trial4.png","2","",""
"","3652","image-button-response","44","null","242254","68895b4cc3548521ab78eeca","688964170178ab22da8d065a","66bbdb718eac7b2d0d21edf7","2","S10_age4_trial2.png","false","false","https://kisumu-drawings.s3-us-west-1.amazonaws.com/tracings/S10_age4_trial2.png","2","",""
"","2797","image-button-response","45","null","245555","68895b4cc3548521ab78eeca","688964170178ab22da8d065a","66bbdb718eac7b2d0d21edf7","","","true","false","stimuli/catch_trials/catch_trial.png","0","","1"
"","6166","image-button-response","46","null","252238","68895b4cc3548521ab78eeca","688964170178ab22da8d065a","66bbdb718eac7b2d0d21edf7","3","S61_age7_trial3.png","false","false","https://kisumu-drawings.s3-us-west-1.amazonaws.com/tracings/S61_age7_trial3.png","5","",""
"","3863","image-button-response","47","null","256606","68895b4cc3548521ab78eeca","688964170178ab22da8d065a","66bbdb718eac7b2d0d21edf7","3","S41_age6_trial3.png","false","false","https://kisumu-drawings.s3-us-west-1.amazonaws.com/tracings/S41_age6_trial3.png","3","",""
"","3321","image-button-response","48","null","260443","68895b4cc3548521ab78eeca","688964170178ab22da8d065a","66bbdb718eac7b2d0d21edf7","3","S62_age7_trial3.png","false","false","https://kisumu-drawings.s3-us-west-1.amazonaws.com/tracings/S62_age7_trial3.png","4","",""
"","3387","image-button-response","49","null","264333","68895b4cc3548521ab78eeca","688964170178ab22da8d065a","66bbdb718eac7b2d0d21edf7","4","S11_age4_trial4.png","false","false","https://kisumu-drawings.s3-us-west-1.amazonaws.com/tracings/S11_age4_trial4.png","1","",""
"","6029","image-button-response","50","null","270870","68895b4cc3548521ab78eeca","688964170178ab22da8d065a","66bbdb718eac7b2d0d21edf7","5","S21_age5_trial5.png","false","false","https://kisumu-drawings.s3-us-west-1.amazonaws.com/tracings/S21_age5_trial5.png","3","",""
"","5589","image-button-response","51","null","276977","68895b4cc3548521ab78eeca","688964170178ab22da8d065a","66bbdb718eac7b2d0d21edf7","4","S81_age8_trial4.png","false","false","https://kisumu-drawings.s3-us-west-1.amazonaws.com/tracings/S81_age8_trial4.png","3","",""
"","2944","image-button-response","52","null","280428","68895b4cc3548521ab78eeca","688964170178ab22da8d065a","66bbdb718eac7b2d0d21edf7","2","S22_age5_trial2.png","false","false","https://kisumu-drawings.s3-us-west-1.amazonaws.com/tracings/S22_age5_trial2.png","4","",""
"","7864","image-button-response","53","null","288795","68895b4cc3548521ab78eeca","688964170178ab22da8d065a","66bbdb718eac7b2d0d21edf7","1","S81_age8_trial1.png","false","false","https://kisumu-drawings.s3-us-west-1.amazonaws.com/tracings/S81_age8_trial1.png","5","",""
"","4518","image-button-response","54","null","293823","68895b4cc3548521ab78eeca","688964170178ab22da8d065a","66bbdb718eac7b2d0d21edf7","1","S42_age6_trial1.png","false","false","https://kisumu-drawings.s3-us-west-1.amazonaws.com/tracings/S42_age6_trial1.png","3","",""
"","3531","image-button-response","55","null","297863","68895b4cc3548521ab78eeca","688964170178ab22da8d065a","66bbdb718eac7b2d0d21edf7","5","S100_age8_trial5.png","false","false","https://kisumu-drawings.s3-us-west-1.amazonaws.com/tracings/S100_age8_trial5.png","3","",""
"","2193","image-button-response","56","null","300564","68895b4cc3548521ab78eeca","688964170178ab22da8d065a","66bbdb718eac7b2d0d21edf7","1","S62_age7_trial1.png","false","false","https://kisumu-drawings.s3-us-west-1.amazonaws.com/tracings/S62_age7_trial1.png","5","",""
"","2459","image-button-response","57","null","303524","68895b4cc3548521ab78eeca","688964170178ab22da8d065a","66bbdb718eac7b2d0d21edf7","1","S102_age9_trial1.png","false","false","https://kisumu-drawings.s3-us-west-1.amazonaws.com/tracings/S102_age9_trial1.png","4","",""
"","3833","image-button-response","58","null","307873","68895b4cc3548521ab78eeca","688964170178ab22da8d065a","66bbdb718eac7b2d0d21edf7","1","S101_age9_trial1.png","false","false","https://kisumu-drawings.s3-us-west-1.amazonaws.com/tracings/S101_age9_trial1.png","5","",""
"","4992","image-button-response","59","null","313378","68895b4cc3548521ab78eeca","688964170178ab22da8d065a","66bbdb718eac7b2d0d21edf7","1","S61_age7_trial1.png","false","false","https://kisumu-drawings.s3-us-west-1.amazonaws.com/tracings/S61_age7_trial1.png","5","",""
"","4783","image-button-response","60","null","318664","68895b4cc3548521ab78eeca","688964170178ab22da8d065a","66bbdb718eac7b2d0d21edf7","5","S61_age7_trial5.png","false","false","https://kisumu-drawings.s3-us-west-1.amazonaws.com/tracings/S61_age7_trial5.png","5","",""
"","4855","image-button-response","61","null","324032","68895b4cc3548521ab78eeca","688964170178ab22da8d065a","66bbdb718eac7b2d0d21edf7","4","S10_age4_trial4.png","false","false","https://kisumu-drawings.s3-us-west-1.amazonaws.com/tracings/S10_age4_trial4.png","2","",""
