"view_history","rt","trial_type","trial_index","plugin_version","time_elapsed","study_id","session_id","participant_id","tracing_type","tracing_id","catch_trial","prep_trial","stimulus","response","sketcher_category","response_category"
"[{""page_index"":0,""viewing_time"":11379},{""page_index"":1,""viewing_time"":17300},{""page_index"":2,""viewing_time"":9297},{""page_index"":3,""viewing_time"":2559},{""page_index"":4,""viewing_time"":8342}]","48892","instructions","0","null","48920","68895b4cc3548521ab78eeca","6889a3c82d61d99a5fe09253","66bf6ab25d76db9c95e01458","","","","","","","",""
"","3493","image-button-response","1","null","53425","68895b4cc3548521ab78eeca","6889a3c82d61d99a5fe09253","66bf6ab25d76db9c95e01458","1","S63_age7_trial1.png","false","false","https://kisumu-drawings.s3-us-west-1.amazonaws.com/tracings/S63_age7_trial1.png","5","",""
"","6043","image-button-response","2","null","59984","68895b4cc3548521ab78eeca","6889a3c82d61d99a5fe09253","66bf6ab25d76db9c95e01458","1","S44_age6_trial1.png","false","false","https://kisumu-drawings.s3-us-west-1.amazonaws.com/tracings/S44_age6_trial1.png","1","",""
"","6380","image-button-response","3","null","66878","68895b4cc3548521ab78eeca","6889a3c82d61d99a5fe09253","66bf6ab25d76db9c95e01458","2","S103_age9_trial2.png","false","false","https://kisumu-drawings.s3-us-west-1.amazonaws.com/tracings/S103_age9_trial2.png","5","",""
"","5536","image-button-response","4","null","72925","68895b4cc3548521ab78eeca","6889a3c82d61d99a5fe09253","66bf6ab25d76db9c95e01458","4","S44_age6_trial4.png","false","false","https://kisumu-drawings.s3-us-west-1.amazonaws.com/tracings/S44_age6_trial4.png","3","",""
"","3548","image-button-response","5","null","76988","68895b4cc3548521ab78eeca","6889a3c82d61d99a5fe09253","66bf6ab25d76db9c95e01458","4","S23_age5_trial4.png","false","false","https://kisumu-drawings.s3-us-west-1.amazonaws.com/tracings/S23_age5_trial4.png","2","",""
"","4434","image-button-response","6","null","81939","68895b4cc3548521ab78eeca","6889a3c82d61d99a5fe09253","66bf6ab25d76db9c95e01458","3","S43_age6_trial3.png","false","false","https://kisumu-drawings.s3-us-west-1.amazonaws.com/tracings/S43_age6_trial3.png","4","",""
"","3125","image-button-response","7","null","85575","68895b4cc3548521ab78eeca","6889a3c82d61d99a5fe09253","66bf6ab25d76db9c95e01458","4","S83_age8_trial4.png","false","false","https://kisumu-drawings.s3-us-west-1.amazonaws.com/tracings/S83_age8_trial4.png","5","",""
"","4490","image-button-response","8","null","90573","68895b4cc3548521ab78eeca","6889a3c82d61d99a5fe09253","66bf6ab25d76db9c95e01458","2","S12_age4_trial2.png","false","false","https://kisumu-drawings.s3-us-west-1.amazonaws.com/tracings/S12_age4_trial2.png","4","",""
"","2669","image-button-response","9","null","93762","68895b4cc3548521ab78eeca","6889a3c82d61d99a5fe09253","66bf6ab25d76db9c95e01458","4","S24_age5_trial4.png","false","false","https://kisumu-drawings.s3-us-west-1.amazonaws.com/tracings/S24_age5_trial4.png","3","",""
"","7044","image-button-response","10","null","101325","68895b4cc3548521ab78eeca","6889a3c82d61d99a5fe09253","66bf6ab25d76db9c95e01458","1","S82_age8_trial1.png","false","false","https://kisumu-drawings.s3-us-west-1.amazonaws.com/tracings/S82_age8_trial1.png","5","",""
"","3538","image-button-response","11","null","105370","68895b4cc3548521ab78eeca","6889a3c82d61d99a5fe09253","66bf6ab25d76db9c95e01458","1","S104_age9_trial1.png","false","false","https://kisumu-drawings.s3-us-west-1.amazonaws.com/tracings/S104_age9_trial1.png","4","",""
"","3648","image-button-response","12","null","109524","68895b4cc3548521ab78eeca","6889a3c82d61d99a5fe09253","66bf6ab25d76db9c95e01458","5","S43_age6_trial5.png","false","false","https://kisumu-drawings.s3-us-west-1.amazonaws.com/tracings/S43_age6_trial5.png","4","",""
"","2942","image-button-response","13","null","112971","68895b4cc3548521ab78eeca","6889a3c82d61d99a5fe09253","66bf6ab25d76db9c95e01458","3","S63_age7_trial3.png","false","false","https://kisumu-drawings.s3-us-west-1.amazonaws.com/tracings/S63_age7_trial3.png","4","",""
"","2560","image-button-response","14","null","116044","68895b4cc3548521ab78eeca","6889a3c82d61d99a5fe09253","66bf6ab25d76db9c95e01458","4","S82_age8_trial4.png","false","false","https://kisumu-drawings.s3-us-west-1.amazonaws.com/tracings/S82_age8_trial4.png","5","",""
"","3153","image-button-response","15","null","119707","68895b4cc3548521ab78eeca","6889a3c82d61d99a5fe09253","66bf6ab25d76db9c95e01458","3","S104_age9_trial3.png","false","false","https://kisumu-drawings.s3-us-west-1.amazonaws.com/tracings/S104_age9_trial3.png","4","",""
"","2069","image-button-response","16","null","122302","68895b4cc3548521ab78eeca","6889a3c82d61d99a5fe09253","66bf6ab25d76db9c95e01458","1","S12_age4_trial1.png","false","false","https://kisumu-drawings.s3-us-west-1.amazonaws.com/tracings/S12_age4_trial1.png","4","",""
"","2147","image-button-response","17","null","124959","68895b4cc3548521ab78eeca","6889a3c82d61d99a5fe09253","66bf6ab25d76db9c95e01458","3","S24_age5_trial3.png","false","false","https://kisumu-drawings.s3-us-west-1.amazonaws.com/tracings/S24_age5_trial3.png","3","",""
"","4342","image-button-response","18","null","129824","68895b4cc3548521ab78eeca","6889a3c82d61d99a5fe09253","66bf6ab25d76db9c95e01458","5","S24_age5_trial5.png","false","false","https://kisumu-drawings.s3-us-west-1.amazonaws.com/tracings/S24_age5_trial5.png","3","",""
"","2520","image-button-response","19","null","132865","68895b4cc3548521ab78eeca","6889a3c82d61d99a5fe09253","66bf6ab25d76db9c95e01458","4","S104_age9_trial4.png","false","false","https://kisumu-drawings.s3-us-west-1.amazonaws.com/tracings/S104_age9_trial4.png","5","",""
"","2198","image-button-response","20","null","135584","68895b4cc3548521ab78eeca","6889a3c82d61d99a5fe09253","66bf6ab25d76db9c95e01458","1","S103_age9_trial1.png","false","false","https://kisumu-drawings.s3-us-west-1.amazonaws.com/tracings/S103_age9_trial1.png","5","",""
"","3482","image-button-response","21","null","139585","68895b4cc3548521ab78eeca","6889a3c82d61d99a5fe09253","66bf6ab25d76db9c95e01458","4","S12_age4_trial4.png","false","false","https://kisumu-drawings.s3-us-west-1.amazonaws.com/tracings/S12_age4_trial4.png","3","",""
"","2520","image-button-response","22","null","142622","68895b4cc3548521ab78eeca","6889a3c82d61d99a5fe09253","66bf6ab25d76db9c95e01458","2","S24_age5_trial2.png","false","false","https://kisumu-drawings.s3-us-west-1.amazonaws.com/tracings/S24_age5_trial2.png","3","",""
"","2193","image-button-response","23","null","145324","68895b4cc3548521ab78eeca","6889a3c82d61d99a5fe09253","66bf6ab25d76db9c95e01458","5","S83_age8_trial5.png","false","false","https://kisumu-drawings.s3-us-west-1.amazonaws.com/tracings/S83_age8_trial5.png","5","",""
"","3793","image-button-response","24","null","149625","68895b4cc3548521ab78eeca","6889a3c82d61d99a5fe09253","66bf6ab25d76db9c95e01458","4","S64_age7_trial4.png","false","false","https://kisumu-drawings.s3-us-west-1.amazonaws.com/tracings/S64_age7_trial4.png","4","",""
"","2483","image-button-response","25","null","152622","68895b4cc3548521ab78eeca","6889a3c82d61d99a5fe09253","66bf6ab25d76db9c95e01458","4","S103_age9_trial4.png","false","false","https://kisumu-drawings.s3-us-west-1.amazonaws.com/tracings/S103_age9_trial4.png","5","",""
"","2165","image-button-response","26","null","155313","68895b4cc3548521ab78eeca","6889a3c82d61d99a5fe09253","66bf6ab25d76db9c95e01458","3","S83_age8_trial3.png","false","false","https://kisumu-drawings.s3-us-west-1.amazonaws.com/tracings/S83_age8_trial3.png","5","",""
"","2974","image-button-response","27","null","158800","68895b4cc3548521ab78eeca","6889a3c82d61d99a5fe09253","66bf6ab25d76db9c95e01458","2","S43_age6_trial2.png","false","false","https://kisumu-drawings.s3-us-west-1.amazonaws.com/tracings/S43_age6_trial2.png","4","",""
"","2227","image-button-response","28","null","161545","68895b4cc3548521ab78eeca","6889a3c82d61d99a5fe09253","66bf6ab25d76db9c95e01458","2","S82_age8_trial2.png","false","false","https://kisumu-drawings.s3-us-west-1.amazonaws.com/tracings/S82_age8_trial2.png","4","",""
"","3734","image-button-response","29","null","165791","68895b4cc3548521ab78eeca","6889a3c82d61d99a5fe09253","66bf6ab25d76db9c95e01458","","","true","false","stimuli/catch_trials/catch_trial.png","0","","1"
"","3742","image-button-response","30","null","170038","68895b4cc3548521ab78eeca","6889a3c82d61d99a5fe09253","66bf6ab25d76db9c95e01458","5","S64_age7_trial5.png","false","false","https://kisumu-drawings.s3-us-west-1.amazonaws.com/tracings/S64_age7_trial5.png","4","",""
"","2385","image-button-response","31","null","172937","68895b4cc3548521ab78eeca","6889a3c82d61d99a5fe09253","66bf6ab25d76db9c95e01458","1","S43_age6_trial1.png","false","false","https://kisumu-drawings.s3-us-west-1.amazonaws.com/tracings/S43_age6_trial1.png","4","",""
"","2992","image-button-response","32","null","176444","68895b4cc3548521ab78eeca","6889a3c82d61d99a5fe09253","66bf6ab25d76db9c95e01458","4","S63_age7_trial4.png","false","false","https://kisumu-drawings.s3-us-west-1.amazonaws.com/tracings/S63_age7_trial4.png","4","",""
"","3895","image-button-response","33","null","180858","68895b4cc3548521ab78eeca","6889a3c82d61d99a5fe09253","66bf6ab25d76db9c95e01458","2","S104_age9_trial2.png","false","false","https://kisumu-drawings.s3-us-west-1.amazonaws.com/tracings/S104_age9_trial2.png","5","",""
"","2196","image-button-response","34","null","183555","68895b4cc3548521ab78eeca","6889a3c82d61d99a5fe09253","66bf6ab25d76db9c95e01458","3","S12_age4_trial3.png","false","false","https://kisumu-drawings.s3-us-west-1.amazonaws.com/tracings/S12_age4_trial3.png","5","",""
"","1925","image-button-response","35","null","186002","68895b4cc3548521ab78eeca","6889a3c82d61d99a5fe09253","66bf6ab25d76db9c95e01458","5","S12_age4_trial5.png","false","false","https://kisumu-drawings.s3-us-west-1.amazonaws.com/tracings/S12_age4_trial5.png","4","",""
"","3001","image-button-response","36","null","189523","68895b4cc3548521ab78eeca","6889a3c82d61d99a5fe09253","66bf6ab25d76db9c95e01458","5","S104_age9_trial5.png","false","false","https://kisumu-drawings.s3-us-west-1.amazonaws.com/tracings/S104_age9_trial5.png","5","",""
"","1997","image-button-response","37","null","192038","68895b4cc3548521ab78eeca","6889a3c82d61d99a5fe09253","66bf6ab25d76db9c95e01458","5","S82_age8_trial5.png","false","false","https://kisumu-drawings.s3-us-west-1.amazonaws.com/tracings/S82_age8_trial5.png","5","",""
"","2147","image-button-response","38","null","194704","68895b4cc3548521ab78eeca","6889a3c82d61d99a5fe09253","66bf6ab25d76db9c95e01458","3","S82_age8_trial3.png","false","false","https://kisumu-drawings.s3-us-west-1.amazonaws.com/tracings/S82_age8_trial3.png","4","",""
"","6620","image-button-response","39","null","201837","68895b4cc3548521ab78eeca","6889a3c82d61d99a5fe09253","66bf6ab25d76db9c95e01458","5","S23_age5_trial5.png","false","false","https://kisumu-drawings.s3-us-west-1.amazonaws.com/tracings/S23_age5_trial5.png","1","",""
"","3616","image-button-response","40","null","205980","68895b4cc3548521ab78eeca","6889a3c82d61d99a5fe09253","66bf6ab25d76db9c95e01458","5","S13_age4_trial5.png","false","false","https://kisumu-drawings.s3-us-west-1.amazonaws.com/tracings/S13_age4_trial5.png","3","",""
"","3353","image-button-response","41","null","209844","68895b4cc3548521ab78eeca","6889a3c82d61d99a5fe09253","66bf6ab25d76db9c95e01458","2","S44_age6_trial2.png","false","false","https://kisumu-drawings.s3-us-west-1.amazonaws.com/tracings/S44_age6_trial2.png","5","",""
"","1966","image-button-response","42","null","212327","68895b4cc3548521ab78eeca","6889a3c82d61d99a5fe09253","66bf6ab25d76db9c95e01458","2","S63_age7_trial2.png","false","false","https://kisumu-drawings.s3-us-west-1.amazonaws.com/tracings/S63_age7_trial2.png","4","",""
"","2388","image-button-response","43","null","215217","68895b4cc3548521ab78eeca","6889a3c82d61d99a5fe09253","66bf6ab25d76db9c95e01458","3","S44_age6_trial3.png","false","false","https://kisumu-drawings.s3-us-west-1.amazonaws.com/tracings/S44_age6_trial3.png","3","",""
"","2724","image-button-response","44","null","218456","68895b4cc3548521ab78eeca","6889a3c82d61d99a5fe09253","66bf6ab25d76db9c95e01458","4","S43_age6_trial4.png","false","false","https://kisumu-drawings.s3-us-west-1.amazonaws.com/tracings/S43_age6_trial4.png","4","",""
"","1989","image-button-response","45","null","220958","68895b4cc3548521ab78eeca","6889a3c82d61d99a5fe09253","66bf6ab25d76db9c95e01458","5","S103_age9_trial5.png","false","false","https://kisumu-drawings.s3-us-west-1.amazonaws.com/tracings/S103_age9_trial5.png","5","",""
"","1750","image-button-response","46","null","223216","68895b4cc3548521ab78eeca","6889a3c82d61d99a5fe09253","66bf6ab25d76db9c95e01458","1","S83_age8_trial1.png","false","false","https://kisumu-drawings.s3-us-west-1.amazonaws.com/tracings/S83_age8_trial1.png","5","",""
"","2247","image-button-response","47","null","225997","68895b4cc3548521ab78eeca","6889a3c82d61d99a5fe09253","66bf6ab25d76db9c95e01458","2","S23_age5_trial2.png","false","false","https://kisumu-drawings.s3-us-west-1.amazonaws.com/tracings/S23_age5_trial2.png","2","",""
"","3401","image-button-response","48","null","229917","68895b4cc3548521ab78eeca","6889a3c82d61d99a5fe09253","66bf6ab25d76db9c95e01458","1","S24_age5_trial1.png","false","false","https://kisumu-drawings.s3-us-west-1.amazonaws.com/tracings/S24_age5_trial1.png","2","",""
"","2211","image-button-response","49","null","232638","68895b4cc3548521ab78eeca","6889a3c82d61d99a5fe09253","66bf6ab25d76db9c95e01458","3","S64_age7_trial3.png","false","false","https://kisumu-drawings.s3-us-west-1.amazonaws.com/tracings/S64_age7_trial3.png","4","",""
"","3261","image-button-response","50","null","236403","68895b4cc3548521ab78eeca","6889a3c82d61d99a5fe09253","66bf6ab25d76db9c95e01458","2","S13_age4_trial2.png","false","false","https://kisumu-drawings.s3-us-west-1.amazonaws.com/tracings/S13_age4_trial2.png","3","",""
"","3009","image-button-response","51","null","239916","68895b4cc3548521ab78eeca","6889a3c82d61d99a5fe09253","66bf6ab25d76db9c95e01458","5","S44_age6_trial5.png","false","false","https://kisumu-drawings.s3-us-west-1.amazonaws.com/tracings/S44_age6_trial5.png","4","",""
"","2945","image-button-response","52","null","243377","68895b4cc3548521ab78eeca","6889a3c82d61d99a5fe09253","66bf6ab25d76db9c95e01458","3","S13_age4_trial3.png","false","false","https://kisumu-drawings.s3-us-west-1.amazonaws.com/tracings/S13_age4_trial3.png","3","",""
"","2384","image-button-response","53","null","246264","68895b4cc3548521ab78eeca","6889a3c82d61d99a5fe09253","66bf6ab25d76db9c95e01458","3","S103_age9_trial3.png","false","false","https://kisumu-drawings.s3-us-west-1.amazonaws.com/tracings/S103_age9_trial3.png","5","",""
"","3678","image-button-response","54","null","250444","68895b4cc3548521ab78eeca","6889a3c82d61d99a5fe09253","66bf6ab25d76db9c95e01458","1","S13_age4_trial1.png","false","false","https://kisumu-drawings.s3-us-west-1.amazonaws.com/tracings/S13_age4_trial1.png","3","",""
"","2359","image-button-response","55","null","253323","68895b4cc3548521ab78eeca","6889a3c82d61d99a5fe09253","66bf6ab25d76db9c95e01458","3","S23_age5_trial3.png","false","false","https://kisumu-drawings.s3-us-west-1.amazonaws.com/tracings/S23_age5_trial3.png","1","",""
"","2069","image-button-response","56","null","255898","68895b4cc3548521ab78eeca","6889a3c82d61d99a5fe09253","66bf6ab25d76db9c95e01458","4","S13_age4_trial4.png","false","false","https://kisumu-drawings.s3-us-west-1.amazonaws.com/tracings/S13_age4_trial4.png","2","",""
"","4515","image-button-response","57","null","260919","68895b4cc3548521ab78eeca","6889a3c82d61d99a5fe09253","66bf6ab25d76db9c95e01458","2","S64_age7_trial2.png","false","false","https://kisumu-drawings.s3-us-west-1.amazonaws.com/tracings/S64_age7_trial2.png","5","",""
"","2074","image-button-response","58","null","263513","68895b4cc3548521ab78eeca","6889a3c82d61d99a5fe09253","66bf6ab25d76db9c95e01458","1","S23_age5_trial1.png","false","false","https://kisumu-drawings.s3-us-west-1.amazonaws.com/tracings/S23_age5_trial1.png","4","",""
"","2845","image-button-response","59","null","266861","68895b4cc3548521ab78eeca","6889a3c82d61d99a5fe09253","66bf6ab25d76db9c95e01458","1","S64_age7_trial1.png","false","false","https://kisumu-drawings.s3-us-west-1.amazonaws.com/tracings/S64_age7_trial1.png","2","",""
"","2832","image-button-response","60","null","270203","68895b4cc3548521ab78eeca","6889a3c82d61d99a5fe09253","66bf6ab25d76db9c95e01458","5","S63_age7_trial5.png","false","false","https://kisumu-drawings.s3-us-west-1.amazonaws.com/tracings/S63_age7_trial5.png","4","",""
"","1986","image-button-response","61","null","272695","68895b4cc3548521ab78eeca","6889a3c82d61d99a5fe09253","66bf6ab25d76db9c95e01458","2","S83_age8_trial2.png","false","false","https://kisumu-drawings.s3-us-west-1.amazonaws.com/tracings/S83_age8_trial2.png","5","",""
