"view_history","rt","trial_type","trial_index","plugin_version","time_elapsed","study_id","session_id","participant_id","tracing_type","tracing_id","catch_trial","prep_trial","stimulus","response","sketcher_category","response_category"
"[{""page_index"":0,""viewing_time"":12632},{""page_index"":1,""viewing_time"":9480},{""page_index"":2,""viewing_time"":3836},{""page_index"":3,""viewing_time"":3703},{""page_index"":4,""viewing_time"":3418}]","33069","instructions","0","null","33077","68895b4cc3548521ab78eeca","688a23ecce3c5674fdcc3e0c","66e7853b4e311a12f93b5411","","","","","","","",""
"","4994","image-button-response","1","null","39084","68895b4cc3548521ab78eeca","688a23ecce3c5674fdcc3e0c","66e7853b4e311a12f93b5411","3","S66_age7_trial3.png","false","false","https://kisumu-drawings.s3-us-west-1.amazonaws.com/tracings/S66_age7_trial3.png","2","",""
"","4928","image-button-response","2","null","44516","68895b4cc3548521ab78eeca","688a23ecce3c5674fdcc3e0c","66e7853b4e311a12f93b5411","3","S84_age8_trial3.png","false","false","https://kisumu-drawings.s3-us-west-1.amazonaws.com/tracings/S84_age8_trial3.png","4","",""
"","2445","image-button-response","3","null","47467","68895b4cc3548521ab78eeca","688a23ecce3c5674fdcc3e0c","66e7853b4e311a12f93b5411","5","S107_age9_trial5.png","false","false","https://kisumu-drawings.s3-us-west-1.amazonaws.com/tracings/S107_age9_trial5.png","4","",""
"","1463","image-button-response","4","null","49436","68895b4cc3548521ab78eeca","688a23ecce3c5674fdcc3e0c","66e7853b4e311a12f93b5411","4","S85_age8_trial4.png","false","false","https://kisumu-drawings.s3-us-west-1.amazonaws.com/tracings/S85_age8_trial4.png","4","",""
"","2537","image-button-response","5","null","52478","68895b4cc3548521ab78eeca","688a23ecce3c5674fdcc3e0c","66e7853b4e311a12f93b5411","4","S46_age6_trial4.png","false","false","https://kisumu-drawings.s3-us-west-1.amazonaws.com/tracings/S46_age6_trial4.png","3","",""
"","2241","image-button-response","6","null","55224","68895b4cc3548521ab78eeca","688a23ecce3c5674fdcc3e0c","66e7853b4e311a12f93b5411","2","S48_age6_trial2.png","false","false","https://kisumu-drawings.s3-us-west-1.amazonaws.com/tracings/S48_age6_trial2.png","2","",""
"","1385","image-button-response","7","null","57115","68895b4cc3548521ab78eeca","688a23ecce3c5674fdcc3e0c","66e7853b4e311a12f93b5411","2","S27_age5_trial2.png","false","false","https://kisumu-drawings.s3-us-west-1.amazonaws.com/tracings/S27_age5_trial2.png","2","",""
"","2979","image-button-response","8","null","60600","68895b4cc3548521ab78eeca","688a23ecce3c5674fdcc3e0c","66e7853b4e311a12f93b5411","5","S17_age4_trial5.png","false","false","https://kisumu-drawings.s3-us-west-1.amazonaws.com/tracings/S17_age4_trial5.png","2","",""
"","3129","image-button-response","9","null","64235","68895b4cc3548521ab78eeca","688a23ecce3c5674fdcc3e0c","66e7853b4e311a12f93b5411","4","S47_age6_trial4.png","false","false","https://kisumu-drawings.s3-us-west-1.amazonaws.com/tracings/S47_age6_trial4.png","3","",""
"","5008","image-button-response","10","null","69751","68895b4cc3548521ab78eeca","688a23ecce3c5674fdcc3e0c","66e7853b4e311a12f93b5411","1","S86_age8_trial1.png","false","false","https://kisumu-drawings.s3-us-west-1.amazonaws.com/tracings/S86_age8_trial1.png","3","",""
"","4084","image-button-response","11","null","74340","68895b4cc3548521ab78eeca","688a23ecce3c5674fdcc3e0c","66e7853b4e311a12f93b5411","3","S48_age6_trial3.png","false","false","https://kisumu-drawings.s3-us-west-1.amazonaws.com/tracings/S48_age6_trial3.png","1","",""
"","7869","image-button-response","12","null","82715","68895b4cc3548521ab78eeca","688a23ecce3c5674fdcc3e0c","66e7853b4e311a12f93b5411","5","S28_age5_trial5.png","false","false","https://kisumu-drawings.s3-us-west-1.amazonaws.com/tracings/S28_age5_trial5.png","3","",""
"","3329","image-button-response","13","null","86549","68895b4cc3548521ab78eeca","688a23ecce3c5674fdcc3e0c","66e7853b4e311a12f93b5411","2","S68_age7_trial2.png","false","false","https://kisumu-drawings.s3-us-west-1.amazonaws.com/tracings/S68_age7_trial2.png","2","",""
"","2447","image-button-response","14","null","89502","68895b4cc3548521ab78eeca","688a23ecce3c5674fdcc3e0c","66e7853b4e311a12f93b5411","2","S17_age4_trial2.png","false","false","https://kisumu-drawings.s3-us-west-1.amazonaws.com/tracings/S17_age4_trial2.png","2","",""
"","2730","image-button-response","15","null","92743","68895b4cc3548521ab78eeca","688a23ecce3c5674fdcc3e0c","66e7853b4e311a12f93b5411","1","S108_age9_trial1.png","false","false","https://kisumu-drawings.s3-us-west-1.amazonaws.com/tracings/S108_age9_trial1.png","4","",""
"","3922","image-button-response","16","null","97170","68895b4cc3548521ab78eeca","688a23ecce3c5674fdcc3e0c","66e7853b4e311a12f93b5411","","","true","false","stimuli/catch_trials/catch_trial.png","0","","1"
"","2889","image-button-response","17","null","100563","68895b4cc3548521ab78eeca","688a23ecce3c5674fdcc3e0c","66e7853b4e311a12f93b5411","3","S16_age4_trial3.png","false","false","https://kisumu-drawings.s3-us-west-1.amazonaws.com/tracings/S16_age4_trial3.png","1","",""
"","2405","image-button-response","18","null","103474","68895b4cc3548521ab78eeca","688a23ecce3c5674fdcc3e0c","66e7853b4e311a12f93b5411","3","S85_age8_trial3.png","false","false","https://kisumu-drawings.s3-us-west-1.amazonaws.com/tracings/S85_age8_trial3.png","4","",""
"","2493","image-button-response","19","null","106477","68895b4cc3548521ab78eeca","688a23ecce3c5674fdcc3e0c","66e7853b4e311a12f93b5411","2","S47_age6_trial2.png","false","false","https://kisumu-drawings.s3-us-west-1.amazonaws.com/tracings/S47_age6_trial2.png","3","",""
"","3593","image-button-response","20","null","110578","68895b4cc3548521ab78eeca","688a23ecce3c5674fdcc3e0c","66e7853b4e311a12f93b5411","1","S47_age6_trial1.png","false","false","https://kisumu-drawings.s3-us-west-1.amazonaws.com/tracings/S47_age6_trial1.png","2","",""
"","2112","image-button-response","21","null","113195","68895b4cc3548521ab78eeca","688a23ecce3c5674fdcc3e0c","66e7853b4e311a12f93b5411","5","S16_age4_trial5.png","false","false","https://kisumu-drawings.s3-us-west-1.amazonaws.com/tracings/S16_age4_trial5.png","1","",""
"","4393","image-button-response","22","null","118093","68895b4cc3548521ab78eeca","688a23ecce3c5674fdcc3e0c","66e7853b4e311a12f93b5411","5","S67_age7_trial5.png","false","false","https://kisumu-drawings.s3-us-west-1.amazonaws.com/tracings/S67_age7_trial5.png","5","",""
"","2402","image-button-response","23","null","121001","68895b4cc3548521ab78eeca","688a23ecce3c5674fdcc3e0c","66e7853b4e311a12f93b5411","3","S108_age9_trial3.png","false","false","https://kisumu-drawings.s3-us-west-1.amazonaws.com/tracings/S108_age9_trial3.png","4","",""
"","1838","image-button-response","24","null","123344","68895b4cc3548521ab78eeca","688a23ecce3c5674fdcc3e0c","66e7853b4e311a12f93b5411","5","S68_age7_trial5.png","false","false","https://kisumu-drawings.s3-us-west-1.amazonaws.com/tracings/S68_age7_trial5.png","4","",""
"","3954","image-button-response","25","null","127804","68895b4cc3548521ab78eeca","688a23ecce3c5674fdcc3e0c","66e7853b4e311a12f93b5411","4","S16_age4_trial4.png","false","false","https://kisumu-drawings.s3-us-west-1.amazonaws.com/tracings/S16_age4_trial4.png","1","",""
"","3280","image-button-response","26","null","131589","68895b4cc3548521ab78eeca","688a23ecce3c5674fdcc3e0c","66e7853b4e311a12f93b5411","5","S27_age5_trial5.png","false","false","https://kisumu-drawings.s3-us-west-1.amazonaws.com/tracings/S27_age5_trial5.png","3","",""
"","3613","image-button-response","27","null","135707","68895b4cc3548521ab78eeca","688a23ecce3c5674fdcc3e0c","66e7853b4e311a12f93b5411","4","S67_age7_trial4.png","false","false","https://kisumu-drawings.s3-us-west-1.amazonaws.com/tracings/S67_age7_trial4.png","5","",""
"","5692","image-button-response","28","null","141905","68895b4cc3548521ab78eeca","688a23ecce3c5674fdcc3e0c","66e7853b4e311a12f93b5411","3","S47_age6_trial3.png","false","false","https://kisumu-drawings.s3-us-west-1.amazonaws.com/tracings/S47_age6_trial3.png","3","",""
"","4004","image-button-response","29","null","146415","68895b4cc3548521ab78eeca","688a23ecce3c5674fdcc3e0c","66e7853b4e311a12f93b5411","3","S27_age5_trial3.png","false","false","https://kisumu-drawings.s3-us-west-1.amazonaws.com/tracings/S27_age5_trial3.png","2","",""
"","4430","image-button-response","30","null","151350","68895b4cc3548521ab78eeca","688a23ecce3c5674fdcc3e0c","66e7853b4e311a12f93b5411","1","S107_age9_trial1.png","false","false","https://kisumu-drawings.s3-us-west-1.amazonaws.com/tracings/S107_age9_trial1.png","4","",""
"","3304","image-button-response","31","null","155161","68895b4cc3548521ab78eeca","688a23ecce3c5674fdcc3e0c","66e7853b4e311a12f93b5411","5","S106_age9_trial5.png","false","false","https://kisumu-drawings.s3-us-west-1.amazonaws.com/tracings/S106_age9_trial5.png","4","",""
"","5214","image-button-response","32","null","160881","68895b4cc3548521ab78eeca","688a23ecce3c5674fdcc3e0c","66e7853b4e311a12f93b5411","2","S86_age8_trial2.png","false","false","https://kisumu-drawings.s3-us-west-1.amazonaws.com/tracings/S86_age8_trial2.png","4","",""
"","3790","image-button-response","33","null","165176","68895b4cc3548521ab78eeca","688a23ecce3c5674fdcc3e0c","66e7853b4e311a12f93b5411","2","S107_age9_trial2.png","false","false","https://kisumu-drawings.s3-us-west-1.amazonaws.com/tracings/S107_age9_trial2.png","4","",""
"","4217","image-button-response","34","null","169900","68895b4cc3548521ab78eeca","688a23ecce3c5674fdcc3e0c","66e7853b4e311a12f93b5411","1","S16_age4_trial1.png","false","false","https://kisumu-drawings.s3-us-west-1.amazonaws.com/tracings/S16_age4_trial1.png","1","",""
"","3592","image-button-response","35","null","173998","68895b4cc3548521ab78eeca","688a23ecce3c5674fdcc3e0c","66e7853b4e311a12f93b5411","4","S28_age5_trial4.png","false","false","https://kisumu-drawings.s3-us-west-1.amazonaws.com/tracings/S28_age5_trial4.png","3","",""
"","4255","image-button-response","36","null","178759","68895b4cc3548521ab78eeca","688a23ecce3c5674fdcc3e0c","66e7853b4e311a12f93b5411","5","S48_age6_trial5.png","false","false","https://kisumu-drawings.s3-us-west-1.amazonaws.com/tracings/S48_age6_trial5.png","1","",""
"","3730","image-button-response","37","null","182994","68895b4cc3548521ab78eeca","688a23ecce3c5674fdcc3e0c","66e7853b4e311a12f93b5411","1","S68_age7_trial1.png","false","false","https://kisumu-drawings.s3-us-west-1.amazonaws.com/tracings/S68_age7_trial1.png","3","",""
"","4698","image-button-response","38","null","188197","68895b4cc3548521ab78eeca","688a23ecce3c5674fdcc3e0c","66e7853b4e311a12f93b5411","5","S47_age6_trial5.png","false","false","https://kisumu-drawings.s3-us-west-1.amazonaws.com/tracings/S47_age6_trial5.png","4","",""
"","2346","image-button-response","39","null","191048","68895b4cc3548521ab78eeca","688a23ecce3c5674fdcc3e0c","66e7853b4e311a12f93b5411","2","S28_age5_trial2.png","false","false","https://kisumu-drawings.s3-us-west-1.amazonaws.com/tracings/S28_age5_trial2.png","2","",""
"","5733","image-button-response","40","null","197285","68895b4cc3548521ab78eeca","688a23ecce3c5674fdcc3e0c","66e7853b4e311a12f93b5411","5","S86_age8_trial5.png","false","false","https://kisumu-drawings.s3-us-west-1.amazonaws.com/tracings/S86_age8_trial5.png","3","",""
"","2781","image-button-response","41","null","200571","68895b4cc3548521ab78eeca","688a23ecce3c5674fdcc3e0c","66e7853b4e311a12f93b5411","2","S67_age7_trial2.png","false","false","https://kisumu-drawings.s3-us-west-1.amazonaws.com/tracings/S67_age7_trial2.png","4","",""
"","3170","image-button-response","42","null","204248","68895b4cc3548521ab78eeca","688a23ecce3c5674fdcc3e0c","66e7853b4e311a12f93b5411","2","S18_age4_trial2.png","false","false","https://kisumu-drawings.s3-us-west-1.amazonaws.com/tracings/S18_age4_trial2.png","2","",""
"","2614","image-button-response","43","null","207367","68895b4cc3548521ab78eeca","688a23ecce3c5674fdcc3e0c","66e7853b4e311a12f93b5411","1","S48_age6_trial1.png","false","false","https://kisumu-drawings.s3-us-west-1.amazonaws.com/tracings/S48_age6_trial1.png","2","",""
"","3530","image-button-response","44","null","211401","68895b4cc3548521ab78eeca","688a23ecce3c5674fdcc3e0c","66e7853b4e311a12f93b5411","1","S25_age5_trial1.png","false","false","https://kisumu-drawings.s3-us-west-1.amazonaws.com/tracings/S25_age5_trial1.png","2","",""
"","2783","image-button-response","45","null","214690","68895b4cc3548521ab78eeca","688a23ecce3c5674fdcc3e0c","66e7853b4e311a12f93b5411","4","S107_age9_trial4.png","false","false","https://kisumu-drawings.s3-us-west-1.amazonaws.com/tracings/S107_age9_trial4.png","4","",""
"","3576","image-button-response","46","null","218772","68895b4cc3548521ab78eeca","688a23ecce3c5674fdcc3e0c","66e7853b4e311a12f93b5411","1","S85_age8_trial1.png","false","false","https://kisumu-drawings.s3-us-west-1.amazonaws.com/tracings/S85_age8_trial1.png","4","",""
"","2544","image-button-response","47","null","221823","68895b4cc3548521ab78eeca","688a23ecce3c5674fdcc3e0c","66e7853b4e311a12f93b5411","4","S27_age5_trial4.png","false","false","https://kisumu-drawings.s3-us-west-1.amazonaws.com/tracings/S27_age5_trial4.png","2","",""
"","4890","image-button-response","48","null","227218","68895b4cc3548521ab78eeca","688a23ecce3c5674fdcc3e0c","66e7853b4e311a12f93b5411","5","S87_age8_trial5.png","false","false","https://kisumu-drawings.s3-us-west-1.amazonaws.com/tracings/S87_age8_trial5.png","2","",""
"","2547","image-button-response","49","null","230270","68895b4cc3548521ab78eeca","688a23ecce3c5674fdcc3e0c","66e7853b4e311a12f93b5411","1","S67_age7_trial1.png","false","false","https://kisumu-drawings.s3-us-west-1.amazonaws.com/tracings/S67_age7_trial1.png","3","",""
"","3520","image-button-response","50","null","234296","68895b4cc3548521ab78eeca","688a23ecce3c5674fdcc3e0c","66e7853b4e311a12f93b5411","3","S26_age5_trial3.png","false","false","https://kisumu-drawings.s3-us-west-1.amazonaws.com/tracings/S26_age5_trial3.png","2","",""
"","2361","image-button-response","51","null","237163","68895b4cc3548521ab78eeca","688a23ecce3c5674fdcc3e0c","66e7853b4e311a12f93b5411","4","S14_age4_trial4.png","false","false","https://kisumu-drawings.s3-us-west-1.amazonaws.com/tracings/S14_age4_trial4.png","1","",""
"","2987","image-button-response","52","null","240654","68895b4cc3548521ab78eeca","688a23ecce3c5674fdcc3e0c","66e7853b4e311a12f93b5411","2","S87_age8_trial2.png","false","false","https://kisumu-drawings.s3-us-west-1.amazonaws.com/tracings/S87_age8_trial2.png","2","",""
"","3778","image-button-response","53","null","244936","68895b4cc3548521ab78eeca","688a23ecce3c5674fdcc3e0c","66e7853b4e311a12f93b5411","3","S67_age7_trial3.png","false","false","https://kisumu-drawings.s3-us-west-1.amazonaws.com/tracings/S67_age7_trial3.png","4","",""
"","1846","image-button-response","54","null","247288","68895b4cc3548521ab78eeca","688a23ecce3c5674fdcc3e0c","66e7853b4e311a12f93b5411","1","S15_age4_trial1.png","false","false","https://kisumu-drawings.s3-us-west-1.amazonaws.com/tracings/S15_age4_trial1.png","2","",""
"","2688","image-button-response","55","null","250481","68895b4cc3548521ab78eeca","688a23ecce3c5674fdcc3e0c","66e7853b4e311a12f93b5411","2","S106_age9_trial2.png","false","false","https://kisumu-drawings.s3-us-west-1.amazonaws.com/tracings/S106_age9_trial2.png","4","",""
"","2969","image-button-response","56","null","253958","68895b4cc3548521ab78eeca","688a23ecce3c5674fdcc3e0c","66e7853b4e311a12f93b5411","3","S15_age4_trial3.png","false","false","https://kisumu-drawings.s3-us-west-1.amazonaws.com/tracings/S15_age4_trial3.png","1","",""
"","2764","image-button-response","57","null","257227","68895b4cc3548521ab78eeca","688a23ecce3c5674fdcc3e0c","66e7853b4e311a12f93b5411","3","S107_age9_trial3.png","false","false","https://kisumu-drawings.s3-us-west-1.amazonaws.com/tracings/S107_age9_trial3.png","3","",""
"","2204","image-button-response","58","null","259936","68895b4cc3548521ab78eeca","688a23ecce3c5674fdcc3e0c","66e7853b4e311a12f93b5411","1","S27_age5_trial1.png","false","false","https://kisumu-drawings.s3-us-west-1.amazonaws.com/tracings/S27_age5_trial1.png","2","",""
"","3837","image-button-response","59","null","264282","68895b4cc3548521ab78eeca","688a23ecce3c5674fdcc3e0c","66e7853b4e311a12f93b5411","4","S86_age8_trial4.png","false","false","https://kisumu-drawings.s3-us-west-1.amazonaws.com/tracings/S86_age8_trial4.png","4","",""
"","3580","image-button-response","60","null","268366","68895b4cc3548521ab78eeca","688a23ecce3c5674fdcc3e0c","66e7853b4e311a12f93b5411","4","S108_age9_trial4.png","false","false","https://kisumu-drawings.s3-us-west-1.amazonaws.com/tracings/S108_age9_trial4.png","3","",""
"","5238","image-button-response","61","null","274110","68895b4cc3548521ab78eeca","688a23ecce3c5674fdcc3e0c","66e7853b4e311a12f93b5411","4","S68_age7_trial4.png","false","false","https://kisumu-drawings.s3-us-west-1.amazonaws.com/tracings/S68_age7_trial4.png","3","",""
