"view_history","rt","trial_type","trial_index","plugin_version","time_elapsed","study_id","session_id","participant_id","tracing_type","tracing_id","catch_trial","prep_trial","stimulus","response","sketcher_category","response_category"
"[{""page_index"":0,""viewing_time"":681069},{""page_index"":1,""viewing_time"":5999},{""page_index"":2,""viewing_time"":65130},{""page_index"":3,""viewing_time"":61784},{""page_index"":4,""viewing_time"":15743}]","829727","instructions","0","null","829778","68895b4cc3548521ab78eeca","688a82175ea1ac2e8ccf3203","670d8b142f87173ffe3b4763","","","","","","","",""
"","30536","image-button-response","1","null","861335","68895b4cc3548521ab78eeca","688a82175ea1ac2e8ccf3203","670d8b142f87173ffe3b4763","3","S32_age5_trial3.png","false","false","https://kisumu-drawings.s3-us-west-1.amazonaws.com/tracings/S32_age5_trial3.png","1","",""
"","23319","image-button-response","2","null","885166","68895b4cc3548521ab78eeca","688a82175ea1ac2e8ccf3203","670d8b142f87173ffe3b4763","1","S72_age7_trial1.png","false","false","https://kisumu-drawings.s3-us-west-1.amazonaws.com/tracings/S72_age7_trial1.png","2","",""
"","2061","image-button-response","3","null","887743","68895b4cc3548521ab78eeca","688a82175ea1ac2e8ccf3203","670d8b142f87173ffe3b4763","2","S91_age8_trial2.png","false","false","https://kisumu-drawings.s3-us-west-1.amazonaws.com/tracings/S91_age8_trial2.png","3","",""
"","1092","image-button-response","4","null","889355","68895b4cc3548521ab78eeca","688a82175ea1ac2e8ccf3203","670d8b142f87173ffe3b4763","5","S91_age8_trial5.png","false","false","https://kisumu-drawings.s3-us-west-1.amazonaws.com/tracings/S91_age8_trial5.png","2","",""
"","1508","image-button-response","5","null","891383","68895b4cc3548521ab78eeca","688a82175ea1ac2e8ccf3203","670d8b142f87173ffe3b4763","2","S32_age5_trial2.png","false","false","https://kisumu-drawings.s3-us-west-1.amazonaws.com/tracings/S32_age5_trial2.png","1","",""
"","947","image-button-response","6","null","892842","68895b4cc3548521ab78eeca","688a82175ea1ac2e8ccf3203","670d8b142f87173ffe3b4763","3","S1_age4_trial3.png","false","false","https://kisumu-drawings.s3-us-west-1.amazonaws.com/tracings/S1_age4_trial3.png","2","",""
"","1616","image-button-response","7","null","894968","68895b4cc3548521ab78eeca","688a82175ea1ac2e8ccf3203","670d8b142f87173ffe3b4763","3","S89_age8_trial3.png","false","false","https://kisumu-drawings.s3-us-west-1.amazonaws.com/tracings/S89_age8_trial3.png","4","",""
"","1335","image-button-response","8","null","896814","68895b4cc3548521ab78eeca","688a82175ea1ac2e8ccf3203","670d8b142f87173ffe3b4763","1","S90_age8_trial1.png","false","false","https://kisumu-drawings.s3-us-west-1.amazonaws.com/tracings/S90_age8_trial1.png","2","",""
"","1111","image-button-response","9","null","898440","68895b4cc3548521ab78eeca","688a82175ea1ac2e8ccf3203","670d8b142f87173ffe3b4763","1","S1_age4_trial1.png","false","false","https://kisumu-drawings.s3-us-west-1.amazonaws.com/tracings/S1_age4_trial1.png","4","",""
"","940","image-button-response","10","null","899905","68895b4cc3548521ab78eeca","688a82175ea1ac2e8ccf3203","670d8b142f87173ffe3b4763","3","S111_age9_trial3.png","false","false","https://kisumu-drawings.s3-us-west-1.amazonaws.com/tracings/S111_age9_trial3.png","4","",""
"","48493","image-button-response","11","null","948907","68895b4cc3548521ab78eeca","688a82175ea1ac2e8ccf3203","670d8b142f87173ffe3b4763","1","S89_age8_trial1.png","false","false","https://kisumu-drawings.s3-us-west-1.amazonaws.com/tracings/S89_age8_trial1.png","2","",""
"","4753","image-button-response","12","null","954172","68895b4cc3548521ab78eeca","688a82175ea1ac2e8ccf3203","670d8b142f87173ffe3b4763","1","S71_age7_trial1.png","false","false","https://kisumu-drawings.s3-us-west-1.amazonaws.com/tracings/S71_age7_trial1.png","2","",""
"","553","image-button-response","13","null","955238","68895b4cc3548521ab78eeca","688a82175ea1ac2e8ccf3203","670d8b142f87173ffe3b4763","4","S30_age5_trial4.png","false","false","https://kisumu-drawings.s3-us-west-1.amazonaws.com/tracings/S30_age5_trial4.png","2","",""
"","561","image-button-response","14","null","956315","68895b4cc3548521ab78eeca","688a82175ea1ac2e8ccf3203","670d8b142f87173ffe3b4763","5","S110_age9_trial5.png","false","false","https://kisumu-drawings.s3-us-west-1.amazonaws.com/tracings/S110_age9_trial5.png","1","",""
"","566","image-button-response","15","null","957393","68895b4cc3548521ab78eeca","688a82175ea1ac2e8ccf3203","670d8b142f87173ffe3b4763","2","S111_age9_trial2.png","false","false","https://kisumu-drawings.s3-us-west-1.amazonaws.com/tracings/S111_age9_trial2.png","2","",""
"","464","image-button-response","16","null","958379","68895b4cc3548521ab78eeca","688a82175ea1ac2e8ccf3203","670d8b142f87173ffe3b4763","2","S31_age5_trial2.png","false","false","https://kisumu-drawings.s3-us-west-1.amazonaws.com/tracings/S31_age5_trial2.png","2","",""
"","1690","image-button-response","17","null","960584","68895b4cc3548521ab78eeca","688a82175ea1ac2e8ccf3203","670d8b142f87173ffe3b4763","1","S111_age9_trial1.png","false","false","https://kisumu-drawings.s3-us-west-1.amazonaws.com/tracings/S111_age9_trial1.png","2","",""
"","1541","image-button-response","18","null","962640","68895b4cc3548521ab78eeca","688a82175ea1ac2e8ccf3203","670d8b142f87173ffe3b4763","5","S90_age8_trial5.png","false","false","https://kisumu-drawings.s3-us-west-1.amazonaws.com/tracings/S90_age8_trial5.png","4","",""
"","73885","image-button-response","19","null","1037040","68895b4cc3548521ab78eeca","688a82175ea1ac2e8ccf3203","670d8b142f87173ffe3b4763","5","S111_age9_trial5.png","false","false","https://kisumu-drawings.s3-us-west-1.amazonaws.com/tracings/S111_age9_trial5.png","2","",""
"","1227","image-button-response","20","null","1038779","68895b4cc3548521ab78eeca","688a82175ea1ac2e8ccf3203","670d8b142f87173ffe3b4763","5","S72_age7_trial5.png","false","false","https://kisumu-drawings.s3-us-west-1.amazonaws.com/tracings/S72_age7_trial5.png","1","",""
"","668","image-button-response","21","null","1039966","68895b4cc3548521ab78eeca","688a82175ea1ac2e8ccf3203","670d8b142f87173ffe3b4763","1","S50_age6_trial1.png","false","false","https://kisumu-drawings.s3-us-west-1.amazonaws.com/tracings/S50_age6_trial1.png","4","",""
"","934","image-button-response","22","null","1041415","68895b4cc3548521ab78eeca","688a82175ea1ac2e8ccf3203","670d8b142f87173ffe3b4763","2","S52_age6_trial2.png","false","false","https://kisumu-drawings.s3-us-west-1.amazonaws.com/tracings/S52_age6_trial2.png","2","",""
"","567","image-button-response","23","null","1042497","68895b4cc3548521ab78eeca","688a82175ea1ac2e8ccf3203","670d8b142f87173ffe3b4763","5","S20_age4_trial5.png","false","false","https://kisumu-drawings.s3-us-west-1.amazonaws.com/tracings/S20_age4_trial5.png","4","",""
"","674","image-button-response","24","null","1043681","68895b4cc3548521ab78eeca","688a82175ea1ac2e8ccf3203","670d8b142f87173ffe3b4763","2","S51_age6_trial2.png","false","false","https://kisumu-drawings.s3-us-west-1.amazonaws.com/tracings/S51_age6_trial2.png","4","",""
"","567","image-button-response","25","null","1044773","68895b4cc3548521ab78eeca","688a82175ea1ac2e8ccf3203","670d8b142f87173ffe3b4763","4","S112_age9_trial4.png","false","false","https://kisumu-drawings.s3-us-west-1.amazonaws.com/tracings/S112_age9_trial4.png","4","",""
"","33998","image-button-response","26","null","1079281","68895b4cc3548521ab78eeca","688a82175ea1ac2e8ccf3203","670d8b142f87173ffe3b4763","5","S1_age4_trial5.png","false","false","https://kisumu-drawings.s3-us-west-1.amazonaws.com/tracings/S1_age4_trial5.png","2","",""
"","18602","image-button-response","27","null","1098396","68895b4cc3548521ab78eeca","688a82175ea1ac2e8ccf3203","670d8b142f87173ffe3b4763","4","S52_age6_trial4.png","false","false","https://kisumu-drawings.s3-us-west-1.amazonaws.com/tracings/S52_age6_trial4.png","4","",""
"","14885","image-button-response","28","null","1113789","68895b4cc3548521ab78eeca","688a82175ea1ac2e8ccf3203","670d8b142f87173ffe3b4763","3","S70_age7_trial3.png","false","false","https://kisumu-drawings.s3-us-west-1.amazonaws.com/tracings/S70_age7_trial3.png","4","",""
"","20696","image-button-response","29","null","1135005","68895b4cc3548521ab78eeca","688a82175ea1ac2e8ccf3203","670d8b142f87173ffe3b4763","3","S19_age4_trial3.png","false","false","https://kisumu-drawings.s3-us-west-1.amazonaws.com/tracings/S19_age4_trial3.png","2","",""
"","9601","image-button-response","30","null","1145119","68895b4cc3548521ab78eeca","688a82175ea1ac2e8ccf3203","670d8b142f87173ffe3b4763","4","S71_age7_trial4.png","false","false","https://kisumu-drawings.s3-us-west-1.amazonaws.com/tracings/S71_age7_trial4.png","4","",""
"","13225","image-button-response","31","null","1158854","68895b4cc3548521ab78eeca","688a82175ea1ac2e8ccf3203","670d8b142f87173ffe3b4763","4","S90_age8_trial4.png","false","false","https://kisumu-drawings.s3-us-west-1.amazonaws.com/tracings/S90_age8_trial4.png","4","",""
"","25524","image-button-response","32","null","1184899","68895b4cc3548521ab78eeca","688a82175ea1ac2e8ccf3203","670d8b142f87173ffe3b4763","3","S90_age8_trial3.png","false","false","https://kisumu-drawings.s3-us-west-1.amazonaws.com/tracings/S90_age8_trial3.png","5","",""
"","8947","image-button-response","33","null","1194363","68895b4cc3548521ab78eeca","688a82175ea1ac2e8ccf3203","670d8b142f87173ffe3b4763","5","S32_age5_trial5.png","false","false","https://kisumu-drawings.s3-us-west-1.amazonaws.com/tracings/S32_age5_trial5.png","2","",""
"","176374","image-button-response","34","null","1371255","68895b4cc3548521ab78eeca","688a82175ea1ac2e8ccf3203","670d8b142f87173ffe3b4763","4","S72_age7_trial4.png","false","false","https://kisumu-drawings.s3-us-west-1.amazonaws.com/tracings/S72_age7_trial4.png","2","",""
"","179796","image-button-response","35","null","1551575","68895b4cc3548521ab78eeca","688a82175ea1ac2e8ccf3203","670d8b142f87173ffe3b4763","3","S112_age9_trial3.png","false","false","https://kisumu-drawings.s3-us-west-1.amazonaws.com/tracings/S112_age9_trial3.png","2","",""
"","1351","image-button-response","36","null","1553450","68895b4cc3548521ab78eeca","688a82175ea1ac2e8ccf3203","670d8b142f87173ffe3b4763","2","S71_age7_trial2.png","false","false","https://kisumu-drawings.s3-us-west-1.amazonaws.com/tracings/S71_age7_trial2.png","4","",""
"","1463","image-button-response","37","null","1555430","68895b4cc3548521ab78eeca","688a82175ea1ac2e8ccf3203","670d8b142f87173ffe3b4763","1","S112_age9_trial1.png","false","false","https://kisumu-drawings.s3-us-west-1.amazonaws.com/tracings/S112_age9_trial1.png","4","",""
"","835","image-button-response","38","null","1556778","68895b4cc3548521ab78eeca","688a82175ea1ac2e8ccf3203","670d8b142f87173ffe3b4763","3","S52_age6_trial3.png","false","false","https://kisumu-drawings.s3-us-west-1.amazonaws.com/tracings/S52_age6_trial3.png","4","",""
"","685","image-button-response","39","null","1557979","68895b4cc3548521ab78eeca","688a82175ea1ac2e8ccf3203","670d8b142f87173ffe3b4763","4","S29_age5_trial4.png","false","false","https://kisumu-drawings.s3-us-west-1.amazonaws.com/tracings/S29_age5_trial4.png","2","",""
"","333","image-button-response","40","null","1558823","68895b4cc3548521ab78eeca","688a82175ea1ac2e8ccf3203","670d8b142f87173ffe3b4763","5","S31_age5_trial5.png","false","false","https://kisumu-drawings.s3-us-west-1.amazonaws.com/tracings/S31_age5_trial5.png","2","",""
"","868","image-button-response","41","null","1560199","68895b4cc3548521ab78eeca","688a82175ea1ac2e8ccf3203","670d8b142f87173ffe3b4763","4","S18_age4_trial4.png","false","false","https://kisumu-drawings.s3-us-west-1.amazonaws.com/tracings/S18_age4_trial4.png","1","",""
"","1194","image-button-response","42","null","1561906","68895b4cc3548521ab78eeca","688a82175ea1ac2e8ccf3203","670d8b142f87173ffe3b4763","5","S52_age6_trial5.png","false","false","https://kisumu-drawings.s3-us-west-1.amazonaws.com/tracings/S52_age6_trial5.png","4","",""
"","881","image-button-response","43","null","1563294","68895b4cc3548521ab78eeca","688a82175ea1ac2e8ccf3203","670d8b142f87173ffe3b4763","1","S51_age6_trial1.png","false","false","https://kisumu-drawings.s3-us-west-1.amazonaws.com/tracings/S51_age6_trial1.png","2","",""
"","726","image-button-response","44","null","1564530","68895b4cc3548521ab78eeca","688a82175ea1ac2e8ccf3203","670d8b142f87173ffe3b4763","2","S90_age8_trial2.png","false","false","https://kisumu-drawings.s3-us-west-1.amazonaws.com/tracings/S90_age8_trial2.png","4","",""
"","609","image-button-response","45","null","1565651","68895b4cc3548521ab78eeca","688a82175ea1ac2e8ccf3203","670d8b142f87173ffe3b4763","3","S71_age7_trial3.png","false","false","https://kisumu-drawings.s3-us-west-1.amazonaws.com/tracings/S71_age7_trial3.png","2","",""
"","21825","image-button-response","46","null","1587992","68895b4cc3548521ab78eeca","688a82175ea1ac2e8ccf3203","670d8b142f87173ffe3b4763","1","S19_age4_trial1.png","false","false","https://kisumu-drawings.s3-us-west-1.amazonaws.com/tracings/S19_age4_trial1.png","2","",""
"","1823","image-button-response","47","null","1590329","68895b4cc3548521ab78eeca","688a82175ea1ac2e8ccf3203","670d8b142f87173ffe3b4763","2","S1_age4_trial2.png","false","false","https://kisumu-drawings.s3-us-west-1.amazonaws.com/tracings/S1_age4_trial2.png","2","",""
"","1584","image-button-response","48","null","1592426","68895b4cc3548521ab78eeca","688a82175ea1ac2e8ccf3203","670d8b142f87173ffe3b4763","4","S1_age4_trial4.png","false","false","https://kisumu-drawings.s3-us-west-1.amazonaws.com/tracings/S1_age4_trial4.png","4","",""
"","505","image-button-response","49","null","1593446","68895b4cc3548521ab78eeca","688a82175ea1ac2e8ccf3203","670d8b142f87173ffe3b4763","3","S31_age5_trial3.png","false","false","https://kisumu-drawings.s3-us-west-1.amazonaws.com/tracings/S31_age5_trial3.png","4","",""
"","1860","image-button-response","50","null","1595815","68895b4cc3548521ab78eeca","688a82175ea1ac2e8ccf3203","670d8b142f87173ffe3b4763","3","S51_age6_trial3.png","false","false","https://kisumu-drawings.s3-us-west-1.amazonaws.com/tracings/S51_age6_trial3.png","2","",""
"","1864","image-button-response","51","null","1598193","68895b4cc3548521ab78eeca","688a82175ea1ac2e8ccf3203","670d8b142f87173ffe3b4763","1","S30_age5_trial1.png","false","false","https://kisumu-drawings.s3-us-west-1.amazonaws.com/tracings/S30_age5_trial1.png","4","",""
"","1942","image-button-response","52","null","1600649","68895b4cc3548521ab78eeca","688a82175ea1ac2e8ccf3203","670d8b142f87173ffe3b4763","4","S91_age8_trial4.png","false","false","https://kisumu-drawings.s3-us-west-1.amazonaws.com/tracings/S91_age8_trial4.png","2","",""
"","1041","image-button-response","53","null","1602208","68895b4cc3548521ab78eeca","688a82175ea1ac2e8ccf3203","670d8b142f87173ffe3b4763","2","S72_age7_trial2.png","false","false","https://kisumu-drawings.s3-us-west-1.amazonaws.com/tracings/S72_age7_trial2.png","2","",""
"","1423","image-button-response","54","null","1604143","68895b4cc3548521ab78eeca","688a82175ea1ac2e8ccf3203","670d8b142f87173ffe3b4763","2","S110_age9_trial2.png","false","false","https://kisumu-drawings.s3-us-west-1.amazonaws.com/tracings/S110_age9_trial2.png","4","",""
"","648","image-button-response","55","null","1605308","68895b4cc3548521ab78eeca","688a82175ea1ac2e8ccf3203","670d8b142f87173ffe3b4763","1","S31_age5_trial1.png","false","false","https://kisumu-drawings.s3-us-west-1.amazonaws.com/tracings/S31_age5_trial1.png","4","",""
"","2819","image-button-response","56","null","1608641","68895b4cc3548521ab78eeca","688a82175ea1ac2e8ccf3203","670d8b142f87173ffe3b4763","5","S51_age6_trial5.png","false","false","https://kisumu-drawings.s3-us-west-1.amazonaws.com/tracings/S51_age6_trial5.png","1","",""
"","1049","image-button-response","57","null","1610208","68895b4cc3548521ab78eeca","688a82175ea1ac2e8ccf3203","670d8b142f87173ffe3b4763","4","S51_age6_trial4.png","false","false","https://kisumu-drawings.s3-us-west-1.amazonaws.com/tracings/S51_age6_trial4.png","2","",""
"","957","image-button-response","58","null","1611676","68895b4cc3548521ab78eeca","688a82175ea1ac2e8ccf3203","670d8b142f87173ffe3b4763","2","S20_age4_trial2.png","false","false","https://kisumu-drawings.s3-us-west-1.amazonaws.com/tracings/S20_age4_trial2.png","2","",""
"","1310","image-button-response","59","null","1613497","68895b4cc3548521ab78eeca","688a82175ea1ac2e8ccf3203","670d8b142f87173ffe3b4763","","","true","false","stimuli/catch_trials/catch_trial.png","3","","4"
"","145981","image-button-response","60","null","1759988","68895b4cc3548521ab78eeca","688a82175ea1ac2e8ccf3203","670d8b142f87173ffe3b4763","5","S71_age7_trial5.png","false","false","https://kisumu-drawings.s3-us-west-1.amazonaws.com/tracings/S71_age7_trial5.png","4","",""
"","1279","image-button-response","61","null","1761790","68895b4cc3548521ab78eeca","688a82175ea1ac2e8ccf3203","670d8b142f87173ffe3b4763","4","S111_age9_trial4.png","false","false","https://kisumu-drawings.s3-us-west-1.amazonaws.com/tracings/S111_age9_trial4.png","2","",""
