"view_history","rt","trial_type","trial_index","plugin_version","time_elapsed","study_id","session_id","participant_id","tracing_type","tracing_id","catch_trial","prep_trial","stimulus","response","sketcher_category","response_category"
"[{""page_index"":0,""viewing_time"":11086},{""page_index"":1,""viewing_time"":7620},{""page_index"":2,""viewing_time"":5706},{""page_index"":3,""viewing_time"":3072},{""page_index"":4,""viewing_time"":4410}]","31894","instructions","0","null","31900","68895b4cc3548521ab78eeca","6889e0620552a354a121a8fc","67178054a368314e6afa5ed4","","","","","","","",""
"","6231","image-button-response","1","null","39136","68895b4cc3548521ab78eeca","6889e0620552a354a121a8fc","67178054a368314e6afa5ed4","3","S44_age6_trial3.png","false","false","https://kisumu-drawings.s3-us-west-1.amazonaws.com/tracings/S44_age6_trial3.png","4","",""
"","3431","image-button-response","2","null","43068","68895b4cc3548521ab78eeca","6889e0620552a354a121a8fc","67178054a368314e6afa5ed4","5","S26_age5_trial5.png","false","false","https://kisumu-drawings.s3-us-west-1.amazonaws.com/tracings/S26_age5_trial5.png","4","",""
"","1482","image-button-response","3","null","45062","68895b4cc3548521ab78eeca","6889e0620552a354a121a8fc","67178054a368314e6afa5ed4","4","S66_age7_trial4.png","false","false","https://kisumu-drawings.s3-us-west-1.amazonaws.com/tracings/S66_age7_trial4.png","4","",""
"","1948","image-button-response","4","null","47512","68895b4cc3548521ab78eeca","6889e0620552a354a121a8fc","67178054a368314e6afa5ed4","3","S84_age8_trial3.png","false","false","https://kisumu-drawings.s3-us-west-1.amazonaws.com/tracings/S84_age8_trial3.png","5","",""
"","1661","image-button-response","5","null","49674","68895b4cc3548521ab78eeca","6889e0620552a354a121a8fc","67178054a368314e6afa5ed4","2","S15_age4_trial2.png","false","false","https://kisumu-drawings.s3-us-west-1.amazonaws.com/tracings/S15_age4_trial2.png","3","",""
"","1839","image-button-response","6","null","52016","68895b4cc3548521ab78eeca","6889e0620552a354a121a8fc","67178054a368314e6afa5ed4","4","S14_age4_trial4.png","false","false","https://kisumu-drawings.s3-us-west-1.amazonaws.com/tracings/S14_age4_trial4.png","2","",""
"","2758","image-button-response","7","null","55282","68895b4cc3548521ab78eeca","6889e0620552a354a121a8fc","67178054a368314e6afa5ed4","3","S13_age4_trial3.png","false","false","https://kisumu-drawings.s3-us-west-1.amazonaws.com/tracings/S13_age4_trial3.png","3","",""
"","3059","image-button-response","8","null","58850","68895b4cc3548521ab78eeca","6889e0620552a354a121a8fc","67178054a368314e6afa5ed4","5","S15_age4_trial5.png","false","false","https://kisumu-drawings.s3-us-west-1.amazonaws.com/tracings/S15_age4_trial5.png","1","",""
"","6372","image-button-response","9","null","65726","68895b4cc3548521ab78eeca","6889e0620552a354a121a8fc","67178054a368314e6afa5ed4","1","S13_age4_trial1.png","false","false","https://kisumu-drawings.s3-us-west-1.amazonaws.com/tracings/S13_age4_trial1.png","3","",""
"","5119","image-button-response","10","null","71348","68895b4cc3548521ab78eeca","6889e0620552a354a121a8fc","67178054a368314e6afa5ed4","4","S65_age7_trial4.png","false","false","https://kisumu-drawings.s3-us-west-1.amazonaws.com/tracings/S65_age7_trial4.png","5","",""
"","1485","image-button-response","11","null","73337","68895b4cc3548521ab78eeca","6889e0620552a354a121a8fc","67178054a368314e6afa5ed4","3","S66_age7_trial3.png","false","false","https://kisumu-drawings.s3-us-west-1.amazonaws.com/tracings/S66_age7_trial3.png","4","",""
"","1608","image-button-response","12","null","75453","68895b4cc3548521ab78eeca","6889e0620552a354a121a8fc","67178054a368314e6afa5ed4","1","S26_age5_trial1.png","false","false","https://kisumu-drawings.s3-us-west-1.amazonaws.com/tracings/S26_age5_trial1.png","3","",""
"","2273","image-button-response","13","null","78226","68895b4cc3548521ab78eeca","6889e0620552a354a121a8fc","67178054a368314e6afa5ed4","1","S85_age8_trial1.png","false","false","https://kisumu-drawings.s3-us-west-1.amazonaws.com/tracings/S85_age8_trial1.png","5","",""
"","2367","image-button-response","14","null","81103","68895b4cc3548521ab78eeca","6889e0620552a354a121a8fc","67178054a368314e6afa5ed4","5","S84_age8_trial5.png","false","false","https://kisumu-drawings.s3-us-west-1.amazonaws.com/tracings/S84_age8_trial5.png","5","",""
"","2153","image-button-response","15","null","83756","68895b4cc3548521ab78eeca","6889e0620552a354a121a8fc","67178054a368314e6afa5ed4","5","S14_age4_trial5.png","false","false","https://kisumu-drawings.s3-us-west-1.amazonaws.com/tracings/S14_age4_trial5.png","1","",""
"","2717","image-button-response","16","null","86980","68895b4cc3548521ab78eeca","6889e0620552a354a121a8fc","67178054a368314e6afa5ed4","1","S84_age8_trial1.png","false","false","https://kisumu-drawings.s3-us-west-1.amazonaws.com/tracings/S84_age8_trial1.png","5","",""
"","3502","image-button-response","17","null","90984","68895b4cc3548521ab78eeca","6889e0620552a354a121a8fc","67178054a368314e6afa5ed4","1","S46_age6_trial1.png","false","false","https://kisumu-drawings.s3-us-west-1.amazonaws.com/tracings/S46_age6_trial1.png","5","",""
"","4380","image-button-response","18","null","95866","68895b4cc3548521ab78eeca","6889e0620552a354a121a8fc","67178054a368314e6afa5ed4","2","S45_age6_trial2.png","false","false","https://kisumu-drawings.s3-us-west-1.amazonaws.com/tracings/S45_age6_trial2.png","3","",""
"","4761","image-button-response","19","null","101129","68895b4cc3548521ab78eeca","6889e0620552a354a121a8fc","67178054a368314e6afa5ed4","5","S104_age9_trial5.png","false","false","https://kisumu-drawings.s3-us-west-1.amazonaws.com/tracings/S104_age9_trial5.png","5","",""
"","3519","image-button-response","20","null","105151","68895b4cc3548521ab78eeca","6889e0620552a354a121a8fc","67178054a368314e6afa5ed4","3","S45_age6_trial3.png","false","false","https://kisumu-drawings.s3-us-west-1.amazonaws.com/tracings/S45_age6_trial3.png","3","",""
"","4219","image-button-response","21","null","109876","68895b4cc3548521ab78eeca","6889e0620552a354a121a8fc","67178054a368314e6afa5ed4","5","S65_age7_trial5.png","false","false","https://kisumu-drawings.s3-us-west-1.amazonaws.com/tracings/S65_age7_trial5.png","5","",""
"","4229","image-button-response","22","null","114608","68895b4cc3548521ab78eeca","6889e0620552a354a121a8fc","67178054a368314e6afa5ed4","4","S106_age9_trial4.png","false","false","https://kisumu-drawings.s3-us-west-1.amazonaws.com/tracings/S106_age9_trial4.png","4","",""
"","3620","image-button-response","23","null","118744","68895b4cc3548521ab78eeca","6889e0620552a354a121a8fc","67178054a368314e6afa5ed4","5","S66_age7_trial5.png","false","false","https://kisumu-drawings.s3-us-west-1.amazonaws.com/tracings/S66_age7_trial5.png","3","",""
"","5014","image-button-response","24","null","124264","68895b4cc3548521ab78eeca","6889e0620552a354a121a8fc","67178054a368314e6afa5ed4","1","S106_age9_trial1.png","false","false","https://kisumu-drawings.s3-us-west-1.amazonaws.com/tracings/S106_age9_trial1.png","4","",""
"","3448","image-button-response","25","null","128222","68895b4cc3548521ab78eeca","6889e0620552a354a121a8fc","67178054a368314e6afa5ed4","3","S25_age5_trial3.png","false","false","https://kisumu-drawings.s3-us-west-1.amazonaws.com/tracings/S25_age5_trial3.png","2","",""
"","3865","image-button-response","26","null","132590","68895b4cc3548521ab78eeca","6889e0620552a354a121a8fc","67178054a368314e6afa5ed4","2","S65_age7_trial2.png","false","false","https://kisumu-drawings.s3-us-west-1.amazonaws.com/tracings/S65_age7_trial2.png","4","",""
"","4372","image-button-response","27","null","137465","68895b4cc3548521ab78eeca","6889e0620552a354a121a8fc","67178054a368314e6afa5ed4","5","S45_age6_trial5.png","false","false","https://kisumu-drawings.s3-us-west-1.amazonaws.com/tracings/S45_age6_trial5.png","3","",""
"","3778","image-button-response","28","null","141756","68895b4cc3548521ab78eeca","6889e0620552a354a121a8fc","67178054a368314e6afa5ed4","1","S25_age5_trial1.png","false","false","https://kisumu-drawings.s3-us-west-1.amazonaws.com/tracings/S25_age5_trial1.png","4","",""
"","4594","image-button-response","29","null","146853","68895b4cc3548521ab78eeca","6889e0620552a354a121a8fc","67178054a368314e6afa5ed4","4","S15_age4_trial4.png","false","false","https://kisumu-drawings.s3-us-west-1.amazonaws.com/tracings/S15_age4_trial4.png","2","",""
"","4545","image-button-response","30","null","151901","68895b4cc3548521ab78eeca","6889e0620552a354a121a8fc","67178054a368314e6afa5ed4","4","S45_age6_trial4.png","false","false","https://kisumu-drawings.s3-us-west-1.amazonaws.com/tracings/S45_age6_trial4.png","3","",""
"","3947","image-button-response","31","null","156355","68895b4cc3548521ab78eeca","6889e0620552a354a121a8fc","67178054a368314e6afa5ed4","3","S65_age7_trial3.png","false","false","https://kisumu-drawings.s3-us-west-1.amazonaws.com/tracings/S65_age7_trial3.png","5","",""
"","3458","image-button-response","32","null","160315","68895b4cc3548521ab78eeca","6889e0620552a354a121a8fc","67178054a368314e6afa5ed4","3","S14_age4_trial3.png","false","false","https://kisumu-drawings.s3-us-west-1.amazonaws.com/tracings/S14_age4_trial3.png","2","",""
"","4801","image-button-response","33","null","165625","68895b4cc3548521ab78eeca","6889e0620552a354a121a8fc","67178054a368314e6afa5ed4","1","S66_age7_trial1.png","false","false","https://kisumu-drawings.s3-us-west-1.amazonaws.com/tracings/S66_age7_trial1.png","4","",""
"","5011","image-button-response","34","null","171137","68895b4cc3548521ab78eeca","6889e0620552a354a121a8fc","67178054a368314e6afa5ed4","1","S65_age7_trial1.png","false","false","https://kisumu-drawings.s3-us-west-1.amazonaws.com/tracings/S65_age7_trial1.png","4","",""
"","4954","image-button-response","35","null","176592","68895b4cc3548521ab78eeca","6889e0620552a354a121a8fc","67178054a368314e6afa5ed4","2","S85_age8_trial2.png","false","false","https://kisumu-drawings.s3-us-west-1.amazonaws.com/tracings/S85_age8_trial2.png","4","",""
"","7556","image-button-response","36","null","184649","68895b4cc3548521ab78eeca","6889e0620552a354a121a8fc","67178054a368314e6afa5ed4","1","S45_age6_trial1.png","false","false","https://kisumu-drawings.s3-us-west-1.amazonaws.com/tracings/S45_age6_trial1.png","3","",""
"","3080","image-button-response","37","null","188231","68895b4cc3548521ab78eeca","6889e0620552a354a121a8fc","67178054a368314e6afa5ed4","1","S105_age9_trial1.png","false","false","https://kisumu-drawings.s3-us-west-1.amazonaws.com/tracings/S105_age9_trial1.png","4","",""
"","1703","image-button-response","38","null","190440","68895b4cc3548521ab78eeca","6889e0620552a354a121a8fc","67178054a368314e6afa5ed4","1","S14_age4_trial1.png","false","false","https://kisumu-drawings.s3-us-west-1.amazonaws.com/tracings/S14_age4_trial1.png","2","",""
"","3776","image-button-response","39","null","194717","68895b4cc3548521ab78eeca","6889e0620552a354a121a8fc","67178054a368314e6afa5ed4","4","S46_age6_trial4.png","false","false","https://kisumu-drawings.s3-us-west-1.amazonaws.com/tracings/S46_age6_trial4.png","3","",""
"","1756","image-button-response","40","null","196977","68895b4cc3548521ab78eeca","6889e0620552a354a121a8fc","67178054a368314e6afa5ed4","","","true","false","stimuli/catch_trials/catch_trial.png","0","","1"
"","2053","image-button-response","41","null","199531","68895b4cc3548521ab78eeca","6889e0620552a354a121a8fc","67178054a368314e6afa5ed4","2","S66_age7_trial2.png","false","false","https://kisumu-drawings.s3-us-west-1.amazonaws.com/tracings/S66_age7_trial2.png","4","",""
"","1518","image-button-response","42","null","201551","68895b4cc3548521ab78eeca","6889e0620552a354a121a8fc","67178054a368314e6afa5ed4","2","S25_age5_trial2.png","false","false","https://kisumu-drawings.s3-us-west-1.amazonaws.com/tracings/S25_age5_trial2.png","3","",""
"","1795","image-button-response","43","null","203853","68895b4cc3548521ab78eeca","6889e0620552a354a121a8fc","67178054a368314e6afa5ed4","3","S106_age9_trial3.png","false","false","https://kisumu-drawings.s3-us-west-1.amazonaws.com/tracings/S106_age9_trial3.png","5","",""
"","1870","image-button-response","44","null","206225","68895b4cc3548521ab78eeca","6889e0620552a354a121a8fc","67178054a368314e6afa5ed4","4","S84_age8_trial4.png","false","false","https://kisumu-drawings.s3-us-west-1.amazonaws.com/tracings/S84_age8_trial4.png","3","",""
"","2312","image-button-response","45","null","209041","68895b4cc3548521ab78eeca","6889e0620552a354a121a8fc","67178054a368314e6afa5ed4","4","S105_age9_trial4.png","false","false","https://kisumu-drawings.s3-us-west-1.amazonaws.com/tracings/S105_age9_trial4.png","4","",""
"","1602","image-button-response","46","null","211145","68895b4cc3548521ab78eeca","6889e0620552a354a121a8fc","67178054a368314e6afa5ed4","2","S44_age6_trial2.png","false","false","https://kisumu-drawings.s3-us-west-1.amazonaws.com/tracings/S44_age6_trial2.png","3","",""
"","1446","image-button-response","47","null","213093","68895b4cc3548521ab78eeca","6889e0620552a354a121a8fc","67178054a368314e6afa5ed4","2","S14_age4_trial2.png","false","false","https://kisumu-drawings.s3-us-west-1.amazonaws.com/tracings/S14_age4_trial2.png","2","",""
"","2143","image-button-response","48","null","215741","68895b4cc3548521ab78eeca","6889e0620552a354a121a8fc","67178054a368314e6afa5ed4","2","S84_age8_trial2.png","false","false","https://kisumu-drawings.s3-us-west-1.amazonaws.com/tracings/S84_age8_trial2.png","4","",""
"","4425","image-button-response","49","null","220681","68895b4cc3548521ab78eeca","6889e0620552a354a121a8fc","67178054a368314e6afa5ed4","2","S105_age9_trial2.png","false","false","https://kisumu-drawings.s3-us-west-1.amazonaws.com/tracings/S105_age9_trial2.png","4","",""
"","2838","image-button-response","50","null","224025","68895b4cc3548521ab78eeca","6889e0620552a354a121a8fc","67178054a368314e6afa5ed4","3","S105_age9_trial3.png","false","false","https://kisumu-drawings.s3-us-west-1.amazonaws.com/tracings/S105_age9_trial3.png","4","",""
"","3039","image-button-response","51","null","227565","68895b4cc3548521ab78eeca","6889e0620552a354a121a8fc","67178054a368314e6afa5ed4","5","S46_age6_trial5.png","false","false","https://kisumu-drawings.s3-us-west-1.amazonaws.com/tracings/S46_age6_trial5.png","4","",""
"","2797","image-button-response","52","null","230869","68895b4cc3548521ab78eeca","6889e0620552a354a121a8fc","67178054a368314e6afa5ed4","5","S25_age5_trial5.png","false","false","https://kisumu-drawings.s3-us-west-1.amazonaws.com/tracings/S25_age5_trial5.png","4","",""
"","2565","image-button-response","53","null","233941","68895b4cc3548521ab78eeca","6889e0620552a354a121a8fc","67178054a368314e6afa5ed4","4","S24_age5_trial4.png","false","false","https://kisumu-drawings.s3-us-west-1.amazonaws.com/tracings/S24_age5_trial4.png","2","",""
"","5023","image-button-response","54","null","239465","68895b4cc3548521ab78eeca","6889e0620552a354a121a8fc","67178054a368314e6afa5ed4","5","S85_age8_trial5.png","false","false","https://kisumu-drawings.s3-us-west-1.amazonaws.com/tracings/S85_age8_trial5.png","4","",""
"","3209","image-button-response","55","null","243183","68895b4cc3548521ab78eeca","6889e0620552a354a121a8fc","67178054a368314e6afa5ed4","4","S25_age5_trial4.png","false","false","https://kisumu-drawings.s3-us-west-1.amazonaws.com/tracings/S25_age5_trial4.png","2","",""
"","3284","image-button-response","56","null","246969","68895b4cc3548521ab78eeca","6889e0620552a354a121a8fc","67178054a368314e6afa5ed4","2","S26_age5_trial2.png","false","false","https://kisumu-drawings.s3-us-west-1.amazonaws.com/tracings/S26_age5_trial2.png","2","",""
"","5958","image-button-response","57","null","253431","68895b4cc3548521ab78eeca","6889e0620552a354a121a8fc","67178054a368314e6afa5ed4","4","S85_age8_trial4.png","false","false","https://kisumu-drawings.s3-us-west-1.amazonaws.com/tracings/S85_age8_trial4.png","3","",""
"","3127","image-button-response","58","null","257063","68895b4cc3548521ab78eeca","6889e0620552a354a121a8fc","67178054a368314e6afa5ed4","3","S26_age5_trial3.png","false","false","https://kisumu-drawings.s3-us-west-1.amazonaws.com/tracings/S26_age5_trial3.png","2","",""
"","2862","image-button-response","59","null","260427","68895b4cc3548521ab78eeca","6889e0620552a354a121a8fc","67178054a368314e6afa5ed4","2","S106_age9_trial2.png","false","false","https://kisumu-drawings.s3-us-west-1.amazonaws.com/tracings/S106_age9_trial2.png","4","",""
"","1800","image-button-response","60","null","262735","68895b4cc3548521ab78eeca","6889e0620552a354a121a8fc","67178054a368314e6afa5ed4","5","S105_age9_trial5.png","false","false","https://kisumu-drawings.s3-us-west-1.amazonaws.com/tracings/S105_age9_trial5.png","4","",""
"","1899","image-button-response","61","null","265135","68895b4cc3548521ab78eeca","6889e0620552a354a121a8fc","67178054a368314e6afa5ed4","3","S82_age8_trial3.png","false","false","https://kisumu-drawings.s3-us-west-1.amazonaws.com/tracings/S82_age8_trial3.png","4","",""
