"view_history","rt","trial_type","trial_index","plugin_version","time_elapsed","study_id","session_id","participant_id","tracing_type","tracing_id","catch_trial","prep_trial","stimulus","response","sketcher_category","response_category"
"[{""page_index"":0,""viewing_time"":3020},{""page_index"":1,""viewing_time"":2683},{""page_index"":2,""viewing_time"":2503},{""page_index"":3,""viewing_time"":1130},{""page_index"":4,""viewing_time"":1288}]","10624","instructions","0","null","10633","68895b4cc3548521ab78eeca","688a3776866b0a2e03b319de","671d1dcbc6f5d2e81501e24a","","","","","","","",""
"","2990","image-button-response","1","null","14641","68895b4cc3548521ab78eeca","688a3776866b0a2e03b319de","671d1dcbc6f5d2e81501e24a","2","S109_age9_trial2.png","false","false","https://kisumu-drawings.s3-us-west-1.amazonaws.com/tracings/S109_age9_trial2.png","4","",""
"","1826","image-button-response","2","null","16980","68895b4cc3548521ab78eeca","688a3776866b0a2e03b319de","671d1dcbc6f5d2e81501e24a","3","S28_age5_trial3.png","false","false","https://kisumu-drawings.s3-us-west-1.amazonaws.com/tracings/S28_age5_trial3.png","3","",""
"","1834","image-button-response","3","null","19316","68895b4cc3548521ab78eeca","688a3776866b0a2e03b319de","671d1dcbc6f5d2e81501e24a","5","S47_age6_trial5.png","false","false","https://kisumu-drawings.s3-us-west-1.amazonaws.com/tracings/S47_age6_trial5.png","3","",""
"","1565","image-button-response","4","null","21392","68895b4cc3548521ab78eeca","688a3776866b0a2e03b319de","671d1dcbc6f5d2e81501e24a","2","S49_age6_trial2.png","false","false","https://kisumu-drawings.s3-us-west-1.amazonaws.com/tracings/S49_age6_trial2.png","3","",""
"","1897","image-button-response","5","null","23806","68895b4cc3548521ab78eeca","688a3776866b0a2e03b319de","671d1dcbc6f5d2e81501e24a","1","S18_age4_trial1.png","false","false","https://kisumu-drawings.s3-us-west-1.amazonaws.com/tracings/S18_age4_trial1.png","2","",""
"","2341","image-button-response","6","null","26648","68895b4cc3548521ab78eeca","688a3776866b0a2e03b319de","671d1dcbc6f5d2e81501e24a","1","S28_age5_trial1.png","false","false","https://kisumu-drawings.s3-us-west-1.amazonaws.com/tracings/S28_age5_trial1.png","5","",""
"","1791","image-button-response","7","null","28942","68895b4cc3548521ab78eeca","688a3776866b0a2e03b319de","671d1dcbc6f5d2e81501e24a","2","S70_age7_trial2.png","false","false","https://kisumu-drawings.s3-us-west-1.amazonaws.com/tracings/S70_age7_trial2.png","4","",""
"","3487","image-button-response","8","null","32936","68895b4cc3548521ab78eeca","688a3776866b0a2e03b319de","671d1dcbc6f5d2e81501e24a","4","S110_age9_trial4.png","false","false","https://kisumu-drawings.s3-us-west-1.amazonaws.com/tracings/S110_age9_trial4.png","2","",""
"","1969","image-button-response","9","null","35408","68895b4cc3548521ab78eeca","688a3776866b0a2e03b319de","671d1dcbc6f5d2e81501e24a","5","S88_age8_trial5.png","false","false","https://kisumu-drawings.s3-us-west-1.amazonaws.com/tracings/S88_age8_trial5.png","3","",""
"","1346","image-button-response","10","null","37268","68895b4cc3548521ab78eeca","688a3776866b0a2e03b319de","671d1dcbc6f5d2e81501e24a","4","S88_age8_trial4.png","false","false","https://kisumu-drawings.s3-us-west-1.amazonaws.com/tracings/S88_age8_trial4.png","3","",""
"","1378","image-button-response","11","null","39154","68895b4cc3548521ab78eeca","688a3776866b0a2e03b319de","671d1dcbc6f5d2e81501e24a","1","S27_age5_trial1.png","false","false","https://kisumu-drawings.s3-us-west-1.amazonaws.com/tracings/S27_age5_trial1.png","3","",""
"","1664","image-button-response","12","null","41324","68895b4cc3548521ab78eeca","688a3776866b0a2e03b319de","671d1dcbc6f5d2e81501e24a","1","S70_age7_trial1.png","false","false","https://kisumu-drawings.s3-us-west-1.amazonaws.com/tracings/S70_age7_trial1.png","4","",""
"","1323","image-button-response","13","null","43160","68895b4cc3548521ab78eeca","688a3776866b0a2e03b319de","671d1dcbc6f5d2e81501e24a","5","S28_age5_trial5.png","false","false","https://kisumu-drawings.s3-us-west-1.amazonaws.com/tracings/S28_age5_trial5.png","3","",""
"","1581","image-button-response","14","null","45252","68895b4cc3548521ab78eeca","688a3776866b0a2e03b319de","671d1dcbc6f5d2e81501e24a","3","S49_age6_trial3.png","false","false","https://kisumu-drawings.s3-us-west-1.amazonaws.com/tracings/S49_age6_trial3.png","3","",""
"","1458","image-button-response","15","null","47212","68895b4cc3548521ab78eeca","688a3776866b0a2e03b319de","671d1dcbc6f5d2e81501e24a","4","S27_age5_trial4.png","false","false","https://kisumu-drawings.s3-us-west-1.amazonaws.com/tracings/S27_age5_trial4.png","2","",""
"","1704","image-button-response","16","null","49424","68895b4cc3548521ab78eeca","688a3776866b0a2e03b319de","671d1dcbc6f5d2e81501e24a","4","S69_age7_trial4.png","false","false","https://kisumu-drawings.s3-us-west-1.amazonaws.com/tracings/S69_age7_trial4.png","3","",""
"","1659","image-button-response","17","null","51586","68895b4cc3548521ab78eeca","688a3776866b0a2e03b319de","671d1dcbc6f5d2e81501e24a","1","S17_age4_trial1.png","false","false","https://kisumu-drawings.s3-us-west-1.amazonaws.com/tracings/S17_age4_trial1.png","4","",""
"","2388","image-button-response","18","null","54486","68895b4cc3548521ab78eeca","688a3776866b0a2e03b319de","671d1dcbc6f5d2e81501e24a","5","S17_age4_trial5.png","false","false","https://kisumu-drawings.s3-us-west-1.amazonaws.com/tracings/S17_age4_trial5.png","3","",""
"","2101","image-button-response","19","null","57100","68895b4cc3548521ab78eeca","688a3776866b0a2e03b319de","671d1dcbc6f5d2e81501e24a","2","S29_age5_trial2.png","false","false","https://kisumu-drawings.s3-us-west-1.amazonaws.com/tracings/S29_age5_trial2.png","2","",""
"","2041","image-button-response","20","null","59646","68895b4cc3548521ab78eeca","688a3776866b0a2e03b319de","671d1dcbc6f5d2e81501e24a","1","S88_age8_trial1.png","false","false","https://kisumu-drawings.s3-us-west-1.amazonaws.com/tracings/S88_age8_trial1.png","4","",""
"","1720","image-button-response","21","null","61878","68895b4cc3548521ab78eeca","688a3776866b0a2e03b319de","671d1dcbc6f5d2e81501e24a","5","S108_age9_trial5.png","false","false","https://kisumu-drawings.s3-us-west-1.amazonaws.com/tracings/S108_age9_trial5.png","4","",""
"","1248","image-button-response","22","null","63642","68895b4cc3548521ab78eeca","688a3776866b0a2e03b319de","671d1dcbc6f5d2e81501e24a","1","S87_age8_trial1.png","false","false","https://kisumu-drawings.s3-us-west-1.amazonaws.com/tracings/S87_age8_trial1.png","4","",""
"","2868","image-button-response","23","null","67012","68895b4cc3548521ab78eeca","688a3776866b0a2e03b319de","671d1dcbc6f5d2e81501e24a","3","S108_age9_trial3.png","false","false","https://kisumu-drawings.s3-us-west-1.amazonaws.com/tracings/S108_age9_trial3.png","4","",""
"","1526","image-button-response","24","null","69050","68895b4cc3548521ab78eeca","688a3776866b0a2e03b319de","671d1dcbc6f5d2e81501e24a","1","S109_age9_trial1.png","false","false","https://kisumu-drawings.s3-us-west-1.amazonaws.com/tracings/S109_age9_trial1.png","4","",""
"","1856","image-button-response","25","null","71416","68895b4cc3548521ab78eeca","688a3776866b0a2e03b319de","671d1dcbc6f5d2e81501e24a","2","S18_age4_trial2.png","false","false","https://kisumu-drawings.s3-us-west-1.amazonaws.com/tracings/S18_age4_trial2.png","3","",""
"","1650","image-button-response","26","null","73578","68895b4cc3548521ab78eeca","688a3776866b0a2e03b319de","671d1dcbc6f5d2e81501e24a","5","S70_age7_trial5.png","false","false","https://kisumu-drawings.s3-us-west-1.amazonaws.com/tracings/S70_age7_trial5.png","3","",""
"","1289","image-button-response","27","null","75378","68895b4cc3548521ab78eeca","688a3776866b0a2e03b319de","671d1dcbc6f5d2e81501e24a","2","S28_age5_trial2.png","false","false","https://kisumu-drawings.s3-us-west-1.amazonaws.com/tracings/S28_age5_trial2.png","3","",""
"","1580","image-button-response","28","null","77464","68895b4cc3548521ab78eeca","688a3776866b0a2e03b319de","671d1dcbc6f5d2e81501e24a","5","S89_age8_trial5.png","false","false","https://kisumu-drawings.s3-us-west-1.amazonaws.com/tracings/S89_age8_trial5.png","3","",""
"","2217","image-button-response","29","null","80184","68895b4cc3548521ab78eeca","688a3776866b0a2e03b319de","671d1dcbc6f5d2e81501e24a","4","S48_age6_trial4.png","false","false","https://kisumu-drawings.s3-us-west-1.amazonaws.com/tracings/S48_age6_trial4.png","1","",""
"","1892","image-button-response","30","null","82592","68895b4cc3548521ab78eeca","688a3776866b0a2e03b319de","671d1dcbc6f5d2e81501e24a","4","S17_age4_trial4.png","false","false","https://kisumu-drawings.s3-us-west-1.amazonaws.com/tracings/S17_age4_trial4.png","2","",""
"","1914","image-button-response","31","null","85016","68895b4cc3548521ab78eeca","688a3776866b0a2e03b319de","671d1dcbc6f5d2e81501e24a","2","S108_age9_trial2.png","false","false","https://kisumu-drawings.s3-us-west-1.amazonaws.com/tracings/S108_age9_trial2.png","5","",""
"","1862","image-button-response","32","null","87388","68895b4cc3548521ab78eeca","688a3776866b0a2e03b319de","671d1dcbc6f5d2e81501e24a","1","S49_age6_trial1.png","false","false","https://kisumu-drawings.s3-us-west-1.amazonaws.com/tracings/S49_age6_trial1.png","4","",""
"","1335","image-button-response","33","null","89234","68895b4cc3548521ab78eeca","688a3776866b0a2e03b319de","671d1dcbc6f5d2e81501e24a","3","S86_age8_trial3.png","false","false","https://kisumu-drawings.s3-us-west-1.amazonaws.com/tracings/S86_age8_trial3.png","4","",""
"","1627","image-button-response","34","null","91364","68895b4cc3548521ab78eeca","688a3776866b0a2e03b319de","671d1dcbc6f5d2e81501e24a","","","true","false","stimuli/catch_trials/catch_trial.png","0","","1"
"","1574","image-button-response","35","null","93442","68895b4cc3548521ab78eeca","688a3776866b0a2e03b319de","671d1dcbc6f5d2e81501e24a","3","S27_age5_trial3.png","false","false","https://kisumu-drawings.s3-us-west-1.amazonaws.com/tracings/S27_age5_trial3.png","2","",""
"","2466","image-button-response","36","null","96410","68895b4cc3548521ab78eeca","688a3776866b0a2e03b319de","671d1dcbc6f5d2e81501e24a","1","S69_age7_trial1.png","false","false","https://kisumu-drawings.s3-us-west-1.amazonaws.com/tracings/S69_age7_trial1.png","4","",""
"","1796","image-button-response","37","null","98710","68895b4cc3548521ab78eeca","688a3776866b0a2e03b319de","671d1dcbc6f5d2e81501e24a","3","S17_age4_trial3.png","false","false","https://kisumu-drawings.s3-us-west-1.amazonaws.com/tracings/S17_age4_trial3.png","3","",""
"","2040","image-button-response","38","null","101264","68895b4cc3548521ab78eeca","688a3776866b0a2e03b319de","671d1dcbc6f5d2e81501e24a","2","S19_age4_trial2.png","false","false","https://kisumu-drawings.s3-us-west-1.amazonaws.com/tracings/S19_age4_trial2.png","2","",""
"","3341","image-button-response","39","null","105110","68895b4cc3548521ab78eeca","688a3776866b0a2e03b319de","671d1dcbc6f5d2e81501e24a","1","S110_age9_trial1.png","false","false","https://kisumu-drawings.s3-us-west-1.amazonaws.com/tracings/S110_age9_trial1.png","4","",""
"","1647","image-button-response","40","null","107258","68895b4cc3548521ab78eeca","688a3776866b0a2e03b319de","671d1dcbc6f5d2e81501e24a","4","S70_age7_trial4.png","false","false","https://kisumu-drawings.s3-us-west-1.amazonaws.com/tracings/S70_age7_trial4.png","3","",""
"","2097","image-button-response","41","null","109860","68895b4cc3548521ab78eeca","688a3776866b0a2e03b319de","671d1dcbc6f5d2e81501e24a","3","S68_age7_trial3.png","false","false","https://kisumu-drawings.s3-us-west-1.amazonaws.com/tracings/S68_age7_trial3.png","4","",""
"","1557","image-button-response","42","null","111926","68895b4cc3548521ab78eeca","688a3776866b0a2e03b319de","671d1dcbc6f5d2e81501e24a","4","S109_age9_trial4.png","false","false","https://kisumu-drawings.s3-us-west-1.amazonaws.com/tracings/S109_age9_trial4.png","3","",""
"","1936","image-button-response","43","null","114378","68895b4cc3548521ab78eeca","688a3776866b0a2e03b319de","671d1dcbc6f5d2e81501e24a","3","S18_age4_trial3.png","false","false","https://kisumu-drawings.s3-us-west-1.amazonaws.com/tracings/S18_age4_trial3.png","2","",""
"","1942","image-button-response","44","null","116824","68895b4cc3548521ab78eeca","688a3776866b0a2e03b319de","671d1dcbc6f5d2e81501e24a","3","S109_age9_trial3.png","false","false","https://kisumu-drawings.s3-us-west-1.amazonaws.com/tracings/S109_age9_trial3.png","4","",""
"","2272","image-button-response","45","null","119606","68895b4cc3548521ab78eeca","688a3776866b0a2e03b319de","671d1dcbc6f5d2e81501e24a","4","S49_age6_trial4.png","false","false","https://kisumu-drawings.s3-us-west-1.amazonaws.com/tracings/S49_age6_trial4.png","3","",""
"","1715","image-button-response","46","null","121834","68895b4cc3548521ab78eeca","688a3776866b0a2e03b319de","671d1dcbc6f5d2e81501e24a","2","S88_age8_trial2.png","false","false","https://kisumu-drawings.s3-us-west-1.amazonaws.com/tracings/S88_age8_trial2.png","4","",""
"","1675","image-button-response","47","null","124012","68895b4cc3548521ab78eeca","688a3776866b0a2e03b319de","671d1dcbc6f5d2e81501e24a","4","S18_age4_trial4.png","false","false","https://kisumu-drawings.s3-us-west-1.amazonaws.com/tracings/S18_age4_trial4.png","2","",""
"","1382","image-button-response","48","null","125902","68895b4cc3548521ab78eeca","688a3776866b0a2e03b319de","671d1dcbc6f5d2e81501e24a","4","S28_age5_trial4.png","false","false","https://kisumu-drawings.s3-us-west-1.amazonaws.com/tracings/S28_age5_trial4.png","3","",""
"","1514","image-button-response","49","null","127924","68895b4cc3548521ab78eeca","688a3776866b0a2e03b319de","671d1dcbc6f5d2e81501e24a","5","S29_age5_trial5.png","false","false","https://kisumu-drawings.s3-us-west-1.amazonaws.com/tracings/S29_age5_trial5.png","1","",""
"","1635","image-button-response","50","null","130074","68895b4cc3548521ab78eeca","688a3776866b0a2e03b319de","671d1dcbc6f5d2e81501e24a","5","S18_age4_trial5.png","false","false","https://kisumu-drawings.s3-us-west-1.amazonaws.com/tracings/S18_age4_trial5.png","1","",""
"","1846","image-button-response","51","null","132422","68895b4cc3548521ab78eeca","688a3776866b0a2e03b319de","671d1dcbc6f5d2e81501e24a","5","S48_age6_trial5.png","false","false","https://kisumu-drawings.s3-us-west-1.amazonaws.com/tracings/S48_age6_trial5.png","1","",""
"","2450","image-button-response","52","null","135375","68895b4cc3548521ab78eeca","688a3776866b0a2e03b319de","671d1dcbc6f5d2e81501e24a","2","S69_age7_trial2.png","false","false","https://kisumu-drawings.s3-us-west-1.amazonaws.com/tracings/S69_age7_trial2.png","5","",""
"","1604","image-button-response","53","null","137480","68895b4cc3548521ab78eeca","688a3776866b0a2e03b319de","671d1dcbc6f5d2e81501e24a","5","S69_age7_trial5.png","false","false","https://kisumu-drawings.s3-us-west-1.amazonaws.com/tracings/S69_age7_trial5.png","4","",""
"","2647","image-button-response","54","null","140634","68895b4cc3548521ab78eeca","688a3776866b0a2e03b319de","671d1dcbc6f5d2e81501e24a","1","S48_age6_trial1.png","false","false","https://kisumu-drawings.s3-us-west-1.amazonaws.com/tracings/S48_age6_trial1.png","1","",""
"","1574","image-button-response","55","null","142712","68895b4cc3548521ab78eeca","688a3776866b0a2e03b319de","671d1dcbc6f5d2e81501e24a","4","S87_age8_trial4.png","false","false","https://kisumu-drawings.s3-us-west-1.amazonaws.com/tracings/S87_age8_trial4.png","1","",""
"","1777","image-button-response","56","null","145000","68895b4cc3548521ab78eeca","688a3776866b0a2e03b319de","671d1dcbc6f5d2e81501e24a","3","S50_age6_trial3.png","false","false","https://kisumu-drawings.s3-us-west-1.amazonaws.com/tracings/S50_age6_trial3.png","4","",""
"","2800","image-button-response","57","null","148314","68895b4cc3548521ab78eeca","688a3776866b0a2e03b319de","671d1dcbc6f5d2e81501e24a","5","S109_age9_trial5.png","false","false","https://kisumu-drawings.s3-us-west-1.amazonaws.com/tracings/S109_age9_trial5.png","5","",""
"","2138","image-button-response","58","null","150954","68895b4cc3548521ab78eeca","688a3776866b0a2e03b319de","671d1dcbc6f5d2e81501e24a","2","S87_age8_trial2.png","false","false","https://kisumu-drawings.s3-us-west-1.amazonaws.com/tracings/S87_age8_trial2.png","4","",""
"","1445","image-button-response","59","null","152906","68895b4cc3548521ab78eeca","688a3776866b0a2e03b319de","671d1dcbc6f5d2e81501e24a","3","S87_age8_trial3.png","false","false","https://kisumu-drawings.s3-us-west-1.amazonaws.com/tracings/S87_age8_trial3.png","4","",""
"","2316","image-button-response","60","null","155734","68895b4cc3548521ab78eeca","688a3776866b0a2e03b319de","671d1dcbc6f5d2e81501e24a","2","S48_age6_trial2.png","false","false","https://kisumu-drawings.s3-us-west-1.amazonaws.com/tracings/S48_age6_trial2.png","2","",""
"","1692","image-button-response","61","null","157934","68895b4cc3548521ab78eeca","688a3776866b0a2e03b319de","671d1dcbc6f5d2e81501e24a","3","S67_age7_trial3.png","false","false","https://kisumu-drawings.s3-us-west-1.amazonaws.com/tracings/S67_age7_trial3.png","4","",""
