"view_history","rt","trial_type","trial_index","plugin_version","time_elapsed","study_id","session_id","participant_id","tracing_type","tracing_id","catch_trial","prep_trial","stimulus","response","sketcher_category","response_category"
"[{""page_index"":0,""viewing_time"":13773},{""page_index"":1,""viewing_time"":5128},{""page_index"":2,""viewing_time"":4600},{""page_index"":3,""viewing_time"":2104},{""page_index"":4,""viewing_time"":4848}]","30453","instructions","0","null","30461","68895b4cc3548521ab78eeca","68895f138c8bdbd0cef77110","672268205351c30413c9837e","","","","","","","",""
"","6044","image-button-response","1","null","37509","68895b4cc3548521ab78eeca","68895f138c8bdbd0cef77110","672268205351c30413c9837e","4","S42_age6_trial4.png","false","false","https://kisumu-drawings.s3-us-west-1.amazonaws.com/tracings/S42_age6_trial4.png","2","",""
"","5396","image-button-response","2","null","43408","68895b4cc3548521ab78eeca","68895f138c8bdbd0cef77110","672268205351c30413c9837e","2","S81_age8_trial2.png","false","false","https://kisumu-drawings.s3-us-west-1.amazonaws.com/tracings/S81_age8_trial2.png","4","",""
"","4339","image-button-response","3","null","48262","68895b4cc3548521ab78eeca","68895f138c8bdbd0cef77110","672268205351c30413c9837e","5","S22_age5_trial5.png","false","false","https://kisumu-drawings.s3-us-west-1.amazonaws.com/tracings/S22_age5_trial5.png","4","",""
"","3260","image-button-response","4","null","52038","68895b4cc3548521ab78eeca","68895f138c8bdbd0cef77110","672268205351c30413c9837e","5","S21_age5_trial5.png","false","false","https://kisumu-drawings.s3-us-west-1.amazonaws.com/tracings/S21_age5_trial5.png","4","",""
"","3421","image-button-response","5","null","55966","68895b4cc3548521ab78eeca","68895f138c8bdbd0cef77110","672268205351c30413c9837e","5","S10_age4_trial5.png","false","false","https://kisumu-drawings.s3-us-west-1.amazonaws.com/tracings/S10_age4_trial5.png","3","",""
"","2571","image-button-response","6","null","59038","68895b4cc3548521ab78eeca","68895f138c8bdbd0cef77110","672268205351c30413c9837e","2","S100_age8_trial2.png","false","false","https://kisumu-drawings.s3-us-west-1.amazonaws.com/tracings/S100_age8_trial2.png","4","",""
"","2288","image-button-response","7","null","61830","68895b4cc3548521ab78eeca","68895f138c8bdbd0cef77110","672268205351c30413c9837e","","","true","false","stimuli/catch_trials/catch_trial.png","0","","1"
"","5343","image-button-response","8","null","67677","68895b4cc3548521ab78eeca","68895f138c8bdbd0cef77110","672268205351c30413c9837e","1","S42_age6_trial1.png","false","false","https://kisumu-drawings.s3-us-west-1.amazonaws.com/tracings/S42_age6_trial1.png","3","",""
"","4746","image-button-response","9","null","72926","68895b4cc3548521ab78eeca","68895f138c8bdbd0cef77110","672268205351c30413c9837e","4","S62_age7_trial4.png","false","false","https://kisumu-drawings.s3-us-west-1.amazonaws.com/tracings/S62_age7_trial4.png","3","",""
"","2882","image-button-response","10","null","76318","68895b4cc3548521ab78eeca","68895f138c8bdbd0cef77110","672268205351c30413c9837e","2","S41_age6_trial2.png","false","false","https://kisumu-drawings.s3-us-west-1.amazonaws.com/tracings/S41_age6_trial2.png","3","",""
"","2592","image-button-response","11","null","79414","68895b4cc3548521ab78eeca","68895f138c8bdbd0cef77110","672268205351c30413c9837e","2","S61_age7_trial2.png","false","false","https://kisumu-drawings.s3-us-west-1.amazonaws.com/tracings/S61_age7_trial2.png","3","",""
"","2554","image-button-response","12","null","82470","68895b4cc3548521ab78eeca","68895f138c8bdbd0cef77110","672268205351c30413c9837e","1","S62_age7_trial1.png","false","false","https://kisumu-drawings.s3-us-west-1.amazonaws.com/tracings/S62_age7_trial1.png","4","",""
"","3832","image-button-response","13","null","86806","68895b4cc3548521ab78eeca","68895f138c8bdbd0cef77110","672268205351c30413c9837e","1","S101_age9_trial1.png","false","false","https://kisumu-drawings.s3-us-west-1.amazonaws.com/tracings/S101_age9_trial1.png","5","",""
"","3673","image-button-response","14","null","90990","68895b4cc3548521ab78eeca","68895f138c8bdbd0cef77110","672268205351c30413c9837e","5","S81_age8_trial5.png","false","false","https://kisumu-drawings.s3-us-west-1.amazonaws.com/tracings/S81_age8_trial5.png","4","",""
"","2936","image-button-response","15","null","94438","68895b4cc3548521ab78eeca","68895f138c8bdbd0cef77110","672268205351c30413c9837e","3","S81_age8_trial3.png","false","false","https://kisumu-drawings.s3-us-west-1.amazonaws.com/tracings/S81_age8_trial3.png","4","",""
"","2033","image-button-response","16","null","96974","68895b4cc3548521ab78eeca","68895f138c8bdbd0cef77110","672268205351c30413c9837e","3","S62_age7_trial3.png","false","false","https://kisumu-drawings.s3-us-west-1.amazonaws.com/tracings/S62_age7_trial3.png","4","",""
"","4129","image-button-response","17","null","101613","68895b4cc3548521ab78eeca","68895f138c8bdbd0cef77110","672268205351c30413c9837e","5","S42_age6_trial5.png","false","false","https://kisumu-drawings.s3-us-west-1.amazonaws.com/tracings/S42_age6_trial5.png","3","",""
"","4487","image-button-response","18","null","106606","68895b4cc3548521ab78eeca","68895f138c8bdbd0cef77110","672268205351c30413c9837e","2","S10_age4_trial2.png","false","false","https://kisumu-drawings.s3-us-west-1.amazonaws.com/tracings/S10_age4_trial2.png","2","",""
"","3055","image-button-response","19","null","110166","68895b4cc3548521ab78eeca","68895f138c8bdbd0cef77110","672268205351c30413c9837e","4","S21_age5_trial4.png","false","false","https://kisumu-drawings.s3-us-west-1.amazonaws.com/tracings/S21_age5_trial4.png","3","",""
"","2579","image-button-response","20","null","113246","68895b4cc3548521ab78eeca","68895f138c8bdbd0cef77110","672268205351c30413c9837e","3","S10_age4_trial3.png","false","false","https://kisumu-drawings.s3-us-west-1.amazonaws.com/tracings/S10_age4_trial3.png","1","",""
"","2746","image-button-response","21","null","116494","68895b4cc3548521ab78eeca","68895f138c8bdbd0cef77110","672268205351c30413c9837e","3","S102_age9_trial3.png","false","false","https://kisumu-drawings.s3-us-west-1.amazonaws.com/tracings/S102_age9_trial3.png","4","",""
"","2610","image-button-response","22","null","119605","68895b4cc3548521ab78eeca","68895f138c8bdbd0cef77110","672268205351c30413c9837e","3","S41_age6_trial3.png","false","false","https://kisumu-drawings.s3-us-west-1.amazonaws.com/tracings/S41_age6_trial3.png","3","",""
"","3360","image-button-response","23","null","123478","68895b4cc3548521ab78eeca","68895f138c8bdbd0cef77110","672268205351c30413c9837e","4","S41_age6_trial4.png","false","false","https://kisumu-drawings.s3-us-west-1.amazonaws.com/tracings/S41_age6_trial4.png","3","",""
"","3962","image-button-response","24","null","127941","68895b4cc3548521ab78eeca","68895f138c8bdbd0cef77110","672268205351c30413c9837e","4","S11_age4_trial4.png","false","false","https://kisumu-drawings.s3-us-west-1.amazonaws.com/tracings/S11_age4_trial4.png","1","",""
"","4819","image-button-response","25","null","133262","68895b4cc3548521ab78eeca","68895f138c8bdbd0cef77110","672268205351c30413c9837e","5","S11_age4_trial5.png","false","false","https://kisumu-drawings.s3-us-west-1.amazonaws.com/tracings/S11_age4_trial5.png","1","",""
"","3322","image-button-response","26","null","137086","68895b4cc3548521ab78eeca","68895f138c8bdbd0cef77110","672268205351c30413c9837e","2","S42_age6_trial2.png","false","false","https://kisumu-drawings.s3-us-west-1.amazonaws.com/tracings/S42_age6_trial2.png","2","",""
"","2761","image-button-response","27","null","140350","68895b4cc3548521ab78eeca","68895f138c8bdbd0cef77110","672268205351c30413c9837e","1","S81_age8_trial1.png","false","false","https://kisumu-drawings.s3-us-west-1.amazonaws.com/tracings/S81_age8_trial1.png","3","",""
"","5027","image-button-response","28","null","145878","68895b4cc3548521ab78eeca","68895f138c8bdbd0cef77110","672268205351c30413c9837e","1","S100_age8_trial1.png","false","false","https://kisumu-drawings.s3-us-west-1.amazonaws.com/tracings/S100_age8_trial1.png","4","",""
"","3575","image-button-response","29","null","149966","68895b4cc3548521ab78eeca","68895f138c8bdbd0cef77110","672268205351c30413c9837e","5","S41_age6_trial5.png","false","false","https://kisumu-drawings.s3-us-west-1.amazonaws.com/tracings/S41_age6_trial5.png","3","",""
"","3626","image-button-response","30","null","154094","68895b4cc3548521ab78eeca","68895f138c8bdbd0cef77110","672268205351c30413c9837e","2","S62_age7_trial2.png","false","false","https://kisumu-drawings.s3-us-west-1.amazonaws.com/tracings/S62_age7_trial2.png","4","",""
"","3052","image-button-response","31","null","157654","68895b4cc3548521ab78eeca","68895f138c8bdbd0cef77110","672268205351c30413c9837e","2","S22_age5_trial2.png","false","false","https://kisumu-drawings.s3-us-west-1.amazonaws.com/tracings/S22_age5_trial2.png","4","",""
"","2506","image-button-response","32","null","160662","68895b4cc3548521ab78eeca","68895f138c8bdbd0cef77110","672268205351c30413c9837e","1","S11_age4_trial1.png","false","false","https://kisumu-drawings.s3-us-west-1.amazonaws.com/tracings/S11_age4_trial1.png","2","",""
"","1875","image-button-response","33","null","163038","68895b4cc3548521ab78eeca","68895f138c8bdbd0cef77110","672268205351c30413c9837e","1","S21_age5_trial1.png","false","false","https://kisumu-drawings.s3-us-west-1.amazonaws.com/tracings/S21_age5_trial1.png","3","",""
"","2631","image-button-response","34","null","166182","68895b4cc3548521ab78eeca","68895f138c8bdbd0cef77110","672268205351c30413c9837e","3","S21_age5_trial3.png","false","false","https://kisumu-drawings.s3-us-west-1.amazonaws.com/tracings/S21_age5_trial3.png","3","",""
"","2494","image-button-response","35","null","169181","68895b4cc3548521ab78eeca","68895f138c8bdbd0cef77110","672268205351c30413c9837e","4","S10_age4_trial4.png","false","false","https://kisumu-drawings.s3-us-west-1.amazonaws.com/tracings/S10_age4_trial4.png","2","",""
"","3900","image-button-response","36","null","173590","68895b4cc3548521ab78eeca","68895f138c8bdbd0cef77110","672268205351c30413c9837e","3","S100_age8_trial3.png","false","false","https://kisumu-drawings.s3-us-west-1.amazonaws.com/tracings/S100_age8_trial3.png","3","",""
"","2434","image-button-response","37","null","176526","68895b4cc3548521ab78eeca","68895f138c8bdbd0cef77110","672268205351c30413c9837e","1","S22_age5_trial1.png","false","false","https://kisumu-drawings.s3-us-west-1.amazonaws.com/tracings/S22_age5_trial1.png","3","",""
"","3154","image-button-response","38","null","180182","68895b4cc3548521ab78eeca","68895f138c8bdbd0cef77110","672268205351c30413c9837e","5","S101_age9_trial5.png","false","false","https://kisumu-drawings.s3-us-west-1.amazonaws.com/tracings/S101_age9_trial5.png","5","",""
"","5337","image-button-response","39","null","186022","68895b4cc3548521ab78eeca","68895f138c8bdbd0cef77110","672268205351c30413c9837e","4","S81_age8_trial4.png","false","false","https://kisumu-drawings.s3-us-west-1.amazonaws.com/tracings/S81_age8_trial4.png","5","",""
"","2911","image-button-response","40","null","189446","68895b4cc3548521ab78eeca","68895f138c8bdbd0cef77110","672268205351c30413c9837e","3","S61_age7_trial3.png","false","false","https://kisumu-drawings.s3-us-west-1.amazonaws.com/tracings/S61_age7_trial3.png","5","",""
"","2269","image-button-response","41","null","192222","68895b4cc3548521ab78eeca","68895f138c8bdbd0cef77110","672268205351c30413c9837e","3","S101_age9_trial3.png","false","false","https://kisumu-drawings.s3-us-west-1.amazonaws.com/tracings/S101_age9_trial3.png","5","",""
"","2060","image-button-response","42","null","194798","68895b4cc3548521ab78eeca","68895f138c8bdbd0cef77110","672268205351c30413c9837e","5","S100_age8_trial5.png","false","false","https://kisumu-drawings.s3-us-west-1.amazonaws.com/tracings/S100_age8_trial5.png","4","",""
"","2330","image-button-response","43","null","197638","68895b4cc3548521ab78eeca","68895f138c8bdbd0cef77110","672268205351c30413c9837e","2","S101_age9_trial2.png","false","false","https://kisumu-drawings.s3-us-west-1.amazonaws.com/tracings/S101_age9_trial2.png","4","",""
"","1394","image-button-response","44","null","199534","68895b4cc3548521ab78eeca","68895f138c8bdbd0cef77110","672268205351c30413c9837e","5","S62_age7_trial5.png","false","false","https://kisumu-drawings.s3-us-west-1.amazonaws.com/tracings/S62_age7_trial5.png","5","",""
"","3669","image-button-response","45","null","203718","68895b4cc3548521ab78eeca","68895f138c8bdbd0cef77110","672268205351c30413c9837e","5","S61_age7_trial5.png","false","false","https://kisumu-drawings.s3-us-west-1.amazonaws.com/tracings/S61_age7_trial5.png","5","",""
"","2147","image-button-response","46","null","206382","68895b4cc3548521ab78eeca","68895f138c8bdbd0cef77110","672268205351c30413c9837e","4","S22_age5_trial4.png","false","false","https://kisumu-drawings.s3-us-west-1.amazonaws.com/tracings/S22_age5_trial4.png","4","",""
"","2240","image-button-response","47","null","209126","68895b4cc3548521ab78eeca","68895f138c8bdbd0cef77110","672268205351c30413c9837e","1","S10_age4_trial1.png","false","false","https://kisumu-drawings.s3-us-west-1.amazonaws.com/tracings/S10_age4_trial1.png","4","",""
"","2868","image-button-response","48","null","212510","68895b4cc3548521ab78eeca","68895f138c8bdbd0cef77110","672268205351c30413c9837e","1","S41_age6_trial1.png","false","false","https://kisumu-drawings.s3-us-west-1.amazonaws.com/tracings/S41_age6_trial1.png","4","",""
"","3227","image-button-response","49","null","216254","68895b4cc3548521ab78eeca","68895f138c8bdbd0cef77110","672268205351c30413c9837e","5","S102_age9_trial5.png","false","false","https://kisumu-drawings.s3-us-west-1.amazonaws.com/tracings/S102_age9_trial5.png","4","",""
"","3763","image-button-response","50","null","220518","68895b4cc3548521ab78eeca","68895f138c8bdbd0cef77110","672268205351c30413c9837e","4","S102_age9_trial4.png","false","false","https://kisumu-drawings.s3-us-west-1.amazonaws.com/tracings/S102_age9_trial4.png","4","",""
"","3816","image-button-response","51","null","224846","68895b4cc3548521ab78eeca","68895f138c8bdbd0cef77110","672268205351c30413c9837e","3","S22_age5_trial3.png","false","false","https://kisumu-drawings.s3-us-west-1.amazonaws.com/tracings/S22_age5_trial3.png","3","",""
"","2857","image-button-response","52","null","228206","68895b4cc3548521ab78eeca","68895f138c8bdbd0cef77110","672268205351c30413c9837e","4","S100_age8_trial4.png","false","false","https://kisumu-drawings.s3-us-west-1.amazonaws.com/tracings/S100_age8_trial4.png","3","",""
"","2728","image-button-response","53","null","231446","68895b4cc3548521ab78eeca","68895f138c8bdbd0cef77110","672268205351c30413c9837e","2","S21_age5_trial2.png","false","false","https://kisumu-drawings.s3-us-west-1.amazonaws.com/tracings/S21_age5_trial2.png","3","",""
"","2443","image-button-response","54","null","234390","68895b4cc3548521ab78eeca","68895f138c8bdbd0cef77110","672268205351c30413c9837e","1","S61_age7_trial1.png","false","false","https://kisumu-drawings.s3-us-west-1.amazonaws.com/tracings/S61_age7_trial1.png","5","",""
"","3306","image-button-response","55","null","238198","68895b4cc3548521ab78eeca","68895f138c8bdbd0cef77110","672268205351c30413c9837e","4","S101_age9_trial4.png","false","false","https://kisumu-drawings.s3-us-west-1.amazonaws.com/tracings/S101_age9_trial4.png","4","",""
"","5283","image-button-response","56","null","243982","68895b4cc3548521ab78eeca","68895f138c8bdbd0cef77110","672268205351c30413c9837e","2","S102_age9_trial2.png","false","false","https://kisumu-drawings.s3-us-west-1.amazonaws.com/tracings/S102_age9_trial2.png","3","",""
"","5858","image-button-response","57","null","250342","68895b4cc3548521ab78eeca","68895f138c8bdbd0cef77110","672268205351c30413c9837e","2","S11_age4_trial2.png","false","false","https://kisumu-drawings.s3-us-west-1.amazonaws.com/tracings/S11_age4_trial2.png","1","",""
"","2314","image-button-response","58","null","253166","68895b4cc3548521ab78eeca","68895f138c8bdbd0cef77110","672268205351c30413c9837e","1","S102_age9_trial1.png","false","false","https://kisumu-drawings.s3-us-west-1.amazonaws.com/tracings/S102_age9_trial1.png","4","",""
"","1922","image-button-response","59","null","255590","68895b4cc3548521ab78eeca","68895f138c8bdbd0cef77110","672268205351c30413c9837e","4","S61_age7_trial4.png","false","false","https://kisumu-drawings.s3-us-west-1.amazonaws.com/tracings/S61_age7_trial4.png","5","",""
"","2451","image-button-response","60","null","258542","68895b4cc3548521ab78eeca","68895f138c8bdbd0cef77110","672268205351c30413c9837e","3","S11_age4_trial3.png","false","false","https://kisumu-drawings.s3-us-west-1.amazonaws.com/tracings/S11_age4_trial3.png","1","",""
"","2064","image-button-response","61","null","261118","68895b4cc3548521ab78eeca","68895f138c8bdbd0cef77110","672268205351c30413c9837e","3","S42_age6_trial3.png","false","false","https://kisumu-drawings.s3-us-west-1.amazonaws.com/tracings/S42_age6_trial3.png","4","",""
