"view_history","rt","trial_type","trial_index","plugin_version","time_elapsed","study_id","session_id","participant_id","tracing_type","tracing_id","catch_trial","prep_trial","stimulus","response","sketcher_category","response_category"
"[{""page_index"":0,""viewing_time"":173071},{""page_index"":1,""viewing_time"":1531},{""page_index"":2,""viewing_time"":2183},{""page_index"":3,""viewing_time"":2570},{""page_index"":4,""viewing_time"":1897}]","181253","instructions","0","null","181304","68895b4cc3548521ab78eeca","688a6e862c44fe9b411b7e41","6722b6b9cb69415ce7f4c688","","","","","","","",""
"","7180","image-button-response","1","null","189492","68895b4cc3548521ab78eeca","688a6e862c44fe9b411b7e41","6722b6b9cb69415ce7f4c688","5","S50_age6_trial5.png","false","false","https://kisumu-drawings.s3-us-west-1.amazonaws.com/tracings/S50_age6_trial5.png","3","",""
"","14973","image-button-response","2","null","204967","68895b4cc3548521ab78eeca","688a6e862c44fe9b411b7e41","6722b6b9cb69415ce7f4c688","4","S110_age9_trial4.png","false","false","https://kisumu-drawings.s3-us-west-1.amazonaws.com/tracings/S110_age9_trial4.png","3","",""
"","17747","image-button-response","3","null","223217","68895b4cc3548521ab78eeca","688a6e862c44fe9b411b7e41","6722b6b9cb69415ce7f4c688","2","S51_age6_trial2.png","false","false","https://kisumu-drawings.s3-us-west-1.amazonaws.com/tracings/S51_age6_trial2.png","3","",""
"","52700","image-button-response","4","null","276418","68895b4cc3548521ab78eeca","688a6e862c44fe9b411b7e41","6722b6b9cb69415ce7f4c688","3","S88_age8_trial3.png","false","false","https://kisumu-drawings.s3-us-west-1.amazonaws.com/tracings/S88_age8_trial3.png","4","",""
"","35213","image-button-response","5","null","312134","68895b4cc3548521ab78eeca","688a6e862c44fe9b411b7e41","6722b6b9cb69415ce7f4c688","3","S110_age9_trial3.png","false","false","https://kisumu-drawings.s3-us-west-1.amazonaws.com/tracings/S110_age9_trial3.png","3","",""
"","16047","image-button-response","6","null","328684","68895b4cc3548521ab78eeca","688a6e862c44fe9b411b7e41","6722b6b9cb69415ce7f4c688","2","S29_age5_trial2.png","false","false","https://kisumu-drawings.s3-us-west-1.amazonaws.com/tracings/S29_age5_trial2.png","3","",""
"","24085","image-button-response","7","null","353271","68895b4cc3548521ab78eeca","688a6e862c44fe9b411b7e41","6722b6b9cb69415ce7f4c688","1","S89_age8_trial1.png","false","false","https://kisumu-drawings.s3-us-west-1.amazonaws.com/tracings/S89_age8_trial1.png","3","",""
"","20760","image-button-response","8","null","374532","68895b4cc3548521ab78eeca","688a6e862c44fe9b411b7e41","6722b6b9cb69415ce7f4c688","4","S29_age5_trial4.png","false","false","https://kisumu-drawings.s3-us-west-1.amazonaws.com/tracings/S29_age5_trial4.png","1","",""
"","52099","image-button-response","9","null","427133","68895b4cc3548521ab78eeca","688a6e862c44fe9b411b7e41","6722b6b9cb69415ce7f4c688","1","S90_age8_trial1.png","false","false","https://kisumu-drawings.s3-us-west-1.amazonaws.com/tracings/S90_age8_trial1.png","4","",""
"","46932","image-button-response","10","null","474568","68895b4cc3548521ab78eeca","688a6e862c44fe9b411b7e41","6722b6b9cb69415ce7f4c688","3","S69_age7_trial3.png","false","false","https://kisumu-drawings.s3-us-west-1.amazonaws.com/tracings/S69_age7_trial3.png","3","",""
"","37148","image-button-response","11","null","512218","68895b4cc3548521ab78eeca","688a6e862c44fe9b411b7e41","6722b6b9cb69415ce7f4c688","3","S51_age6_trial3.png","false","false","https://kisumu-drawings.s3-us-west-1.amazonaws.com/tracings/S51_age6_trial3.png","1","",""
"","123149","image-button-response","12","null","635868","68895b4cc3548521ab78eeca","688a6e862c44fe9b411b7e41","6722b6b9cb69415ce7f4c688","1","S111_age9_trial1.png","false","false","https://kisumu-drawings.s3-us-west-1.amazonaws.com/tracings/S111_age9_trial1.png","3","",""
"","48434","image-button-response","13","null","684807","68895b4cc3548521ab78eeca","688a6e862c44fe9b411b7e41","6722b6b9cb69415ce7f4c688","5","S111_age9_trial5.png","false","false","https://kisumu-drawings.s3-us-west-1.amazonaws.com/tracings/S111_age9_trial5.png","4","",""
"","11171","image-button-response","14","null","696483","68895b4cc3548521ab78eeca","688a6e862c44fe9b411b7e41","6722b6b9cb69415ce7f4c688","5","S110_age9_trial5.png","false","false","https://kisumu-drawings.s3-us-west-1.amazonaws.com/tracings/S110_age9_trial5.png","3","",""
"","11861","image-button-response","15","null","708847","68895b4cc3548521ab78eeca","688a6e862c44fe9b411b7e41","6722b6b9cb69415ce7f4c688","1","S110_age9_trial1.png","false","false","https://kisumu-drawings.s3-us-west-1.amazonaws.com/tracings/S110_age9_trial1.png","3","",""
"","11949","image-button-response","16","null","721299","68895b4cc3548521ab78eeca","688a6e862c44fe9b411b7e41","6722b6b9cb69415ce7f4c688","1","S51_age6_trial1.png","false","false","https://kisumu-drawings.s3-us-west-1.amazonaws.com/tracings/S51_age6_trial1.png","1","",""
"","9945","image-button-response","17","null","731747","68895b4cc3548521ab78eeca","688a6e862c44fe9b411b7e41","6722b6b9cb69415ce7f4c688","3","S18_age4_trial3.png","false","false","https://kisumu-drawings.s3-us-west-1.amazonaws.com/tracings/S18_age4_trial3.png","1","",""
"","8197","image-button-response","18","null","740447","68895b4cc3548521ab78eeca","688a6e862c44fe9b411b7e41","6722b6b9cb69415ce7f4c688","5","S70_age7_trial5.png","false","false","https://kisumu-drawings.s3-us-west-1.amazonaws.com/tracings/S70_age7_trial5.png","3","",""
"","22397","image-button-response","19","null","763347","68895b4cc3548521ab78eeca","688a6e862c44fe9b411b7e41","6722b6b9cb69415ce7f4c688","4","S111_age9_trial4.png","false","false","https://kisumu-drawings.s3-us-west-1.amazonaws.com/tracings/S111_age9_trial4.png","3","",""
"","13382","image-button-response","20","null","777230","68895b4cc3548521ab78eeca","688a6e862c44fe9b411b7e41","6722b6b9cb69415ce7f4c688","1","S1_age4_trial1.png","false","false","https://kisumu-drawings.s3-us-west-1.amazonaws.com/tracings/S1_age4_trial1.png","1","",""
"","47482","image-button-response","21","null","825214","68895b4cc3548521ab78eeca","688a6e862c44fe9b411b7e41","6722b6b9cb69415ce7f4c688","3","S89_age8_trial3.png","false","false","https://kisumu-drawings.s3-us-west-1.amazonaws.com/tracings/S89_age8_trial3.png","2","",""
"","20711","image-button-response","22","null","846430","68895b4cc3548521ab78eeca","688a6e862c44fe9b411b7e41","6722b6b9cb69415ce7f4c688","5","S29_age5_trial5.png","false","false","https://kisumu-drawings.s3-us-west-1.amazonaws.com/tracings/S29_age5_trial5.png","1","",""
"","13530","image-button-response","23","null","860462","68895b4cc3548521ab78eeca","688a6e862c44fe9b411b7e41","6722b6b9cb69415ce7f4c688","2","S110_age9_trial2.png","false","false","https://kisumu-drawings.s3-us-west-1.amazonaws.com/tracings/S110_age9_trial2.png","3","",""
"","2599","image-button-response","24","null","863566","68895b4cc3548521ab78eeca","688a6e862c44fe9b411b7e41","6722b6b9cb69415ce7f4c688","","","true","false","stimuli/catch_trials/catch_trial.png","0","","1"
"","9079","image-button-response","25","null","873148","68895b4cc3548521ab78eeca","688a6e862c44fe9b411b7e41","6722b6b9cb69415ce7f4c688","1","S50_age6_trial1.png","false","false","https://kisumu-drawings.s3-us-west-1.amazonaws.com/tracings/S50_age6_trial1.png","4","",""
"","18383","image-button-response","26","null","892033","68895b4cc3548521ab78eeca","688a6e862c44fe9b411b7e41","6722b6b9cb69415ce7f4c688","4","S72_age7_trial4.png","false","false","https://kisumu-drawings.s3-us-west-1.amazonaws.com/tracings/S72_age7_trial4.png","3","",""
"","27599","image-button-response","27","null","920135","68895b4cc3548521ab78eeca","688a6e862c44fe9b411b7e41","6722b6b9cb69415ce7f4c688","3","S109_age9_trial3.png","false","false","https://kisumu-drawings.s3-us-west-1.amazonaws.com/tracings/S109_age9_trial3.png","3","",""
"","27160","image-button-response","28","null","947796","68895b4cc3548521ab78eeca","688a6e862c44fe9b411b7e41","6722b6b9cb69415ce7f4c688","4","S50_age6_trial4.png","false","false","https://kisumu-drawings.s3-us-west-1.amazonaws.com/tracings/S50_age6_trial4.png","2","",""
"","22307","image-button-response","29","null","970607","68895b4cc3548521ab78eeca","688a6e862c44fe9b411b7e41","6722b6b9cb69415ce7f4c688","3","S50_age6_trial3.png","false","false","https://kisumu-drawings.s3-us-west-1.amazonaws.com/tracings/S50_age6_trial3.png","3","",""
"","33618","image-button-response","30","null","1004736","68895b4cc3548521ab78eeca","688a6e862c44fe9b411b7e41","6722b6b9cb69415ce7f4c688","1","S69_age7_trial1.png","false","false","https://kisumu-drawings.s3-us-west-1.amazonaws.com/tracings/S69_age7_trial1.png","3","",""
"","44873","image-button-response","31","null","1050116","68895b4cc3548521ab78eeca","688a6e862c44fe9b411b7e41","6722b6b9cb69415ce7f4c688","4","S19_age4_trial4.png","false","false","https://kisumu-drawings.s3-us-west-1.amazonaws.com/tracings/S19_age4_trial4.png","1","",""
"","10552","image-button-response","32","null","1061179","68895b4cc3548521ab78eeca","688a6e862c44fe9b411b7e41","6722b6b9cb69415ce7f4c688","2","S30_age5_trial2.png","false","false","https://kisumu-drawings.s3-us-west-1.amazonaws.com/tracings/S30_age5_trial2.png","3","",""
"","8415","image-button-response","33","null","1070097","68895b4cc3548521ab78eeca","688a6e862c44fe9b411b7e41","6722b6b9cb69415ce7f4c688","3","S29_age5_trial3.png","false","false","https://kisumu-drawings.s3-us-west-1.amazonaws.com/tracings/S29_age5_trial3.png","1","",""
"","14783","image-button-response","34","null","1085382","68895b4cc3548521ab78eeca","688a6e862c44fe9b411b7e41","6722b6b9cb69415ce7f4c688","4","S18_age4_trial4.png","false","false","https://kisumu-drawings.s3-us-west-1.amazonaws.com/tracings/S18_age4_trial4.png","2","",""
"","11077","image-button-response","35","null","1096962","68895b4cc3548521ab78eeca","688a6e862c44fe9b411b7e41","6722b6b9cb69415ce7f4c688","3","S19_age4_trial3.png","false","false","https://kisumu-drawings.s3-us-west-1.amazonaws.com/tracings/S19_age4_trial3.png","1","",""
"","35236","image-button-response","36","null","1132699","68895b4cc3548521ab78eeca","688a6e862c44fe9b411b7e41","6722b6b9cb69415ce7f4c688","5","S88_age8_trial5.png","false","false","https://kisumu-drawings.s3-us-west-1.amazonaws.com/tracings/S88_age8_trial5.png","3","",""
"","18761","image-button-response","37","null","1151961","68895b4cc3548521ab78eeca","688a6e862c44fe9b411b7e41","6722b6b9cb69415ce7f4c688","2","S89_age8_trial2.png","false","false","https://kisumu-drawings.s3-us-west-1.amazonaws.com/tracings/S89_age8_trial2.png","3","",""
"","13600","image-button-response","38","null","1166065","68895b4cc3548521ab78eeca","688a6e862c44fe9b411b7e41","6722b6b9cb69415ce7f4c688","2","S71_age7_trial2.png","false","false","https://kisumu-drawings.s3-us-west-1.amazonaws.com/tracings/S71_age7_trial2.png","3","",""
"","17748","image-button-response","39","null","1184315","68895b4cc3548521ab78eeca","688a6e862c44fe9b411b7e41","6722b6b9cb69415ce7f4c688","4","S51_age6_trial4.png","false","false","https://kisumu-drawings.s3-us-west-1.amazonaws.com/tracings/S51_age6_trial4.png","2","",""
"","15845","image-button-response","40","null","1200661","68895b4cc3548521ab78eeca","688a6e862c44fe9b411b7e41","6722b6b9cb69415ce7f4c688","4","S90_age8_trial4.png","false","false","https://kisumu-drawings.s3-us-west-1.amazonaws.com/tracings/S90_age8_trial4.png","3","",""
"","20509","image-button-response","41","null","1221673","68895b4cc3548521ab78eeca","688a6e862c44fe9b411b7e41","6722b6b9cb69415ce7f4c688","5","S19_age4_trial5.png","false","false","https://kisumu-drawings.s3-us-west-1.amazonaws.com/tracings/S19_age4_trial5.png","1","",""
"","13602","image-button-response","42","null","1235779","68895b4cc3548521ab78eeca","688a6e862c44fe9b411b7e41","6722b6b9cb69415ce7f4c688","2","S1_age4_trial2.png","false","false","https://kisumu-drawings.s3-us-west-1.amazonaws.com/tracings/S1_age4_trial2.png","2","",""
"","21729","image-button-response","43","null","1258011","68895b4cc3548521ab78eeca","688a6e862c44fe9b411b7e41","6722b6b9cb69415ce7f4c688","5","S71_age7_trial5.png","false","false","https://kisumu-drawings.s3-us-west-1.amazonaws.com/tracings/S71_age7_trial5.png","3","",""
"","40818","image-button-response","44","null","1299332","68895b4cc3548521ab78eeca","688a6e862c44fe9b411b7e41","6722b6b9cb69415ce7f4c688","5","S1_age4_trial5.png","false","false","https://kisumu-drawings.s3-us-west-1.amazonaws.com/tracings/S1_age4_trial5.png","1","",""
"","20490","image-button-response","45","null","1320327","68895b4cc3548521ab78eeca","688a6e862c44fe9b411b7e41","6722b6b9cb69415ce7f4c688","2","S70_age7_trial2.png","false","false","https://kisumu-drawings.s3-us-west-1.amazonaws.com/tracings/S70_age7_trial2.png","4","",""
"","31934","image-button-response","46","null","1352763","68895b4cc3548521ab78eeca","688a6e862c44fe9b411b7e41","6722b6b9cb69415ce7f4c688","4","S89_age8_trial4.png","false","false","https://kisumu-drawings.s3-us-west-1.amazonaws.com/tracings/S89_age8_trial4.png","2","",""
"","12164","image-button-response","47","null","1365429","68895b4cc3548521ab78eeca","688a6e862c44fe9b411b7e41","6722b6b9cb69415ce7f4c688","2","S50_age6_trial2.png","false","false","https://kisumu-drawings.s3-us-west-1.amazonaws.com/tracings/S50_age6_trial2.png","2","",""
"","6114","image-button-response","48","null","1372046","68895b4cc3548521ab78eeca","688a6e862c44fe9b411b7e41","6722b6b9cb69415ce7f4c688","2","S109_age9_trial2.png","false","false","https://kisumu-drawings.s3-us-west-1.amazonaws.com/tracings/S109_age9_trial2.png","4","",""
"","11029","image-button-response","49","null","1383577","68895b4cc3548521ab78eeca","688a6e862c44fe9b411b7e41","6722b6b9cb69415ce7f4c688","1","S30_age5_trial1.png","false","false","https://kisumu-drawings.s3-us-west-1.amazonaws.com/tracings/S30_age5_trial1.png","2","",""
"","12017","image-button-response","50","null","1396096","68895b4cc3548521ab78eeca","688a6e862c44fe9b411b7e41","6722b6b9cb69415ce7f4c688","4","S71_age7_trial4.png","false","false","https://kisumu-drawings.s3-us-west-1.amazonaws.com/tracings/S71_age7_trial4.png","2","",""
"","11597","image-button-response","51","null","1408195","68895b4cc3548521ab78eeca","688a6e862c44fe9b411b7e41","6722b6b9cb69415ce7f4c688","5","S89_age8_trial5.png","false","false","https://kisumu-drawings.s3-us-west-1.amazonaws.com/tracings/S89_age8_trial5.png","2","",""
"","5180","image-button-response","52","null","1413877","68895b4cc3548521ab78eeca","688a6e862c44fe9b411b7e41","6722b6b9cb69415ce7f4c688","1","S70_age7_trial1.png","false","false","https://kisumu-drawings.s3-us-west-1.amazonaws.com/tracings/S70_age7_trial1.png","2","",""
"","4733","image-button-response","53","null","1419112","68895b4cc3548521ab78eeca","688a6e862c44fe9b411b7e41","6722b6b9cb69415ce7f4c688","5","S30_age5_trial5.png","false","false","https://kisumu-drawings.s3-us-west-1.amazonaws.com/tracings/S30_age5_trial5.png","1","",""
"","5494","image-button-response","54","null","1425110","68895b4cc3548521ab78eeca","688a6e862c44fe9b411b7e41","6722b6b9cb69415ce7f4c688","5","S49_age6_trial5.png","false","false","https://kisumu-drawings.s3-us-west-1.amazonaws.com/tracings/S49_age6_trial5.png","2","",""
"","6983","image-button-response","55","null","1432594","68895b4cc3548521ab78eeca","688a6e862c44fe9b411b7e41","6722b6b9cb69415ce7f4c688","3","S70_age7_trial3.png","false","false","https://kisumu-drawings.s3-us-west-1.amazonaws.com/tracings/S70_age7_trial3.png","3","",""
"","13666","image-button-response","56","null","1446762","68895b4cc3548521ab78eeca","688a6e862c44fe9b411b7e41","6722b6b9cb69415ce7f4c688","1","S19_age4_trial1.png","false","false","https://kisumu-drawings.s3-us-west-1.amazonaws.com/tracings/S19_age4_trial1.png","1","",""
"","9463","image-button-response","57","null","1456729","68895b4cc3548521ab78eeca","688a6e862c44fe9b411b7e41","6722b6b9cb69415ce7f4c688","3","S30_age5_trial3.png","false","false","https://kisumu-drawings.s3-us-west-1.amazonaws.com/tracings/S30_age5_trial3.png","1","",""
"","4064","image-button-response","58","null","1461296","68895b4cc3548521ab78eeca","688a6e862c44fe9b411b7e41","6722b6b9cb69415ce7f4c688","1","S29_age5_trial1.png","false","false","https://kisumu-drawings.s3-us-west-1.amazonaws.com/tracings/S29_age5_trial1.png","1","",""
"","5730","image-button-response","59","null","1467529","68895b4cc3548521ab78eeca","688a6e862c44fe9b411b7e41","6722b6b9cb69415ce7f4c688","4","S30_age5_trial4.png","false","false","https://kisumu-drawings.s3-us-west-1.amazonaws.com/tracings/S30_age5_trial4.png","1","",""
"","7382","image-button-response","60","null","1475412","68895b4cc3548521ab78eeca","688a6e862c44fe9b411b7e41","6722b6b9cb69415ce7f4c688","2","S90_age8_trial2.png","false","false","https://kisumu-drawings.s3-us-west-1.amazonaws.com/tracings/S90_age8_trial2.png","3","",""
"","8795","image-button-response","61","null","1484710","68895b4cc3548521ab78eeca","688a6e862c44fe9b411b7e41","6722b6b9cb69415ce7f4c688","2","S20_age4_trial2.png","false","false","https://kisumu-drawings.s3-us-west-1.amazonaws.com/tracings/S20_age4_trial2.png","1","",""
