"view_history","rt","trial_type","trial_index","plugin_version","time_elapsed","study_id","session_id","participant_id","tracing_type","tracing_id","catch_trial","prep_trial","stimulus","response","sketcher_category","response_category"
"[{""page_index"":0,""viewing_time"":26434},{""page_index"":1,""viewing_time"":13616},{""page_index"":2,""viewing_time"":17716},{""page_index"":3,""viewing_time"":16814},{""page_index"":4,""viewing_time"":17142}]","91723","instructions","0","null","91753","68895b4cc3548521ab78eeca","6889e63300b29bb26b5ba7a5","673e5a3412198a5e62837745","","","","","","","",""
"","8100","image-button-response","1","null","100868","68895b4cc3548521ab78eeca","6889e63300b29bb26b5ba7a5","673e5a3412198a5e62837745","1","S45_age6_trial1.png","false","false","https://kisumu-drawings.s3-us-west-1.amazonaws.com/tracings/S45_age6_trial1.png","4","",""
"","2640","image-button-response","2","null","104025","68895b4cc3548521ab78eeca","6889e63300b29bb26b5ba7a5","673e5a3412198a5e62837745","2","S14_age4_trial2.png","false","false","https://kisumu-drawings.s3-us-west-1.amazonaws.com/tracings/S14_age4_trial2.png","4","",""
"","1645","image-button-response","3","null","106191","68895b4cc3548521ab78eeca","6889e63300b29bb26b5ba7a5","673e5a3412198a5e62837745","1","S14_age4_trial1.png","false","false","https://kisumu-drawings.s3-us-west-1.amazonaws.com/tracings/S14_age4_trial1.png","3","",""
"","786","image-button-response","4","null","107491","68895b4cc3548521ab78eeca","6889e63300b29bb26b5ba7a5","673e5a3412198a5e62837745","2","S26_age5_trial2.png","false","false","https://kisumu-drawings.s3-us-west-1.amazonaws.com/tracings/S26_age5_trial2.png","4","",""
"","1173","image-button-response","5","null","109169","68895b4cc3548521ab78eeca","6889e63300b29bb26b5ba7a5","673e5a3412198a5e62837745","4","S45_age6_trial4.png","false","false","https://kisumu-drawings.s3-us-west-1.amazonaws.com/tracings/S45_age6_trial4.png","3","",""
"","480","image-button-response","6","null","110170","68895b4cc3548521ab78eeca","6889e63300b29bb26b5ba7a5","673e5a3412198a5e62837745","1","S66_age7_trial1.png","false","false","https://kisumu-drawings.s3-us-west-1.amazonaws.com/tracings/S66_age7_trial1.png","4","",""
"","583","image-button-response","7","null","111264","68895b4cc3548521ab78eeca","6889e63300b29bb26b5ba7a5","673e5a3412198a5e62837745","3","S13_age4_trial3.png","false","false","https://kisumu-drawings.s3-us-west-1.amazonaws.com/tracings/S13_age4_trial3.png","5","",""
"","541","image-button-response","8","null","112315","68895b4cc3548521ab78eeca","6889e63300b29bb26b5ba7a5","673e5a3412198a5e62837745","1","S84_age8_trial1.png","false","false","https://kisumu-drawings.s3-us-west-1.amazonaws.com/tracings/S84_age8_trial1.png","3","",""
"","472","image-button-response","9","null","113309","68895b4cc3548521ab78eeca","6889e63300b29bb26b5ba7a5","673e5a3412198a5e62837745","1","S25_age5_trial1.png","false","false","https://kisumu-drawings.s3-us-west-1.amazonaws.com/tracings/S25_age5_trial1.png","4","",""
"","449","image-button-response","10","null","114271","68895b4cc3548521ab78eeca","6889e63300b29bb26b5ba7a5","673e5a3412198a5e62837745","2","S15_age4_trial2.png","false","false","https://kisumu-drawings.s3-us-west-1.amazonaws.com/tracings/S15_age4_trial2.png","3","",""
"","457","image-button-response","11","null","115237","68895b4cc3548521ab78eeca","6889e63300b29bb26b5ba7a5","673e5a3412198a5e62837745","2","S105_age9_trial2.png","false","false","https://kisumu-drawings.s3-us-west-1.amazonaws.com/tracings/S105_age9_trial2.png","4","",""
"","499","image-button-response","12","null","116257","68895b4cc3548521ab78eeca","6889e63300b29bb26b5ba7a5","673e5a3412198a5e62837745","5","S25_age5_trial5.png","false","false","https://kisumu-drawings.s3-us-west-1.amazonaws.com/tracings/S25_age5_trial5.png","3","",""
"","483","image-button-response","13","null","117254","68895b4cc3548521ab78eeca","6889e63300b29bb26b5ba7a5","673e5a3412198a5e62837745","5","S14_age4_trial5.png","false","false","https://kisumu-drawings.s3-us-west-1.amazonaws.com/tracings/S14_age4_trial5.png","4","",""
"","553","image-button-response","14","null","118324","68895b4cc3548521ab78eeca","6889e63300b29bb26b5ba7a5","673e5a3412198a5e62837745","1","S105_age9_trial1.png","false","false","https://kisumu-drawings.s3-us-west-1.amazonaws.com/tracings/S105_age9_trial1.png","4","",""
"","503","image-button-response","15","null","119340","68895b4cc3548521ab78eeca","6889e63300b29bb26b5ba7a5","673e5a3412198a5e62837745","2","S85_age8_trial2.png","false","false","https://kisumu-drawings.s3-us-west-1.amazonaws.com/tracings/S85_age8_trial2.png","3","",""
"","1238","image-button-response","16","null","121095","68895b4cc3548521ab78eeca","6889e63300b29bb26b5ba7a5","673e5a3412198a5e62837745","4","S14_age4_trial4.png","false","false","https://kisumu-drawings.s3-us-west-1.amazonaws.com/tracings/S14_age4_trial4.png","2","",""
"","379","image-button-response","17","null","121980","68895b4cc3548521ab78eeca","6889e63300b29bb26b5ba7a5","673e5a3412198a5e62837745","3","S106_age9_trial3.png","false","false","https://kisumu-drawings.s3-us-west-1.amazonaws.com/tracings/S106_age9_trial3.png","3","",""
"","558","image-button-response","18","null","123065","68895b4cc3548521ab78eeca","6889e63300b29bb26b5ba7a5","673e5a3412198a5e62837745","4","S46_age6_trial4.png","false","false","https://kisumu-drawings.s3-us-west-1.amazonaws.com/tracings/S46_age6_trial4.png","3","",""
"","425","image-button-response","19","null","123998","68895b4cc3548521ab78eeca","6889e63300b29bb26b5ba7a5","673e5a3412198a5e62837745","2","S25_age5_trial2.png","false","false","https://kisumu-drawings.s3-us-west-1.amazonaws.com/tracings/S25_age5_trial2.png","3","",""
"","388","image-button-response","20","null","124892","68895b4cc3548521ab78eeca","6889e63300b29bb26b5ba7a5","673e5a3412198a5e62837745","","","true","false","stimuli/catch_trials/catch_trial.png","2","","3"
"","468","image-button-response","21","null","125864","68895b4cc3548521ab78eeca","6889e63300b29bb26b5ba7a5","673e5a3412198a5e62837745","3","S45_age6_trial3.png","false","false","https://kisumu-drawings.s3-us-west-1.amazonaws.com/tracings/S45_age6_trial3.png","3","",""
"","441","image-button-response","22","null","126811","68895b4cc3548521ab78eeca","6889e63300b29bb26b5ba7a5","673e5a3412198a5e62837745","4","S15_age4_trial4.png","false","false","https://kisumu-drawings.s3-us-west-1.amazonaws.com/tracings/S15_age4_trial4.png","4","",""
"","418","image-button-response","23","null","127736","68895b4cc3548521ab78eeca","6889e63300b29bb26b5ba7a5","673e5a3412198a5e62837745","2","S65_age7_trial2.png","false","false","https://kisumu-drawings.s3-us-west-1.amazonaws.com/tracings/S65_age7_trial2.png","3","",""
"","1110","image-button-response","24","null","129356","68895b4cc3548521ab78eeca","6889e63300b29bb26b5ba7a5","673e5a3412198a5e62837745","3","S46_age6_trial3.png","false","false","https://kisumu-drawings.s3-us-west-1.amazonaws.com/tracings/S46_age6_trial3.png","4","",""
"","523","image-button-response","25","null","130388","68895b4cc3548521ab78eeca","6889e63300b29bb26b5ba7a5","673e5a3412198a5e62837745","4","S85_age8_trial4.png","false","false","https://kisumu-drawings.s3-us-west-1.amazonaws.com/tracings/S85_age8_trial4.png","3","",""
"","465","image-button-response","26","null","131363","68895b4cc3548521ab78eeca","6889e63300b29bb26b5ba7a5","673e5a3412198a5e62837745","4","S106_age9_trial4.png","false","false","https://kisumu-drawings.s3-us-west-1.amazonaws.com/tracings/S106_age9_trial4.png","3","",""
"","543","image-button-response","27","null","132418","68895b4cc3548521ab78eeca","6889e63300b29bb26b5ba7a5","673e5a3412198a5e62837745","3","S65_age7_trial3.png","false","false","https://kisumu-drawings.s3-us-west-1.amazonaws.com/tracings/S65_age7_trial3.png","4","",""
"","469","image-button-response","28","null","133402","68895b4cc3548521ab78eeca","6889e63300b29bb26b5ba7a5","673e5a3412198a5e62837745","4","S84_age8_trial4.png","false","false","https://kisumu-drawings.s3-us-west-1.amazonaws.com/tracings/S84_age8_trial4.png","3","",""
"","414","image-button-response","29","null","134334","68895b4cc3548521ab78eeca","6889e63300b29bb26b5ba7a5","673e5a3412198a5e62837745","3","S85_age8_trial3.png","false","false","https://kisumu-drawings.s3-us-west-1.amazonaws.com/tracings/S85_age8_trial3.png","4","",""
"","435","image-button-response","30","null","135280","68895b4cc3548521ab78eeca","6889e63300b29bb26b5ba7a5","673e5a3412198a5e62837745","5","S45_age6_trial5.png","false","false","https://kisumu-drawings.s3-us-west-1.amazonaws.com/tracings/S45_age6_trial5.png","3","",""
"","459","image-button-response","31","null","136243","68895b4cc3548521ab78eeca","6889e63300b29bb26b5ba7a5","673e5a3412198a5e62837745","5","S105_age9_trial5.png","false","false","https://kisumu-drawings.s3-us-west-1.amazonaws.com/tracings/S105_age9_trial5.png","3","",""
"","402","image-button-response","32","null","137157","68895b4cc3548521ab78eeca","6889e63300b29bb26b5ba7a5","673e5a3412198a5e62837745","3","S105_age9_trial3.png","false","false","https://kisumu-drawings.s3-us-west-1.amazonaws.com/tracings/S105_age9_trial3.png","3","",""
"","441","image-button-response","33","null","138104","68895b4cc3548521ab78eeca","6889e63300b29bb26b5ba7a5","673e5a3412198a5e62837745","3","S84_age8_trial3.png","false","false","https://kisumu-drawings.s3-us-west-1.amazonaws.com/tracings/S84_age8_trial3.png","3","",""
"","617","image-button-response","34","null","139226","68895b4cc3548521ab78eeca","6889e63300b29bb26b5ba7a5","673e5a3412198a5e62837745","4","S25_age5_trial4.png","false","false","https://kisumu-drawings.s3-us-west-1.amazonaws.com/tracings/S25_age5_trial4.png","4","",""
"","411","image-button-response","35","null","140145","68895b4cc3548521ab78eeca","6889e63300b29bb26b5ba7a5","673e5a3412198a5e62837745","1","S26_age5_trial1.png","false","false","https://kisumu-drawings.s3-us-west-1.amazonaws.com/tracings/S26_age5_trial1.png","3","",""
"","545","image-button-response","36","null","141198","68895b4cc3548521ab78eeca","6889e63300b29bb26b5ba7a5","673e5a3412198a5e62837745","2","S66_age7_trial2.png","false","false","https://kisumu-drawings.s3-us-west-1.amazonaws.com/tracings/S66_age7_trial2.png","3","",""
"","457","image-button-response","37","null","142175","68895b4cc3548521ab78eeca","6889e63300b29bb26b5ba7a5","673e5a3412198a5e62837745","1","S46_age6_trial1.png","false","false","https://kisumu-drawings.s3-us-west-1.amazonaws.com/tracings/S46_age6_trial1.png","3","",""
"","596","image-button-response","38","null","143277","68895b4cc3548521ab78eeca","6889e63300b29bb26b5ba7a5","673e5a3412198a5e62837745","3","S66_age7_trial3.png","false","false","https://kisumu-drawings.s3-us-west-1.amazonaws.com/tracings/S66_age7_trial3.png","3","",""
"","423","image-button-response","39","null","144220","68895b4cc3548521ab78eeca","6889e63300b29bb26b5ba7a5","673e5a3412198a5e62837745","4","S65_age7_trial4.png","false","false","https://kisumu-drawings.s3-us-west-1.amazonaws.com/tracings/S65_age7_trial4.png","3","",""
"","613","image-button-response","40","null","145347","68895b4cc3548521ab78eeca","6889e63300b29bb26b5ba7a5","673e5a3412198a5e62837745","3","S14_age4_trial3.png","false","false","https://kisumu-drawings.s3-us-west-1.amazonaws.com/tracings/S14_age4_trial3.png","3","",""
"","484","image-button-response","41","null","146342","68895b4cc3548521ab78eeca","6889e63300b29bb26b5ba7a5","673e5a3412198a5e62837745","2","S106_age9_trial2.png","false","false","https://kisumu-drawings.s3-us-west-1.amazonaws.com/tracings/S106_age9_trial2.png","3","",""
"","438","image-button-response","42","null","147290","68895b4cc3548521ab78eeca","6889e63300b29bb26b5ba7a5","673e5a3412198a5e62837745","1","S65_age7_trial1.png","false","false","https://kisumu-drawings.s3-us-west-1.amazonaws.com/tracings/S65_age7_trial1.png","3","",""
"","186","image-button-response","43","null","147984","68895b4cc3548521ab78eeca","6889e63300b29bb26b5ba7a5","673e5a3412198a5e62837745","3","S25_age5_trial3.png","false","false","https://kisumu-drawings.s3-us-west-1.amazonaws.com/tracings/S25_age5_trial3.png","3","",""
"","285","image-button-response","44","null","148780","68895b4cc3548521ab78eeca","6889e63300b29bb26b5ba7a5","673e5a3412198a5e62837745","5","S106_age9_trial5.png","false","false","https://kisumu-drawings.s3-us-west-1.amazonaws.com/tracings/S106_age9_trial5.png","3","",""
"","388","image-button-response","45","null","149690","68895b4cc3548521ab78eeca","6889e63300b29bb26b5ba7a5","673e5a3412198a5e62837745","2","S45_age6_trial2.png","false","false","https://kisumu-drawings.s3-us-west-1.amazonaws.com/tracings/S45_age6_trial2.png","3","",""
"","947","image-button-response","46","null","151142","68895b4cc3548521ab78eeca","6889e63300b29bb26b5ba7a5","673e5a3412198a5e62837745","1","S85_age8_trial1.png","false","false","https://kisumu-drawings.s3-us-west-1.amazonaws.com/tracings/S85_age8_trial1.png","3","",""
"","392","image-button-response","47","null","152044","68895b4cc3548521ab78eeca","6889e63300b29bb26b5ba7a5","673e5a3412198a5e62837745","5","S84_age8_trial5.png","false","false","https://kisumu-drawings.s3-us-west-1.amazonaws.com/tracings/S84_age8_trial5.png","3","",""
"","574","image-button-response","48","null","153125","68895b4cc3548521ab78eeca","6889e63300b29bb26b5ba7a5","673e5a3412198a5e62837745","1","S106_age9_trial1.png","false","false","https://kisumu-drawings.s3-us-west-1.amazonaws.com/tracings/S106_age9_trial1.png","3","",""
"","911","image-button-response","49","null","154541","68895b4cc3548521ab78eeca","6889e63300b29bb26b5ba7a5","673e5a3412198a5e62837745","4","S105_age9_trial4.png","false","false","https://kisumu-drawings.s3-us-west-1.amazonaws.com/tracings/S105_age9_trial4.png","3","",""
"","600","image-button-response","50","null","155653","68895b4cc3548521ab78eeca","6889e63300b29bb26b5ba7a5","673e5a3412198a5e62837745","1","S15_age4_trial1.png","false","false","https://kisumu-drawings.s3-us-west-1.amazonaws.com/tracings/S15_age4_trial1.png","3","",""
"","562","image-button-response","51","null","156733","68895b4cc3548521ab78eeca","6889e63300b29bb26b5ba7a5","673e5a3412198a5e62837745","2","S84_age8_trial2.png","false","false","https://kisumu-drawings.s3-us-west-1.amazonaws.com/tracings/S84_age8_trial2.png","3","",""
"","15750","image-button-response","52","null","172990","68895b4cc3548521ab78eeca","6889e63300b29bb26b5ba7a5","673e5a3412198a5e62837745","5","S15_age4_trial5.png","false","false","https://kisumu-drawings.s3-us-west-1.amazonaws.com/tracings/S15_age4_trial5.png","3","",""
"","1076","image-button-response","53","null","174576","68895b4cc3548521ab78eeca","6889e63300b29bb26b5ba7a5","673e5a3412198a5e62837745","3","S26_age5_trial3.png","false","false","https://kisumu-drawings.s3-us-west-1.amazonaws.com/tracings/S26_age5_trial3.png","4","",""
"","486","image-button-response","54","null","175580","68895b4cc3548521ab78eeca","6889e63300b29bb26b5ba7a5","673e5a3412198a5e62837745","4","S66_age7_trial4.png","false","false","https://kisumu-drawings.s3-us-west-1.amazonaws.com/tracings/S66_age7_trial4.png","3","",""
"","1128","image-button-response","55","null","177222","68895b4cc3548521ab78eeca","6889e63300b29bb26b5ba7a5","673e5a3412198a5e62837745","5","S66_age7_trial5.png","false","false","https://kisumu-drawings.s3-us-west-1.amazonaws.com/tracings/S66_age7_trial5.png","4","",""
"","514","image-button-response","56","null","178247","68895b4cc3548521ab78eeca","6889e63300b29bb26b5ba7a5","673e5a3412198a5e62837745","5","S65_age7_trial5.png","false","false","https://kisumu-drawings.s3-us-west-1.amazonaws.com/tracings/S65_age7_trial5.png","3","",""
"","1413","image-button-response","57","null","180175","68895b4cc3548521ab78eeca","6889e63300b29bb26b5ba7a5","673e5a3412198a5e62837745","5","S85_age8_trial5.png","false","false","https://kisumu-drawings.s3-us-west-1.amazonaws.com/tracings/S85_age8_trial5.png","3","",""
"","9727","image-button-response","58","null","190419","68895b4cc3548521ab78eeca","6889e63300b29bb26b5ba7a5","673e5a3412198a5e62837745","4","S26_age5_trial4.png","false","false","https://kisumu-drawings.s3-us-west-1.amazonaws.com/tracings/S26_age5_trial4.png","3","",""
"","1643","image-button-response","59","null","192573","68895b4cc3548521ab78eeca","6889e63300b29bb26b5ba7a5","673e5a3412198a5e62837745","2","S46_age6_trial2.png","false","false","https://kisumu-drawings.s3-us-west-1.amazonaws.com/tracings/S46_age6_trial2.png","3","",""
"","956","image-button-response","60","null","194048","68895b4cc3548521ab78eeca","6889e63300b29bb26b5ba7a5","673e5a3412198a5e62837745","5","S46_age6_trial5.png","false","false","https://kisumu-drawings.s3-us-west-1.amazonaws.com/tracings/S46_age6_trial5.png","3","",""
"","1138","image-button-response","61","null","195710","68895b4cc3548521ab78eeca","6889e63300b29bb26b5ba7a5","673e5a3412198a5e62837745","5","S26_age5_trial5.png","false","false","https://kisumu-drawings.s3-us-west-1.amazonaws.com/tracings/S26_age5_trial5.png","3","",""
