"view_history","rt","trial_type","trial_index","plugin_version","time_elapsed","study_id","session_id","participant_id","tracing_type","tracing_id","catch_trial","prep_trial","stimulus","response","sketcher_category","response_category"
"[{""page_index"":0,""viewing_time"":5549},{""page_index"":1,""viewing_time"":4176},{""page_index"":2,""viewing_time"":6960},{""page_index"":3,""viewing_time"":1924},{""page_index"":4,""viewing_time"":2043}]","20652","instructions","0","null","20659","68895b4cc3548521ab78eeca","688a14f2d14c722e8986bb15","675a2864cf3d9d870639c42b","","","","","","","",""
"","6096","image-button-response","1","null","27761","68895b4cc3548521ab78eeca","688a14f2d14c722e8986bb15","675a2864cf3d9d870639c42b","1","S66_age7_trial1.png","false","false","https://kisumu-drawings.s3-us-west-1.amazonaws.com/tracings/S66_age7_trial1.png","5","",""
"","3212","image-button-response","2","null","31476","68895b4cc3548521ab78eeca","688a14f2d14c722e8986bb15","675a2864cf3d9d870639c42b","1","S86_age8_trial1.png","false","false","https://kisumu-drawings.s3-us-west-1.amazonaws.com/tracings/S86_age8_trial1.png","5","",""
"","2277","image-button-response","3","null","34255","68895b4cc3548521ab78eeca","688a14f2d14c722e8986bb15","675a2864cf3d9d870639c42b","","","true","false","stimuli/catch_trials/catch_trial.png","0","","1"
"","35769","image-button-response","4","null","70528","68895b4cc3548521ab78eeca","688a14f2d14c722e8986bb15","675a2864cf3d9d870639c42b","1","S26_age5_trial1.png","false","false","https://kisumu-drawings.s3-us-west-1.amazonaws.com/tracings/S26_age5_trial1.png","5","",""
"","11601","image-button-response","5","null","82631","68895b4cc3548521ab78eeca","688a14f2d14c722e8986bb15","675a2864cf3d9d870639c42b","3","S105_age9_trial3.png","false","false","https://kisumu-drawings.s3-us-west-1.amazonaws.com/tracings/S105_age9_trial3.png","5","",""
"","2244","image-button-response","6","null","85379","68895b4cc3548521ab78eeca","688a14f2d14c722e8986bb15","675a2864cf3d9d870639c42b","5","S106_age9_trial5.png","false","false","https://kisumu-drawings.s3-us-west-1.amazonaws.com/tracings/S106_age9_trial5.png","5","",""
"","2903","image-button-response","7","null","88785","68895b4cc3548521ab78eeca","688a14f2d14c722e8986bb15","675a2864cf3d9d870639c42b","1","S16_age4_trial1.png","false","false","https://kisumu-drawings.s3-us-west-1.amazonaws.com/tracings/S16_age4_trial1.png","4","",""
"","1401","image-button-response","8","null","90689","68895b4cc3548521ab78eeca","688a14f2d14c722e8986bb15","675a2864cf3d9d870639c42b","2","S47_age6_trial2.png","false","false","https://kisumu-drawings.s3-us-west-1.amazonaws.com/tracings/S47_age6_trial2.png","5","",""
"","6303","image-button-response","9","null","97495","68895b4cc3548521ab78eeca","688a14f2d14c722e8986bb15","675a2864cf3d9d870639c42b","5","S46_age6_trial5.png","false","false","https://kisumu-drawings.s3-us-west-1.amazonaws.com/tracings/S46_age6_trial5.png","5","",""
"","1475","image-button-response","10","null","99472","68895b4cc3548521ab78eeca","688a14f2d14c722e8986bb15","675a2864cf3d9d870639c42b","2","S86_age8_trial2.png","false","false","https://kisumu-drawings.s3-us-west-1.amazonaws.com/tracings/S86_age8_trial2.png","5","",""
"","1225","image-button-response","11","null","101200","68895b4cc3548521ab78eeca","688a14f2d14c722e8986bb15","675a2864cf3d9d870639c42b","1","S107_age9_trial1.png","false","false","https://kisumu-drawings.s3-us-west-1.amazonaws.com/tracings/S107_age9_trial1.png","5","",""
"","988","image-button-response","12","null","102690","68895b4cc3548521ab78eeca","688a14f2d14c722e8986bb15","675a2864cf3d9d870639c42b","1","S45_age6_trial1.png","false","false","https://kisumu-drawings.s3-us-west-1.amazonaws.com/tracings/S45_age6_trial1.png","5","",""
"","1606","image-button-response","13","null","104799","68895b4cc3548521ab78eeca","688a14f2d14c722e8986bb15","675a2864cf3d9d870639c42b","3","S66_age7_trial3.png","false","false","https://kisumu-drawings.s3-us-west-1.amazonaws.com/tracings/S66_age7_trial3.png","4","",""
"","1347","image-button-response","14","null","106649","68895b4cc3548521ab78eeca","688a14f2d14c722e8986bb15","675a2864cf3d9d870639c42b","2","S85_age8_trial2.png","false","false","https://kisumu-drawings.s3-us-west-1.amazonaws.com/tracings/S85_age8_trial2.png","5","",""
"","1127","image-button-response","15","null","108278","68895b4cc3548521ab78eeca","688a14f2d14c722e8986bb15","675a2864cf3d9d870639c42b","2","S67_age7_trial2.png","false","false","https://kisumu-drawings.s3-us-west-1.amazonaws.com/tracings/S67_age7_trial2.png","5","",""
"","1884","image-button-response","16","null","110664","68895b4cc3548521ab78eeca","688a14f2d14c722e8986bb15","675a2864cf3d9d870639c42b","5","S16_age4_trial5.png","false","false","https://kisumu-drawings.s3-us-west-1.amazonaws.com/tracings/S16_age4_trial5.png","2","",""
"","1634","image-button-response","17","null","112801","68895b4cc3548521ab78eeca","688a14f2d14c722e8986bb15","675a2864cf3d9d870639c42b","3","S15_age4_trial3.png","false","false","https://kisumu-drawings.s3-us-west-1.amazonaws.com/tracings/S15_age4_trial3.png","2","",""
"","1702","image-button-response","18","null","115005","68895b4cc3548521ab78eeca","688a14f2d14c722e8986bb15","675a2864cf3d9d870639c42b","3","S25_age5_trial3.png","false","false","https://kisumu-drawings.s3-us-west-1.amazonaws.com/tracings/S25_age5_trial3.png","4","",""
"","2487","image-button-response","19","null","117995","68895b4cc3548521ab78eeca","688a14f2d14c722e8986bb15","675a2864cf3d9d870639c42b","4","S26_age5_trial4.png","false","false","https://kisumu-drawings.s3-us-west-1.amazonaws.com/tracings/S26_age5_trial4.png","3","",""
"","2880","image-button-response","20","null","121379","68895b4cc3548521ab78eeca","688a14f2d14c722e8986bb15","675a2864cf3d9d870639c42b","4","S14_age4_trial4.png","false","false","https://kisumu-drawings.s3-us-west-1.amazonaws.com/tracings/S14_age4_trial4.png","3","",""
"","37352","image-button-response","21","null","159234","68895b4cc3548521ab78eeca","688a14f2d14c722e8986bb15","675a2864cf3d9d870639c42b","2","S25_age5_trial2.png","false","false","https://kisumu-drawings.s3-us-west-1.amazonaws.com/tracings/S25_age5_trial2.png","4","",""
"","47555","image-button-response","22","null","207292","68895b4cc3548521ab78eeca","688a14f2d14c722e8986bb15","675a2864cf3d9d870639c42b","5","S14_age4_trial5.png","false","false","https://kisumu-drawings.s3-us-west-1.amazonaws.com/tracings/S14_age4_trial5.png","2","",""
"","5244","image-button-response","23","null","213039","68895b4cc3548521ab78eeca","688a14f2d14c722e8986bb15","675a2864cf3d9d870639c42b","3","S26_age5_trial3.png","false","false","https://kisumu-drawings.s3-us-west-1.amazonaws.com/tracings/S26_age5_trial3.png","5","",""
"","1366","image-button-response","24","null","214907","68895b4cc3548521ab78eeca","688a14f2d14c722e8986bb15","675a2864cf3d9d870639c42b","1","S106_age9_trial1.png","false","false","https://kisumu-drawings.s3-us-west-1.amazonaws.com/tracings/S106_age9_trial1.png","5","",""
"","1181","image-button-response","25","null","216591","68895b4cc3548521ab78eeca","688a14f2d14c722e8986bb15","675a2864cf3d9d870639c42b","3","S46_age6_trial3.png","false","false","https://kisumu-drawings.s3-us-west-1.amazonaws.com/tracings/S46_age6_trial3.png","5","",""
"","1049","image-button-response","26","null","218142","68895b4cc3548521ab78eeca","688a14f2d14c722e8986bb15","675a2864cf3d9d870639c42b","3","S84_age8_trial3.png","false","false","https://kisumu-drawings.s3-us-west-1.amazonaws.com/tracings/S84_age8_trial3.png","5","",""
"","3559","image-button-response","27","null","222204","68895b4cc3548521ab78eeca","688a14f2d14c722e8986bb15","675a2864cf3d9d870639c42b","5","S107_age9_trial5.png","false","false","https://kisumu-drawings.s3-us-west-1.amazonaws.com/tracings/S107_age9_trial5.png","4","",""
"","1147","image-button-response","28","null","223854","68895b4cc3548521ab78eeca","688a14f2d14c722e8986bb15","675a2864cf3d9d870639c42b","4","S67_age7_trial4.png","false","false","https://kisumu-drawings.s3-us-west-1.amazonaws.com/tracings/S67_age7_trial4.png","5","",""
"","1092","image-button-response","29","null","225449","68895b4cc3548521ab78eeca","688a14f2d14c722e8986bb15","675a2864cf3d9d870639c42b","5","S45_age6_trial5.png","false","false","https://kisumu-drawings.s3-us-west-1.amazonaws.com/tracings/S45_age6_trial5.png","4","",""
"","1605","image-button-response","30","null","227557","68895b4cc3548521ab78eeca","688a14f2d14c722e8986bb15","675a2864cf3d9d870639c42b","5","S68_age7_trial5.png","false","false","https://kisumu-drawings.s3-us-west-1.amazonaws.com/tracings/S68_age7_trial5.png","4","",""
"","1732","image-button-response","31","null","229792","68895b4cc3548521ab78eeca","688a14f2d14c722e8986bb15","675a2864cf3d9d870639c42b","2","S17_age4_trial2.png","false","false","https://kisumu-drawings.s3-us-west-1.amazonaws.com/tracings/S17_age4_trial2.png","2","",""
"","1830","image-button-response","32","null","232124","68895b4cc3548521ab78eeca","688a14f2d14c722e8986bb15","675a2864cf3d9d870639c42b","5","S67_age7_trial5.png","false","false","https://kisumu-drawings.s3-us-west-1.amazonaws.com/tracings/S67_age7_trial5.png","5","",""
"","854","image-button-response","33","null","233481","68895b4cc3548521ab78eeca","688a14f2d14c722e8986bb15","675a2864cf3d9d870639c42b","3","S85_age8_trial3.png","false","false","https://kisumu-drawings.s3-us-west-1.amazonaws.com/tracings/S85_age8_trial3.png","5","",""
"","906","image-button-response","34","null","234890","68895b4cc3548521ab78eeca","688a14f2d14c722e8986bb15","675a2864cf3d9d870639c42b","4","S46_age6_trial4.png","false","false","https://kisumu-drawings.s3-us-west-1.amazonaws.com/tracings/S46_age6_trial4.png","5","",""
"","1641","image-button-response","35","null","237034","68895b4cc3548521ab78eeca","688a14f2d14c722e8986bb15","675a2864cf3d9d870639c42b","5","S27_age5_trial5.png","false","false","https://kisumu-drawings.s3-us-west-1.amazonaws.com/tracings/S27_age5_trial5.png","4","",""
"","1387","image-button-response","36","null","238923","68895b4cc3548521ab78eeca","688a14f2d14c722e8986bb15","675a2864cf3d9d870639c42b","1","S65_age7_trial1.png","false","false","https://kisumu-drawings.s3-us-west-1.amazonaws.com/tracings/S65_age7_trial1.png","5","",""
"","2174","image-button-response","37","null","241601","68895b4cc3548521ab78eeca","688a14f2d14c722e8986bb15","675a2864cf3d9d870639c42b","5","S87_age8_trial5.png","false","false","https://kisumu-drawings.s3-us-west-1.amazonaws.com/tracings/S87_age8_trial5.png","4","",""
"","2009","image-button-response","38","null","244113","68895b4cc3548521ab78eeca","688a14f2d14c722e8986bb15","675a2864cf3d9d870639c42b","4","S15_age4_trial4.png","false","false","https://kisumu-drawings.s3-us-west-1.amazonaws.com/tracings/S15_age4_trial4.png","2","",""
"","2458","image-button-response","39","null","247073","68895b4cc3548521ab78eeca","688a14f2d14c722e8986bb15","675a2864cf3d9d870639c42b","2","S16_age4_trial2.png","false","false","https://kisumu-drawings.s3-us-west-1.amazonaws.com/tracings/S16_age4_trial2.png","1","",""
"","2493","image-button-response","40","null","250070","68895b4cc3548521ab78eeca","688a14f2d14c722e8986bb15","675a2864cf3d9d870639c42b","3","S65_age7_trial3.png","false","false","https://kisumu-drawings.s3-us-west-1.amazonaws.com/tracings/S65_age7_trial3.png","5","",""
"","3426","image-button-response","41","null","253999","68895b4cc3548521ab78eeca","688a14f2d14c722e8986bb15","675a2864cf3d9d870639c42b","4","S107_age9_trial4.png","false","false","https://kisumu-drawings.s3-us-west-1.amazonaws.com/tracings/S107_age9_trial4.png","5","",""
"","1629","image-button-response","42","null","256131","68895b4cc3548521ab78eeca","688a14f2d14c722e8986bb15","675a2864cf3d9d870639c42b","3","S47_age6_trial3.png","false","false","https://kisumu-drawings.s3-us-west-1.amazonaws.com/tracings/S47_age6_trial3.png","4","",""
"","1172","image-button-response","43","null","257805","68895b4cc3548521ab78eeca","688a14f2d14c722e8986bb15","675a2864cf3d9d870639c42b","1","S25_age5_trial1.png","false","false","https://kisumu-drawings.s3-us-west-1.amazonaws.com/tracings/S25_age5_trial1.png","4","",""
"","1576","image-button-response","44","null","259884","68895b4cc3548521ab78eeca","688a14f2d14c722e8986bb15","675a2864cf3d9d870639c42b","2","S105_age9_trial2.png","false","false","https://kisumu-drawings.s3-us-west-1.amazonaws.com/tracings/S105_age9_trial2.png","5","",""
"","994","image-button-response","45","null","261381","68895b4cc3548521ab78eeca","688a14f2d14c722e8986bb15","675a2864cf3d9d870639c42b","1","S85_age8_trial1.png","false","false","https://kisumu-drawings.s3-us-west-1.amazonaws.com/tracings/S85_age8_trial1.png","5","",""
"","1690","image-button-response","46","null","263573","68895b4cc3548521ab78eeca","688a14f2d14c722e8986bb15","675a2864cf3d9d870639c42b","2","S26_age5_trial2.png","false","false","https://kisumu-drawings.s3-us-west-1.amazonaws.com/tracings/S26_age5_trial2.png","4","",""
"","1039","image-button-response","47","null","265116","68895b4cc3548521ab78eeca","688a14f2d14c722e8986bb15","675a2864cf3d9d870639c42b","4","S85_age8_trial4.png","false","false","https://kisumu-drawings.s3-us-west-1.amazonaws.com/tracings/S85_age8_trial4.png","4","",""
"","1694","image-button-response","48","null","267313","68895b4cc3548521ab78eeca","688a14f2d14c722e8986bb15","675a2864cf3d9d870639c42b","1","S15_age4_trial1.png","false","false","https://kisumu-drawings.s3-us-west-1.amazonaws.com/tracings/S15_age4_trial1.png","1","",""
"","2880","image-button-response","49","null","270696","68895b4cc3548521ab78eeca","688a14f2d14c722e8986bb15","675a2864cf3d9d870639c42b","4","S25_age5_trial4.png","false","false","https://kisumu-drawings.s3-us-west-1.amazonaws.com/tracings/S25_age5_trial4.png","4","",""
"","1531","image-button-response","50","null","272730","68895b4cc3548521ab78eeca","688a14f2d14c722e8986bb15","675a2864cf3d9d870639c42b","2","S66_age7_trial2.png","false","false","https://kisumu-drawings.s3-us-west-1.amazonaws.com/tracings/S66_age7_trial2.png","3","",""
"","4194","image-button-response","51","null","277426","68895b4cc3548521ab78eeca","688a14f2d14c722e8986bb15","675a2864cf3d9d870639c42b","1","S46_age6_trial1.png","false","false","https://kisumu-drawings.s3-us-west-1.amazonaws.com/tracings/S46_age6_trial1.png","4","",""
"","1643","image-button-response","52","null","279573","68895b4cc3548521ab78eeca","688a14f2d14c722e8986bb15","675a2864cf3d9d870639c42b","3","S106_age9_trial3.png","false","false","https://kisumu-drawings.s3-us-west-1.amazonaws.com/tracings/S106_age9_trial3.png","5","",""
"","908","image-button-response","53","null","280983","68895b4cc3548521ab78eeca","688a14f2d14c722e8986bb15","675a2864cf3d9d870639c42b","2","S46_age6_trial2.png","false","false","https://kisumu-drawings.s3-us-west-1.amazonaws.com/tracings/S46_age6_trial2.png","5","",""
"","1042","image-button-response","54","null","282528","68895b4cc3548521ab78eeca","688a14f2d14c722e8986bb15","675a2864cf3d9d870639c42b","4","S86_age8_trial4.png","false","false","https://kisumu-drawings.s3-us-west-1.amazonaws.com/tracings/S86_age8_trial4.png","4","",""
"","1410","image-button-response","55","null","284441","68895b4cc3548521ab78eeca","688a14f2d14c722e8986bb15","675a2864cf3d9d870639c42b","4","S47_age6_trial4.png","false","false","https://kisumu-drawings.s3-us-west-1.amazonaws.com/tracings/S47_age6_trial4.png","4","",""
"","1175","image-button-response","56","null","286119","68895b4cc3548521ab78eeca","688a14f2d14c722e8986bb15","675a2864cf3d9d870639c42b","2","S106_age9_trial2.png","false","false","https://kisumu-drawings.s3-us-west-1.amazonaws.com/tracings/S106_age9_trial2.png","4","",""
"","1239","image-button-response","57","null","287862","68895b4cc3548521ab78eeca","688a14f2d14c722e8986bb15","675a2864cf3d9d870639c42b","5","S25_age5_trial5.png","false","false","https://kisumu-drawings.s3-us-west-1.amazonaws.com/tracings/S25_age5_trial5.png","4","",""
"","1798","image-button-response","58","null","290162","68895b4cc3548521ab78eeca","688a14f2d14c722e8986bb15","675a2864cf3d9d870639c42b","3","S14_age4_trial3.png","false","false","https://kisumu-drawings.s3-us-west-1.amazonaws.com/tracings/S14_age4_trial3.png","2","",""
"","4957","image-button-response","59","null","295622","68895b4cc3548521ab78eeca","688a14f2d14c722e8986bb15","675a2864cf3d9d870639c42b","4","S108_age9_trial4.png","false","false","https://kisumu-drawings.s3-us-west-1.amazonaws.com/tracings/S108_age9_trial4.png","4","",""
"","71092","image-button-response","60","null","367217","68895b4cc3548521ab78eeca","688a14f2d14c722e8986bb15","675a2864cf3d9d870639c42b","4","S68_age7_trial4.png","false","false","https://kisumu-drawings.s3-us-west-1.amazonaws.com/tracings/S68_age7_trial4.png","3","",""
"","7542","image-button-response","61","null","375261","68895b4cc3548521ab78eeca","688a14f2d14c722e8986bb15","675a2864cf3d9d870639c42b","5","S86_age8_trial5.png","false","false","https://kisumu-drawings.s3-us-west-1.amazonaws.com/tracings/S86_age8_trial5.png","4","",""
