"view_history","rt","trial_type","trial_index","plugin_version","time_elapsed","study_id","session_id","participant_id","tracing_type","tracing_id","catch_trial","prep_trial","stimulus","response","sketcher_category","response_category"
"[{""page_index"":0,""viewing_time"":25919},{""page_index"":1,""viewing_time"":7774},{""page_index"":2,""viewing_time"":17715},{""page_index"":3,""viewing_time"":3730},{""page_index"":4,""viewing_time"":23994}]","79133","instructions","0","null","79164","68895b4cc3548521ab78eeca","688a3d788674ef9c848fcef8","677bdabbdcaf99b4cd8c86a5","","","","","","","",""
"","15109","image-button-response","1","null","95292","68895b4cc3548521ab78eeca","688a3d788674ef9c848fcef8","677bdabbdcaf99b4cd8c86a5","2","S88_age8_trial2.png","false","false","https://kisumu-drawings.s3-us-west-1.amazonaws.com/tracings/S88_age8_trial2.png","4","",""
"","17685","image-button-response","2","null","113487","68895b4cc3548521ab78eeca","688a3d788674ef9c848fcef8","677bdabbdcaf99b4cd8c86a5","2","S50_age6_trial2.png","false","false","https://kisumu-drawings.s3-us-west-1.amazonaws.com/tracings/S50_age6_trial2.png","3","",""
"","16250","image-button-response","3","null","130243","68895b4cc3548521ab78eeca","688a3d788674ef9c848fcef8","677bdabbdcaf99b4cd8c86a5","2","S89_age8_trial2.png","false","false","https://kisumu-drawings.s3-us-west-1.amazonaws.com/tracings/S89_age8_trial2.png","4","",""
"","29565","image-button-response","4","null","160312","68895b4cc3548521ab78eeca","688a3d788674ef9c848fcef8","677bdabbdcaf99b4cd8c86a5","1","S110_age9_trial1.png","false","false","https://kisumu-drawings.s3-us-west-1.amazonaws.com/tracings/S110_age9_trial1.png","4","",""
"","88221","image-button-response","5","null","249051","68895b4cc3548521ab78eeca","688a3d788674ef9c848fcef8","677bdabbdcaf99b4cd8c86a5","2","S69_age7_trial2.png","false","false","https://kisumu-drawings.s3-us-west-1.amazonaws.com/tracings/S69_age7_trial2.png","5","",""
"","38998","image-button-response","6","null","288565","68895b4cc3548521ab78eeca","688a3d788674ef9c848fcef8","677bdabbdcaf99b4cd8c86a5","5","S69_age7_trial5.png","false","false","https://kisumu-drawings.s3-us-west-1.amazonaws.com/tracings/S69_age7_trial5.png","3","",""
"","11062","image-button-response","7","null","300132","68895b4cc3548521ab78eeca","688a3d788674ef9c848fcef8","677bdabbdcaf99b4cd8c86a5","5","S19_age4_trial5.png","false","false","https://kisumu-drawings.s3-us-west-1.amazonaws.com/tracings/S19_age4_trial5.png","2","",""
"","18496","image-button-response","8","null","319136","68895b4cc3548521ab78eeca","688a3d788674ef9c848fcef8","677bdabbdcaf99b4cd8c86a5","5","S88_age8_trial5.png","false","false","https://kisumu-drawings.s3-us-west-1.amazonaws.com/tracings/S88_age8_trial5.png","5","",""
"","53088","image-button-response","9","null","372729","68895b4cc3548521ab78eeca","688a3d788674ef9c848fcef8","677bdabbdcaf99b4cd8c86a5","4","S28_age5_trial4.png","false","false","https://kisumu-drawings.s3-us-west-1.amazonaws.com/tracings/S28_age5_trial4.png","5","",""
"","16075","image-button-response","10","null","389318","68895b4cc3548521ab78eeca","688a3d788674ef9c848fcef8","677bdabbdcaf99b4cd8c86a5","4","S109_age9_trial4.png","false","false","https://kisumu-drawings.s3-us-west-1.amazonaws.com/tracings/S109_age9_trial4.png","5","",""
"","16870","image-button-response","11","null","406693","68895b4cc3548521ab78eeca","688a3d788674ef9c848fcef8","677bdabbdcaf99b4cd8c86a5","1","S17_age4_trial1.png","false","false","https://kisumu-drawings.s3-us-west-1.amazonaws.com/tracings/S17_age4_trial1.png","5","",""
"","21856","image-button-response","12","null","429054","68895b4cc3548521ab78eeca","688a3d788674ef9c848fcef8","677bdabbdcaf99b4cd8c86a5","1","S109_age9_trial1.png","false","false","https://kisumu-drawings.s3-us-west-1.amazonaws.com/tracings/S109_age9_trial1.png","5","",""
"","14204","image-button-response","13","null","443769","68895b4cc3548521ab78eeca","688a3d788674ef9c848fcef8","677bdabbdcaf99b4cd8c86a5","5","S109_age9_trial5.png","false","false","https://kisumu-drawings.s3-us-west-1.amazonaws.com/tracings/S109_age9_trial5.png","5","",""
"","15337","image-button-response","14","null","459620","68895b4cc3548521ab78eeca","688a3d788674ef9c848fcef8","677bdabbdcaf99b4cd8c86a5","4","S88_age8_trial4.png","false","false","https://kisumu-drawings.s3-us-west-1.amazonaws.com/tracings/S88_age8_trial4.png","4","",""
"","7726","image-button-response","15","null","467854","68895b4cc3548521ab78eeca","688a3d788674ef9c848fcef8","677bdabbdcaf99b4cd8c86a5","1","S28_age5_trial1.png","false","false","https://kisumu-drawings.s3-us-west-1.amazonaws.com/tracings/S28_age5_trial1.png","5","",""
"","45580","image-button-response","16","null","513942","68895b4cc3548521ab78eeca","688a3d788674ef9c848fcef8","677bdabbdcaf99b4cd8c86a5","4","S70_age7_trial4.png","false","false","https://kisumu-drawings.s3-us-west-1.amazonaws.com/tracings/S70_age7_trial4.png","5","",""
"","30671","image-button-response","17","null","545129","68895b4cc3548521ab78eeca","688a3d788674ef9c848fcef8","677bdabbdcaf99b4cd8c86a5","5","S70_age7_trial5.png","false","false","https://kisumu-drawings.s3-us-west-1.amazonaws.com/tracings/S70_age7_trial5.png","5","",""
"","13793","image-button-response","18","null","559438","68895b4cc3548521ab78eeca","688a3d788674ef9c848fcef8","677bdabbdcaf99b4cd8c86a5","5","S29_age5_trial5.png","false","false","https://kisumu-drawings.s3-us-west-1.amazonaws.com/tracings/S29_age5_trial5.png","1","",""
"","30062","image-button-response","19","null","590008","68895b4cc3548521ab78eeca","688a3d788674ef9c848fcef8","677bdabbdcaf99b4cd8c86a5","5","S108_age9_trial5.png","false","false","https://kisumu-drawings.s3-us-west-1.amazonaws.com/tracings/S108_age9_trial5.png","5","",""
"","17230","image-button-response","20","null","607745","68895b4cc3548521ab78eeca","688a3d788674ef9c848fcef8","677bdabbdcaf99b4cd8c86a5","1","S70_age7_trial1.png","false","false","https://kisumu-drawings.s3-us-west-1.amazonaws.com/tracings/S70_age7_trial1.png","5","",""
"","18496","image-button-response","21","null","626748","68895b4cc3548521ab78eeca","688a3d788674ef9c848fcef8","677bdabbdcaf99b4cd8c86a5","4","S17_age4_trial4.png","false","false","https://kisumu-drawings.s3-us-west-1.amazonaws.com/tracings/S17_age4_trial4.png","4","",""
"","45175","image-button-response","22","null","672431","68895b4cc3548521ab78eeca","688a3d788674ef9c848fcef8","677bdabbdcaf99b4cd8c86a5","4","S48_age6_trial4.png","false","false","https://kisumu-drawings.s3-us-west-1.amazonaws.com/tracings/S48_age6_trial4.png","3","",""
"","12694","image-button-response","23","null","685631","68895b4cc3548521ab78eeca","688a3d788674ef9c848fcef8","677bdabbdcaf99b4cd8c86a5","1","S29_age5_trial1.png","false","false","https://kisumu-drawings.s3-us-west-1.amazonaws.com/tracings/S29_age5_trial1.png","2","",""
"","30099","image-button-response","24","null","716236","68895b4cc3548521ab78eeca","688a3d788674ef9c848fcef8","677bdabbdcaf99b4cd8c86a5","4","S110_age9_trial4.png","false","false","https://kisumu-drawings.s3-us-west-1.amazonaws.com/tracings/S110_age9_trial4.png","4","",""
"","14767","image-button-response","25","null","731506","68895b4cc3548521ab78eeca","688a3d788674ef9c848fcef8","677bdabbdcaf99b4cd8c86a5","3","S109_age9_trial3.png","false","false","https://kisumu-drawings.s3-us-west-1.amazonaws.com/tracings/S109_age9_trial3.png","5","",""
"","10649","image-button-response","26","null","742672","68895b4cc3548521ab78eeca","688a3d788674ef9c848fcef8","677bdabbdcaf99b4cd8c86a5","3","S28_age5_trial3.png","false","false","https://kisumu-drawings.s3-us-west-1.amazonaws.com/tracings/S28_age5_trial3.png","4","",""
"","13133","image-button-response","27","null","756319","68895b4cc3548521ab78eeca","688a3d788674ef9c848fcef8","677bdabbdcaf99b4cd8c86a5","2","S109_age9_trial2.png","false","false","https://kisumu-drawings.s3-us-west-1.amazonaws.com/tracings/S109_age9_trial2.png","5","",""
"","11707","image-button-response","28","null","768538","68895b4cc3548521ab78eeca","688a3d788674ef9c848fcef8","677bdabbdcaf99b4cd8c86a5","3","S29_age5_trial3.png","false","false","https://kisumu-drawings.s3-us-west-1.amazonaws.com/tracings/S29_age5_trial3.png","1","",""
"","15134","image-button-response","29","null","784178","68895b4cc3548521ab78eeca","688a3d788674ef9c848fcef8","677bdabbdcaf99b4cd8c86a5","3","S18_age4_trial3.png","false","false","https://kisumu-drawings.s3-us-west-1.amazonaws.com/tracings/S18_age4_trial3.png","2","",""
"","16322","image-button-response","30","null","801004","68895b4cc3548521ab78eeca","688a3d788674ef9c848fcef8","677bdabbdcaf99b4cd8c86a5","4","S49_age6_trial4.png","false","false","https://kisumu-drawings.s3-us-west-1.amazonaws.com/tracings/S49_age6_trial4.png","4","",""
"","18730","image-button-response","31","null","820245","68895b4cc3548521ab78eeca","688a3d788674ef9c848fcef8","677bdabbdcaf99b4cd8c86a5","1","S88_age8_trial1.png","false","false","https://kisumu-drawings.s3-us-west-1.amazonaws.com/tracings/S88_age8_trial1.png","5","",""
"","28176","image-button-response","32","null","848929","68895b4cc3548521ab78eeca","688a3d788674ef9c848fcef8","677bdabbdcaf99b4cd8c86a5","4","S69_age7_trial4.png","false","false","https://kisumu-drawings.s3-us-west-1.amazonaws.com/tracings/S69_age7_trial4.png","4","",""
"","60031","image-button-response","33","null","909465","68895b4cc3548521ab78eeca","688a3d788674ef9c848fcef8","677bdabbdcaf99b4cd8c86a5","3","S50_age6_trial3.png","false","false","https://kisumu-drawings.s3-us-west-1.amazonaws.com/tracings/S50_age6_trial3.png","4","",""
"","16517","image-button-response","34","null","926490","68895b4cc3548521ab78eeca","688a3d788674ef9c848fcef8","677bdabbdcaf99b4cd8c86a5","2","S108_age9_trial2.png","false","false","https://kisumu-drawings.s3-us-west-1.amazonaws.com/tracings/S108_age9_trial2.png","4","",""
"","13004","image-button-response","35","null","940003","68895b4cc3548521ab78eeca","688a3d788674ef9c848fcef8","677bdabbdcaf99b4cd8c86a5","1","S48_age6_trial1.png","false","false","https://kisumu-drawings.s3-us-west-1.amazonaws.com/tracings/S48_age6_trial1.png","1","",""
"","13659","image-button-response","36","null","954166","68895b4cc3548521ab78eeca","688a3d788674ef9c848fcef8","677bdabbdcaf99b4cd8c86a5","2","S70_age7_trial2.png","false","false","https://kisumu-drawings.s3-us-west-1.amazonaws.com/tracings/S70_age7_trial2.png","5","",""
"","11676","image-button-response","37","null","966348","68895b4cc3548521ab78eeca","688a3d788674ef9c848fcef8","677bdabbdcaf99b4cd8c86a5","2","S30_age5_trial2.png","false","false","https://kisumu-drawings.s3-us-west-1.amazonaws.com/tracings/S30_age5_trial2.png","2","",""
"","12544","image-button-response","38","null","979405","68895b4cc3548521ab78eeca","688a3d788674ef9c848fcef8","677bdabbdcaf99b4cd8c86a5","3","S87_age8_trial3.png","false","false","https://kisumu-drawings.s3-us-west-1.amazonaws.com/tracings/S87_age8_trial3.png","4","",""
"","18501","image-button-response","39","null","998416","68895b4cc3548521ab78eeca","688a3d788674ef9c848fcef8","677bdabbdcaf99b4cd8c86a5","5","S50_age6_trial5.png","false","false","https://kisumu-drawings.s3-us-west-1.amazonaws.com/tracings/S50_age6_trial5.png","4","",""
"","13080","image-button-response","40","null","1012011","68895b4cc3548521ab78eeca","688a3d788674ef9c848fcef8","677bdabbdcaf99b4cd8c86a5","4","S18_age4_trial4.png","false","false","https://kisumu-drawings.s3-us-west-1.amazonaws.com/tracings/S18_age4_trial4.png","2","",""
"","19933","image-button-response","41","null","1032450","68895b4cc3548521ab78eeca","688a3d788674ef9c848fcef8","677bdabbdcaf99b4cd8c86a5","3","S49_age6_trial3.png","false","false","https://kisumu-drawings.s3-us-west-1.amazonaws.com/tracings/S49_age6_trial3.png","4","",""
"","13261","image-button-response","42","null","1046220","68895b4cc3548521ab78eeca","688a3d788674ef9c848fcef8","677bdabbdcaf99b4cd8c86a5","2","S18_age4_trial2.png","false","false","https://kisumu-drawings.s3-us-west-1.amazonaws.com/tracings/S18_age4_trial2.png","2","",""
"","7451","image-button-response","43","null","1054185","68895b4cc3548521ab78eeca","688a3d788674ef9c848fcef8","677bdabbdcaf99b4cd8c86a5","","","true","false","stimuli/catch_trials/catch_trial.png","0","","1"
"","15496","image-button-response","44","null","1070194","68895b4cc3548521ab78eeca","688a3d788674ef9c848fcef8","677bdabbdcaf99b4cd8c86a5","3","S110_age9_trial3.png","false","false","https://kisumu-drawings.s3-us-west-1.amazonaws.com/tracings/S110_age9_trial3.png","4","",""
"","32038","image-button-response","45","null","1102739","68895b4cc3548521ab78eeca","688a3d788674ef9c848fcef8","677bdabbdcaf99b4cd8c86a5","5","S89_age8_trial5.png","false","false","https://kisumu-drawings.s3-us-west-1.amazonaws.com/tracings/S89_age8_trial5.png","4","",""
"","8550","image-button-response","46","null","1111792","68895b4cc3548521ab78eeca","688a3d788674ef9c848fcef8","677bdabbdcaf99b4cd8c86a5","2","S49_age6_trial2.png","false","false","https://kisumu-drawings.s3-us-west-1.amazonaws.com/tracings/S49_age6_trial2.png","4","",""
"","13514","image-button-response","47","null","1125809","68895b4cc3548521ab78eeca","688a3d788674ef9c848fcef8","677bdabbdcaf99b4cd8c86a5","3","S17_age4_trial3.png","false","false","https://kisumu-drawings.s3-us-west-1.amazonaws.com/tracings/S17_age4_trial3.png","4","",""
"","17161","image-button-response","48","null","1143486","68895b4cc3548521ab78eeca","688a3d788674ef9c848fcef8","677bdabbdcaf99b4cd8c86a5","1","S69_age7_trial1.png","false","false","https://kisumu-drawings.s3-us-west-1.amazonaws.com/tracings/S69_age7_trial1.png","5","",""
"","19388","image-button-response","49","null","1163385","68895b4cc3548521ab78eeca","688a3d788674ef9c848fcef8","677bdabbdcaf99b4cd8c86a5","2","S29_age5_trial2.png","false","false","https://kisumu-drawings.s3-us-west-1.amazonaws.com/tracings/S29_age5_trial2.png","2","",""
"","10875","image-button-response","50","null","1174764","68895b4cc3548521ab78eeca","688a3d788674ef9c848fcef8","677bdabbdcaf99b4cd8c86a5","3","S88_age8_trial3.png","false","false","https://kisumu-drawings.s3-us-west-1.amazonaws.com/tracings/S88_age8_trial3.png","4","",""
"","8858","image-button-response","51","null","1184130","68895b4cc3548521ab78eeca","688a3d788674ef9c848fcef8","677bdabbdcaf99b4cd8c86a5","5","S49_age6_trial5.png","false","false","https://kisumu-drawings.s3-us-west-1.amazonaws.com/tracings/S49_age6_trial5.png","4","",""
"","11114","image-button-response","52","null","1195760","68895b4cc3548521ab78eeca","688a3d788674ef9c848fcef8","677bdabbdcaf99b4cd8c86a5","3","S69_age7_trial3.png","false","false","https://kisumu-drawings.s3-us-west-1.amazonaws.com/tracings/S69_age7_trial3.png","5","",""
"","9856","image-button-response","53","null","1206125","68895b4cc3548521ab78eeca","688a3d788674ef9c848fcef8","677bdabbdcaf99b4cd8c86a5","4","S27_age5_trial4.png","false","false","https://kisumu-drawings.s3-us-west-1.amazonaws.com/tracings/S27_age5_trial4.png","3","",""
"","6926","image-button-response","54","null","1213567","68895b4cc3548521ab78eeca","688a3d788674ef9c848fcef8","677bdabbdcaf99b4cd8c86a5","4","S87_age8_trial4.png","false","false","https://kisumu-drawings.s3-us-west-1.amazonaws.com/tracings/S87_age8_trial4.png","3","",""
"","18645","image-button-response","55","null","1232723","68895b4cc3548521ab78eeca","688a3d788674ef9c848fcef8","677bdabbdcaf99b4cd8c86a5","2","S19_age4_trial2.png","false","false","https://kisumu-drawings.s3-us-west-1.amazonaws.com/tracings/S19_age4_trial2.png","2","",""
"","13913","image-button-response","56","null","1247144","68895b4cc3548521ab78eeca","688a3d788674ef9c848fcef8","677bdabbdcaf99b4cd8c86a5","3","S70_age7_trial3.png","false","false","https://kisumu-drawings.s3-us-west-1.amazonaws.com/tracings/S70_age7_trial3.png","4","",""
"","10390","image-button-response","57","null","1258042","68895b4cc3548521ab78eeca","688a3d788674ef9c848fcef8","677bdabbdcaf99b4cd8c86a5","5","S30_age5_trial5.png","false","false","https://kisumu-drawings.s3-us-west-1.amazonaws.com/tracings/S30_age5_trial5.png","2","",""
"","19171","image-button-response","58","null","1277724","68895b4cc3548521ab78eeca","688a3d788674ef9c848fcef8","677bdabbdcaf99b4cd8c86a5","1","S87_age8_trial1.png","false","false","https://kisumu-drawings.s3-us-west-1.amazonaws.com/tracings/S87_age8_trial1.png","5","",""
"","9547","image-button-response","59","null","1287778","68895b4cc3548521ab78eeca","688a3d788674ef9c848fcef8","677bdabbdcaf99b4cd8c86a5","5","S18_age4_trial5.png","false","false","https://kisumu-drawings.s3-us-west-1.amazonaws.com/tracings/S18_age4_trial5.png","1","",""
"","11946","image-button-response","60","null","1300238","68895b4cc3548521ab78eeca","688a3d788674ef9c848fcef8","677bdabbdcaf99b4cd8c86a5","1","S18_age4_trial1.png","false","false","https://kisumu-drawings.s3-us-west-1.amazonaws.com/tracings/S18_age4_trial1.png","3","",""
"","17599","image-button-response","61","null","1318352","68895b4cc3548521ab78eeca","688a3d788674ef9c848fcef8","677bdabbdcaf99b4cd8c86a5","1","S49_age6_trial1.png","false","false","https://kisumu-drawings.s3-us-west-1.amazonaws.com/tracings/S49_age6_trial1.png","5","",""
