"view_history","rt","trial_type","trial_index","plugin_version","time_elapsed","study_id","session_id","participant_id","tracing_type","tracing_id","catch_trial","prep_trial","stimulus","response","sketcher_category","response_category"
"[{""page_index"":0,""viewing_time"":3768},{""page_index"":1,""viewing_time"":7229},{""page_index"":2,""viewing_time"":15339},{""page_index"":3,""viewing_time"":3438},{""page_index"":4,""viewing_time"":2648}]","32422","instructions","0","null","32438","68895b4cc3548521ab78eeca","6889d64e1afed15cd4ee6e3c","67837959a1ccc1627479fb36","","","","","","","",""
"","3167","image-button-response","1","null","36615","68895b4cc3548521ab78eeca","6889d64e1afed15cd4ee6e3c","67837959a1ccc1627479fb36","2","S65_age7_trial2.png","false","false","https://kisumu-drawings.s3-us-west-1.amazonaws.com/tracings/S65_age7_trial2.png","5","",""
"","3031","image-button-response","2","null","40161","68895b4cc3548521ab78eeca","6889d64e1afed15cd4ee6e3c","67837959a1ccc1627479fb36","1","S23_age5_trial1.png","false","false","https://kisumu-drawings.s3-us-west-1.amazonaws.com/tracings/S23_age5_trial1.png","5","",""
"","4384","image-button-response","3","null","45054","68895b4cc3548521ab78eeca","6889d64e1afed15cd4ee6e3c","67837959a1ccc1627479fb36","5","S66_age7_trial5.png","false","false","https://kisumu-drawings.s3-us-west-1.amazonaws.com/tracings/S66_age7_trial5.png","5","",""
"","1181","image-button-response","4","null","46741","68895b4cc3548521ab78eeca","6889d64e1afed15cd4ee6e3c","67837959a1ccc1627479fb36","3","S103_age9_trial3.png","false","false","https://kisumu-drawings.s3-us-west-1.amazonaws.com/tracings/S103_age9_trial3.png","5","",""
"","1100","image-button-response","5","null","48354","68895b4cc3548521ab78eeca","6889d64e1afed15cd4ee6e3c","67837959a1ccc1627479fb36","3","S13_age4_trial3.png","false","false","https://kisumu-drawings.s3-us-west-1.amazonaws.com/tracings/S13_age4_trial3.png","5","",""
"","1095","image-button-response","6","null","49953","68895b4cc3548521ab78eeca","6889d64e1afed15cd4ee6e3c","67837959a1ccc1627479fb36","2","S45_age6_trial2.png","false","false","https://kisumu-drawings.s3-us-west-1.amazonaws.com/tracings/S45_age6_trial2.png","5","",""
"","1562","image-button-response","7","null","52028","68895b4cc3548521ab78eeca","6889d64e1afed15cd4ee6e3c","67837959a1ccc1627479fb36","5","S65_age7_trial5.png","false","false","https://kisumu-drawings.s3-us-west-1.amazonaws.com/tracings/S65_age7_trial5.png","5","",""
"","24841","image-button-response","8","null","77377","68895b4cc3548521ab78eeca","6889d64e1afed15cd4ee6e3c","67837959a1ccc1627479fb36","2","S64_age7_trial2.png","false","false","https://kisumu-drawings.s3-us-west-1.amazonaws.com/tracings/S64_age7_trial2.png","5","",""
"","2356","image-button-response","9","null","80243","68895b4cc3548521ab78eeca","6889d64e1afed15cd4ee6e3c","67837959a1ccc1627479fb36","5","S103_age9_trial5.png","false","false","https://kisumu-drawings.s3-us-west-1.amazonaws.com/tracings/S103_age9_trial5.png","5","",""
"","1358","image-button-response","10","null","82111","68895b4cc3548521ab78eeca","6889d64e1afed15cd4ee6e3c","67837959a1ccc1627479fb36","2","S104_age9_trial2.png","false","false","https://kisumu-drawings.s3-us-west-1.amazonaws.com/tracings/S104_age9_trial2.png","5","",""
"","1495","image-button-response","11","null","84114","68895b4cc3548521ab78eeca","6889d64e1afed15cd4ee6e3c","67837959a1ccc1627479fb36","1","S104_age9_trial1.png","false","false","https://kisumu-drawings.s3-us-west-1.amazonaws.com/tracings/S104_age9_trial1.png","5","",""
"","1133","image-button-response","12","null","85754","68895b4cc3548521ab78eeca","6889d64e1afed15cd4ee6e3c","67837959a1ccc1627479fb36","1","S45_age6_trial1.png","false","false","https://kisumu-drawings.s3-us-west-1.amazonaws.com/tracings/S45_age6_trial1.png","5","",""
"","5077","image-button-response","13","null","91346","68895b4cc3548521ab78eeca","6889d64e1afed15cd4ee6e3c","67837959a1ccc1627479fb36","2","S23_age5_trial2.png","false","false","https://kisumu-drawings.s3-us-west-1.amazonaws.com/tracings/S23_age5_trial2.png","3","",""
"","1468","image-button-response","14","null","93321","68895b4cc3548521ab78eeca","6889d64e1afed15cd4ee6e3c","67837959a1ccc1627479fb36","3","S105_age9_trial3.png","false","false","https://kisumu-drawings.s3-us-west-1.amazonaws.com/tracings/S105_age9_trial3.png","5","",""
"","1352","image-button-response","15","null","95182","68895b4cc3548521ab78eeca","6889d64e1afed15cd4ee6e3c","67837959a1ccc1627479fb36","5","S104_age9_trial5.png","false","false","https://kisumu-drawings.s3-us-west-1.amazonaws.com/tracings/S104_age9_trial5.png","5","",""
"","2174","image-button-response","16","null","97860","68895b4cc3548521ab78eeca","6889d64e1afed15cd4ee6e3c","67837959a1ccc1627479fb36","1","S14_age4_trial1.png","false","false","https://kisumu-drawings.s3-us-west-1.amazonaws.com/tracings/S14_age4_trial1.png","4","",""
"","2095","image-button-response","17","null","100460","68895b4cc3548521ab78eeca","6889d64e1afed15cd4ee6e3c","67837959a1ccc1627479fb36","4","S24_age5_trial4.png","false","false","https://kisumu-drawings.s3-us-west-1.amazonaws.com/tracings/S24_age5_trial4.png","4","",""
"","1615","image-button-response","18","null","102586","68895b4cc3548521ab78eeca","6889d64e1afed15cd4ee6e3c","67837959a1ccc1627479fb36","3","S45_age6_trial3.png","false","false","https://kisumu-drawings.s3-us-west-1.amazonaws.com/tracings/S45_age6_trial3.png","5","",""
"","1597","image-button-response","19","null","104692","68895b4cc3548521ab78eeca","6889d64e1afed15cd4ee6e3c","67837959a1ccc1627479fb36","5","S84_age8_trial5.png","false","false","https://kisumu-drawings.s3-us-west-1.amazonaws.com/tracings/S84_age8_trial5.png","5","",""
"","3051","image-button-response","20","null","108251","68895b4cc3548521ab78eeca","6889d64e1afed15cd4ee6e3c","67837959a1ccc1627479fb36","4","S45_age6_trial4.png","false","false","https://kisumu-drawings.s3-us-west-1.amazonaws.com/tracings/S45_age6_trial4.png","4","",""
"","2760","image-button-response","21","null","111514","68895b4cc3548521ab78eeca","6889d64e1afed15cd4ee6e3c","67837959a1ccc1627479fb36","5","S43_age6_trial5.png","false","false","https://kisumu-drawings.s3-us-west-1.amazonaws.com/tracings/S43_age6_trial5.png","5","",""
"","1006","image-button-response","22","null","113026","68895b4cc3548521ab78eeca","6889d64e1afed15cd4ee6e3c","67837959a1ccc1627479fb36","1","S63_age7_trial1.png","false","false","https://kisumu-drawings.s3-us-west-1.amazonaws.com/tracings/S63_age7_trial1.png","5","",""
"","3400","image-button-response","23","null","116937","68895b4cc3548521ab78eeca","6889d64e1afed15cd4ee6e3c","67837959a1ccc1627479fb36","5","S12_age4_trial5.png","false","false","https://kisumu-drawings.s3-us-west-1.amazonaws.com/tracings/S12_age4_trial5.png","5","",""
"","8267","image-button-response","24","null","125715","68895b4cc3548521ab78eeca","6889d64e1afed15cd4ee6e3c","67837959a1ccc1627479fb36","","","true","false","stimuli/catch_trials/catch_trial.png","0","","1"
"","5494","image-button-response","25","null","131725","68895b4cc3548521ab78eeca","6889d64e1afed15cd4ee6e3c","67837959a1ccc1627479fb36","1","S64_age7_trial1.png","false","false","https://kisumu-drawings.s3-us-west-1.amazonaws.com/tracings/S64_age7_trial1.png","5","",""
"","1719","image-button-response","26","null","133954","68895b4cc3548521ab78eeca","6889d64e1afed15cd4ee6e3c","67837959a1ccc1627479fb36","2","S105_age9_trial2.png","false","false","https://kisumu-drawings.s3-us-west-1.amazonaws.com/tracings/S105_age9_trial2.png","5","",""
"","1141","image-button-response","27","null","135604","68895b4cc3548521ab78eeca","6889d64e1afed15cd4ee6e3c","67837959a1ccc1627479fb36","2","S85_age8_trial2.png","false","false","https://kisumu-drawings.s3-us-west-1.amazonaws.com/tracings/S85_age8_trial2.png","5","",""
"","1787","image-button-response","28","null","137899","68895b4cc3548521ab78eeca","6889d64e1afed15cd4ee6e3c","67837959a1ccc1627479fb36","3","S25_age5_trial3.png","false","false","https://kisumu-drawings.s3-us-west-1.amazonaws.com/tracings/S25_age5_trial3.png","4","",""
"","1889","image-button-response","29","null","140292","68895b4cc3548521ab78eeca","6889d64e1afed15cd4ee6e3c","67837959a1ccc1627479fb36","3","S65_age7_trial3.png","false","false","https://kisumu-drawings.s3-us-west-1.amazonaws.com/tracings/S65_age7_trial3.png","5","",""
"","1259","image-button-response","30","null","142054","68895b4cc3548521ab78eeca","6889d64e1afed15cd4ee6e3c","67837959a1ccc1627479fb36","5","S25_age5_trial5.png","false","false","https://kisumu-drawings.s3-us-west-1.amazonaws.com/tracings/S25_age5_trial5.png","5","",""
"","1283","image-button-response","31","null","143844","68895b4cc3548521ab78eeca","6889d64e1afed15cd4ee6e3c","67837959a1ccc1627479fb36","2","S25_age5_trial2.png","false","false","https://kisumu-drawings.s3-us-west-1.amazonaws.com/tracings/S25_age5_trial2.png","5","",""
"","1004","image-button-response","32","null","145353","68895b4cc3548521ab78eeca","6889d64e1afed15cd4ee6e3c","67837959a1ccc1627479fb36","3","S82_age8_trial3.png","false","false","https://kisumu-drawings.s3-us-west-1.amazonaws.com/tracings/S82_age8_trial3.png","5","",""
"","1261","image-button-response","33","null","147122","68895b4cc3548521ab78eeca","6889d64e1afed15cd4ee6e3c","67837959a1ccc1627479fb36","4","S106_age9_trial4.png","false","false","https://kisumu-drawings.s3-us-west-1.amazonaws.com/tracings/S106_age9_trial4.png","5","",""
"","1218","image-button-response","34","null","148845","68895b4cc3548521ab78eeca","6889d64e1afed15cd4ee6e3c","67837959a1ccc1627479fb36","1","S105_age9_trial1.png","false","false","https://kisumu-drawings.s3-us-west-1.amazonaws.com/tracings/S105_age9_trial1.png","5","",""
"","1022","image-button-response","35","null","150372","68895b4cc3548521ab78eeca","6889d64e1afed15cd4ee6e3c","67837959a1ccc1627479fb36","1","S84_age8_trial1.png","false","false","https://kisumu-drawings.s3-us-west-1.amazonaws.com/tracings/S84_age8_trial1.png","5","",""
"","1774","image-button-response","36","null","152652","68895b4cc3548521ab78eeca","6889d64e1afed15cd4ee6e3c","67837959a1ccc1627479fb36","5","S13_age4_trial5.png","false","false","https://kisumu-drawings.s3-us-west-1.amazonaws.com/tracings/S13_age4_trial5.png","4","",""
"","2071","image-button-response","37","null","155235","68895b4cc3548521ab78eeca","6889d64e1afed15cd4ee6e3c","67837959a1ccc1627479fb36","4","S23_age5_trial4.png","false","false","https://kisumu-drawings.s3-us-west-1.amazonaws.com/tracings/S23_age5_trial4.png","2","",""
"","3067","image-button-response","38","null","158812","68895b4cc3548521ab78eeca","6889d64e1afed15cd4ee6e3c","67837959a1ccc1627479fb36","4","S84_age8_trial4.png","false","false","https://kisumu-drawings.s3-us-west-1.amazonaws.com/tracings/S84_age8_trial4.png","5","",""
"","1277","image-button-response","39","null","160596","68895b4cc3548521ab78eeca","6889d64e1afed15cd4ee6e3c","67837959a1ccc1627479fb36","4","S83_age8_trial4.png","false","false","https://kisumu-drawings.s3-us-west-1.amazonaws.com/tracings/S83_age8_trial4.png","5","",""
"","1885","image-button-response","40","null","162987","68895b4cc3548521ab78eeca","6889d64e1afed15cd4ee6e3c","67837959a1ccc1627479fb36","1","S24_age5_trial1.png","false","false","https://kisumu-drawings.s3-us-west-1.amazonaws.com/tracings/S24_age5_trial1.png","4","",""
"","1845","image-button-response","41","null","165340","68895b4cc3548521ab78eeca","6889d64e1afed15cd4ee6e3c","67837959a1ccc1627479fb36","1","S83_age8_trial1.png","false","false","https://kisumu-drawings.s3-us-west-1.amazonaws.com/tracings/S83_age8_trial1.png","5","",""
"","2592","image-button-response","42","null","168436","68895b4cc3548521ab78eeca","6889d64e1afed15cd4ee6e3c","67837959a1ccc1627479fb36","5","S24_age5_trial5.png","false","false","https://kisumu-drawings.s3-us-west-1.amazonaws.com/tracings/S24_age5_trial5.png","4","",""
"","10077","image-button-response","43","null","179021","68895b4cc3548521ab78eeca","6889d64e1afed15cd4ee6e3c","67837959a1ccc1627479fb36","4","S13_age4_trial4.png","false","false","https://kisumu-drawings.s3-us-west-1.amazonaws.com/tracings/S13_age4_trial4.png","4","",""
"","2718","image-button-response","44","null","182246","68895b4cc3548521ab78eeca","6889d64e1afed15cd4ee6e3c","67837959a1ccc1627479fb36","4","S43_age6_trial4.png","false","false","https://kisumu-drawings.s3-us-west-1.amazonaws.com/tracings/S43_age6_trial4.png","4","",""
"","2163","image-button-response","45","null","184918","68895b4cc3548521ab78eeca","6889d64e1afed15cd4ee6e3c","67837959a1ccc1627479fb36","2","S84_age8_trial2.png","false","false","https://kisumu-drawings.s3-us-west-1.amazonaws.com/tracings/S84_age8_trial2.png","5","",""
"","5976","image-button-response","46","null","191398","68895b4cc3548521ab78eeca","6889d64e1afed15cd4ee6e3c","67837959a1ccc1627479fb36","3","S84_age8_trial3.png","false","false","https://kisumu-drawings.s3-us-west-1.amazonaws.com/tracings/S84_age8_trial3.png","5","",""
"","2208","image-button-response","47","null","194110","68895b4cc3548521ab78eeca","6889d64e1afed15cd4ee6e3c","67837959a1ccc1627479fb36","4","S12_age4_trial4.png","false","false","https://kisumu-drawings.s3-us-west-1.amazonaws.com/tracings/S12_age4_trial4.png","5","",""
"","2132","image-button-response","48","null","196751","68895b4cc3548521ab78eeca","6889d64e1afed15cd4ee6e3c","67837959a1ccc1627479fb36","3","S14_age4_trial3.png","false","false","https://kisumu-drawings.s3-us-west-1.amazonaws.com/tracings/S14_age4_trial3.png","3","",""
"","1870","image-button-response","49","null","199125","68895b4cc3548521ab78eeca","6889d64e1afed15cd4ee6e3c","67837959a1ccc1627479fb36","3","S24_age5_trial3.png","false","false","https://kisumu-drawings.s3-us-west-1.amazonaws.com/tracings/S24_age5_trial3.png","4","",""
"","2539","image-button-response","50","null","202175","68895b4cc3548521ab78eeca","6889d64e1afed15cd4ee6e3c","67837959a1ccc1627479fb36","1","S46_age6_trial1.png","false","false","https://kisumu-drawings.s3-us-west-1.amazonaws.com/tracings/S46_age6_trial1.png","5","",""
"","1201","image-button-response","51","null","203887","68895b4cc3548521ab78eeca","6889d64e1afed15cd4ee6e3c","67837959a1ccc1627479fb36","3","S63_age7_trial3.png","false","false","https://kisumu-drawings.s3-us-west-1.amazonaws.com/tracings/S63_age7_trial3.png","5","",""
"","1233","image-button-response","52","null","205628","68895b4cc3548521ab78eeca","6889d64e1afed15cd4ee6e3c","67837959a1ccc1627479fb36","2","S44_age6_trial2.png","false","false","https://kisumu-drawings.s3-us-west-1.amazonaws.com/tracings/S44_age6_trial2.png","5","",""
"","1621","image-button-response","53","null","207758","68895b4cc3548521ab78eeca","6889d64e1afed15cd4ee6e3c","67837959a1ccc1627479fb36","2","S14_age4_trial2.png","false","false","https://kisumu-drawings.s3-us-west-1.amazonaws.com/tracings/S14_age4_trial2.png","4","",""
"","1633","image-button-response","54","null","209902","68895b4cc3548521ab78eeca","6889d64e1afed15cd4ee6e3c","67837959a1ccc1627479fb36","3","S44_age6_trial3.png","false","false","https://kisumu-drawings.s3-us-west-1.amazonaws.com/tracings/S44_age6_trial3.png","5","",""
"","1685","image-button-response","55","null","212095","68895b4cc3548521ab78eeca","6889d64e1afed15cd4ee6e3c","67837959a1ccc1627479fb36","5","S44_age6_trial5.png","false","false","https://kisumu-drawings.s3-us-west-1.amazonaws.com/tracings/S44_age6_trial5.png","5","",""
"","1460","image-button-response","56","null","214062","68895b4cc3548521ab78eeca","6889d64e1afed15cd4ee6e3c","67837959a1ccc1627479fb36","5","S82_age8_trial5.png","false","false","https://kisumu-drawings.s3-us-west-1.amazonaws.com/tracings/S82_age8_trial5.png","5","",""
"","2157","image-button-response","57","null","216727","68895b4cc3548521ab78eeca","6889d64e1afed15cd4ee6e3c","67837959a1ccc1627479fb36","4","S66_age7_trial4.png","false","false","https://kisumu-drawings.s3-us-west-1.amazonaws.com/tracings/S66_age7_trial4.png","5","",""
"","2043","image-button-response","58","null","219279","68895b4cc3548521ab78eeca","6889d64e1afed15cd4ee6e3c","67837959a1ccc1627479fb36","2","S15_age4_trial2.png","false","false","https://kisumu-drawings.s3-us-west-1.amazonaws.com/tracings/S15_age4_trial2.png","4","",""
"","1877","image-button-response","59","null","221663","68895b4cc3548521ab78eeca","6889d64e1afed15cd4ee6e3c","67837959a1ccc1627479fb36","1","S13_age4_trial1.png","false","false","https://kisumu-drawings.s3-us-west-1.amazonaws.com/tracings/S13_age4_trial1.png","5","",""
"","1216","image-button-response","60","null","223384","68895b4cc3548521ab78eeca","6889d64e1afed15cd4ee6e3c","67837959a1ccc1627479fb36","4","S65_age7_trial4.png","false","false","https://kisumu-drawings.s3-us-west-1.amazonaws.com/tracings/S65_age7_trial4.png","5","",""
"","1083","image-button-response","61","null","224975","68895b4cc3548521ab78eeca","6889d64e1afed15cd4ee6e3c","67837959a1ccc1627479fb36","4","S105_age9_trial4.png","false","false","https://kisumu-drawings.s3-us-west-1.amazonaws.com/tracings/S105_age9_trial4.png","5","",""
