"view_history","rt","trial_type","trial_index","plugin_version","time_elapsed","study_id","session_id","participant_id","tracing_type","tracing_id","catch_trial","prep_trial","stimulus","response","sketcher_category","response_category"
"[{""page_index"":0,""viewing_time"":13330},{""page_index"":1,""viewing_time"":52334},{""page_index"":2,""viewing_time"":37804},{""page_index"":3,""viewing_time"":4953},{""page_index"":4,""viewing_time"":30699}]","139121","instructions","0","null","139161","68895b4cc3548521ab78eeca","688a69ebc44d303d17f302ec","67cfeddb9f4b04d789ca82bd","","","","","","","",""
"","10660","image-button-response","1","null","150845","68895b4cc3548521ab78eeca","688a69ebc44d303d17f302ec","67cfeddb9f4b04d789ca82bd","3","S19_age4_trial3.png","false","false","https://kisumu-drawings.s3-us-west-1.amazonaws.com/tracings/S19_age4_trial3.png","2","",""
"","11839","image-button-response","2","null","163203","68895b4cc3548521ab78eeca","688a69ebc44d303d17f302ec","67cfeddb9f4b04d789ca82bd","1","S110_age9_trial1.png","false","false","https://kisumu-drawings.s3-us-west-1.amazonaws.com/tracings/S110_age9_trial1.png","4","",""
"","15778","image-button-response","3","null","179494","68895b4cc3548521ab78eeca","688a69ebc44d303d17f302ec","67cfeddb9f4b04d789ca82bd","2","S69_age7_trial2.png","false","false","https://kisumu-drawings.s3-us-west-1.amazonaws.com/tracings/S69_age7_trial2.png","5","",""
"","19373","image-button-response","4","null","199380","68895b4cc3548521ab78eeca","688a69ebc44d303d17f302ec","67cfeddb9f4b04d789ca82bd","4","S19_age4_trial4.png","false","false","https://kisumu-drawings.s3-us-west-1.amazonaws.com/tracings/S19_age4_trial4.png","3","",""
"","12274","image-button-response","5","null","212162","68895b4cc3548521ab78eeca","688a69ebc44d303d17f302ec","67cfeddb9f4b04d789ca82bd","4","S29_age5_trial4.png","false","false","https://kisumu-drawings.s3-us-west-1.amazonaws.com/tracings/S29_age5_trial4.png","2","",""
"","6729","image-button-response","6","null","219407","68895b4cc3548521ab78eeca","688a69ebc44d303d17f302ec","67cfeddb9f4b04d789ca82bd","5","S29_age5_trial5.png","false","false","https://kisumu-drawings.s3-us-west-1.amazonaws.com/tracings/S29_age5_trial5.png","2","",""
"","6983","image-button-response","7","null","226899","68895b4cc3548521ab78eeca","688a69ebc44d303d17f302ec","67cfeddb9f4b04d789ca82bd","1","S70_age7_trial1.png","false","false","https://kisumu-drawings.s3-us-west-1.amazonaws.com/tracings/S70_age7_trial1.png","5","",""
"","10796","image-button-response","8","null","238202","68895b4cc3548521ab78eeca","688a69ebc44d303d17f302ec","67cfeddb9f4b04d789ca82bd","5","S49_age6_trial5.png","false","false","https://kisumu-drawings.s3-us-west-1.amazonaws.com/tracings/S49_age6_trial5.png","5","",""
"","7042","image-button-response","9","null","245754","68895b4cc3548521ab78eeca","688a69ebc44d303d17f302ec","67cfeddb9f4b04d789ca82bd","1","S30_age5_trial1.png","false","false","https://kisumu-drawings.s3-us-west-1.amazonaws.com/tracings/S30_age5_trial1.png","4","",""
"","11041","image-button-response","10","null","257316","68895b4cc3548521ab78eeca","688a69ebc44d303d17f302ec","67cfeddb9f4b04d789ca82bd","2","S110_age9_trial2.png","false","false","https://kisumu-drawings.s3-us-west-1.amazonaws.com/tracings/S110_age9_trial2.png","4","",""
"","10432","image-button-response","11","null","268258","68895b4cc3548521ab78eeca","688a69ebc44d303d17f302ec","67cfeddb9f4b04d789ca82bd","3","S110_age9_trial3.png","false","false","https://kisumu-drawings.s3-us-west-1.amazonaws.com/tracings/S110_age9_trial3.png","4","",""
"","9397","image-button-response","12","null","278163","68895b4cc3548521ab78eeca","688a69ebc44d303d17f302ec","67cfeddb9f4b04d789ca82bd","2","S50_age6_trial2.png","false","false","https://kisumu-drawings.s3-us-west-1.amazonaws.com/tracings/S50_age6_trial2.png","3","",""
"","19838","image-button-response","13","null","298513","68895b4cc3548521ab78eeca","688a69ebc44d303d17f302ec","67cfeddb9f4b04d789ca82bd","4","S110_age9_trial4.png","false","false","https://kisumu-drawings.s3-us-west-1.amazonaws.com/tracings/S110_age9_trial4.png","4","",""
"","8181","image-button-response","14","null","307215","68895b4cc3548521ab78eeca","688a69ebc44d303d17f302ec","67cfeddb9f4b04d789ca82bd","4","S111_age9_trial4.png","false","false","https://kisumu-drawings.s3-us-west-1.amazonaws.com/tracings/S111_age9_trial4.png","5","",""
"","8540","image-button-response","15","null","316275","68895b4cc3548521ab78eeca","688a69ebc44d303d17f302ec","67cfeddb9f4b04d789ca82bd","5","S50_age6_trial5.png","false","false","https://kisumu-drawings.s3-us-west-1.amazonaws.com/tracings/S50_age6_trial5.png","5","",""
"","8678","image-button-response","16","null","325462","68895b4cc3548521ab78eeca","688a69ebc44d303d17f302ec","67cfeddb9f4b04d789ca82bd","2","S20_age4_trial2.png","false","false","https://kisumu-drawings.s3-us-west-1.amazonaws.com/tracings/S20_age4_trial2.png","1","",""
"","8512","image-button-response","17","null","334487","68895b4cc3548521ab78eeca","688a69ebc44d303d17f302ec","67cfeddb9f4b04d789ca82bd","5","S70_age7_trial5.png","false","false","https://kisumu-drawings.s3-us-west-1.amazonaws.com/tracings/S70_age7_trial5.png","5","",""
"","8069","image-button-response","18","null","343074","68895b4cc3548521ab78eeca","688a69ebc44d303d17f302ec","67cfeddb9f4b04d789ca82bd","2","S51_age6_trial2.png","false","false","https://kisumu-drawings.s3-us-west-1.amazonaws.com/tracings/S51_age6_trial2.png","4","",""
"","9031","image-button-response","19","null","352621","68895b4cc3548521ab78eeca","688a69ebc44d303d17f302ec","67cfeddb9f4b04d789ca82bd","1","S50_age6_trial1.png","false","false","https://kisumu-drawings.s3-us-west-1.amazonaws.com/tracings/S50_age6_trial1.png","5","",""
"","18946","image-button-response","20","null","372088","68895b4cc3548521ab78eeca","688a69ebc44d303d17f302ec","67cfeddb9f4b04d789ca82bd","3","S51_age6_trial3.png","false","false","https://kisumu-drawings.s3-us-west-1.amazonaws.com/tracings/S51_age6_trial3.png","2","",""
"","11831","image-button-response","21","null","384436","68895b4cc3548521ab78eeca","688a69ebc44d303d17f302ec","67cfeddb9f4b04d789ca82bd","1","S49_age6_trial1.png","false","false","https://kisumu-drawings.s3-us-west-1.amazonaws.com/tracings/S49_age6_trial1.png","4","",""
"","6888","image-button-response","22","null","391843","68895b4cc3548521ab78eeca","688a69ebc44d303d17f302ec","67cfeddb9f4b04d789ca82bd","3","S109_age9_trial3.png","false","false","https://kisumu-drawings.s3-us-west-1.amazonaws.com/tracings/S109_age9_trial3.png","5","",""
"","16710","image-button-response","23","null","409058","68895b4cc3548521ab78eeca","688a69ebc44d303d17f302ec","67cfeddb9f4b04d789ca82bd","4","S50_age6_trial4.png","false","false","https://kisumu-drawings.s3-us-west-1.amazonaws.com/tracings/S50_age6_trial4.png","4","",""
"","7073","image-button-response","24","null","416638","68895b4cc3548521ab78eeca","688a69ebc44d303d17f302ec","67cfeddb9f4b04d789ca82bd","3","S29_age5_trial3.png","false","false","https://kisumu-drawings.s3-us-west-1.amazonaws.com/tracings/S29_age5_trial3.png","1","",""
"","7992","image-button-response","25","null","425140","68895b4cc3548521ab78eeca","688a69ebc44d303d17f302ec","67cfeddb9f4b04d789ca82bd","5","S110_age9_trial5.png","false","false","https://kisumu-drawings.s3-us-west-1.amazonaws.com/tracings/S110_age9_trial5.png","4","",""
"","12249","image-button-response","26","null","437901","68895b4cc3548521ab78eeca","688a69ebc44d303d17f302ec","67cfeddb9f4b04d789ca82bd","2","S89_age8_trial2.png","false","false","https://kisumu-drawings.s3-us-west-1.amazonaws.com/tracings/S89_age8_trial2.png","5","",""
"","8515","image-button-response","27","null","446936","68895b4cc3548521ab78eeca","688a69ebc44d303d17f302ec","67cfeddb9f4b04d789ca82bd","4","S90_age8_trial4.png","false","false","https://kisumu-drawings.s3-us-west-1.amazonaws.com/tracings/S90_age8_trial4.png","5","",""
"","5760","image-button-response","28","null","453212","68895b4cc3548521ab78eeca","688a69ebc44d303d17f302ec","67cfeddb9f4b04d789ca82bd","2","S70_age7_trial2.png","false","false","https://kisumu-drawings.s3-us-west-1.amazonaws.com/tracings/S70_age7_trial2.png","5","",""
"","15152","image-button-response","29","null","468872","68895b4cc3548521ab78eeca","688a69ebc44d303d17f302ec","67cfeddb9f4b04d789ca82bd","","","true","false","stimuli/catch_trials/catch_trial.png","3","","4"
"","8479","image-button-response","30","null","477870","68895b4cc3548521ab78eeca","688a69ebc44d303d17f302ec","67cfeddb9f4b04d789ca82bd","2","S88_age8_trial2.png","false","false","https://kisumu-drawings.s3-us-west-1.amazonaws.com/tracings/S88_age8_trial2.png","4","",""
"","7178","image-button-response","31","null","485563","68895b4cc3548521ab78eeca","688a69ebc44d303d17f302ec","67cfeddb9f4b04d789ca82bd","2","S29_age5_trial2.png","false","false","https://kisumu-drawings.s3-us-west-1.amazonaws.com/tracings/S29_age5_trial2.png","2","",""
"","8695","image-button-response","32","null","494776","68895b4cc3548521ab78eeca","688a69ebc44d303d17f302ec","67cfeddb9f4b04d789ca82bd","3","S18_age4_trial3.png","false","false","https://kisumu-drawings.s3-us-west-1.amazonaws.com/tracings/S18_age4_trial3.png","2","",""
"","6661","image-button-response","33","null","501950","68895b4cc3548521ab78eeca","688a69ebc44d303d17f302ec","67cfeddb9f4b04d789ca82bd","5","S30_age5_trial5.png","false","false","https://kisumu-drawings.s3-us-west-1.amazonaws.com/tracings/S30_age5_trial5.png","2","",""
"","6511","image-button-response","34","null","508978","68895b4cc3548521ab78eeca","688a69ebc44d303d17f302ec","67cfeddb9f4b04d789ca82bd","4","S18_age4_trial4.png","false","false","https://kisumu-drawings.s3-us-west-1.amazonaws.com/tracings/S18_age4_trial4.png","3","",""
"","6700","image-button-response","35","null","516186","68895b4cc3548521ab78eeca","688a69ebc44d303d17f302ec","67cfeddb9f4b04d789ca82bd","5","S69_age7_trial5.png","false","false","https://kisumu-drawings.s3-us-west-1.amazonaws.com/tracings/S69_age7_trial5.png","5","",""
"","5785","image-button-response","36","null","522486","68895b4cc3548521ab78eeca","688a69ebc44d303d17f302ec","67cfeddb9f4b04d789ca82bd","5","S89_age8_trial5.png","false","false","https://kisumu-drawings.s3-us-west-1.amazonaws.com/tracings/S89_age8_trial5.png","4","",""
"","8160","image-button-response","37","null","531162","68895b4cc3548521ab78eeca","688a69ebc44d303d17f302ec","67cfeddb9f4b04d789ca82bd","5","S88_age8_trial5.png","false","false","https://kisumu-drawings.s3-us-west-1.amazonaws.com/tracings/S88_age8_trial5.png","5","",""
"","5243","image-button-response","38","null","536925","68895b4cc3548521ab78eeca","688a69ebc44d303d17f302ec","67cfeddb9f4b04d789ca82bd","1","S29_age5_trial1.png","false","false","https://kisumu-drawings.s3-us-west-1.amazonaws.com/tracings/S29_age5_trial1.png","2","",""
"","8125","image-button-response","39","null","545563","68895b4cc3548521ab78eeca","688a69ebc44d303d17f302ec","67cfeddb9f4b04d789ca82bd","1","S19_age4_trial1.png","false","false","https://kisumu-drawings.s3-us-west-1.amazonaws.com/tracings/S19_age4_trial1.png","2","",""
"","13046","image-button-response","40","null","559131","68895b4cc3548521ab78eeca","688a69ebc44d303d17f302ec","67cfeddb9f4b04d789ca82bd","2","S1_age4_trial2.png","false","false","https://kisumu-drawings.s3-us-west-1.amazonaws.com/tracings/S1_age4_trial2.png","3","",""
"","28846","image-button-response","41","null","588483","68895b4cc3548521ab78eeca","688a69ebc44d303d17f302ec","67cfeddb9f4b04d789ca82bd","2","S30_age5_trial2.png","false","false","https://kisumu-drawings.s3-us-west-1.amazonaws.com/tracings/S30_age5_trial2.png","3","",""
"","8682","image-button-response","42","null","597681","68895b4cc3548521ab78eeca","688a69ebc44d303d17f302ec","67cfeddb9f4b04d789ca82bd","4","S51_age6_trial4.png","false","false","https://kisumu-drawings.s3-us-west-1.amazonaws.com/tracings/S51_age6_trial4.png","3","",""
"","12608","image-button-response","43","null","610801","68895b4cc3548521ab78eeca","688a69ebc44d303d17f302ec","67cfeddb9f4b04d789ca82bd","3","S69_age7_trial3.png","false","false","https://kisumu-drawings.s3-us-west-1.amazonaws.com/tracings/S69_age7_trial3.png","4","",""
"","9714","image-button-response","44","null","621032","68895b4cc3548521ab78eeca","688a69ebc44d303d17f302ec","67cfeddb9f4b04d789ca82bd","1","S1_age4_trial1.png","false","false","https://kisumu-drawings.s3-us-west-1.amazonaws.com/tracings/S1_age4_trial1.png","2","",""
"","7648","image-button-response","45","null","629198","68895b4cc3548521ab78eeca","688a69ebc44d303d17f302ec","67cfeddb9f4b04d789ca82bd","3","S30_age5_trial3.png","false","false","https://kisumu-drawings.s3-us-west-1.amazonaws.com/tracings/S30_age5_trial3.png","2","",""
"","7332","image-button-response","46","null","637044","68895b4cc3548521ab78eeca","688a69ebc44d303d17f302ec","67cfeddb9f4b04d789ca82bd","4","S72_age7_trial4.png","false","false","https://kisumu-drawings.s3-us-west-1.amazonaws.com/tracings/S72_age7_trial4.png","4","",""
"","8636","image-button-response","47","null","646190","68895b4cc3548521ab78eeca","688a69ebc44d303d17f302ec","67cfeddb9f4b04d789ca82bd","4","S30_age5_trial4.png","false","false","https://kisumu-drawings.s3-us-west-1.amazonaws.com/tracings/S30_age5_trial4.png","2","",""
"","9840","image-button-response","48","null","656545","68895b4cc3548521ab78eeca","688a69ebc44d303d17f302ec","67cfeddb9f4b04d789ca82bd","4","S89_age8_trial4.png","false","false","https://kisumu-drawings.s3-us-west-1.amazonaws.com/tracings/S89_age8_trial4.png","4","",""
"","7820","image-button-response","49","null","664873","68895b4cc3548521ab78eeca","688a69ebc44d303d17f302ec","67cfeddb9f4b04d789ca82bd","3","S88_age8_trial3.png","false","false","https://kisumu-drawings.s3-us-west-1.amazonaws.com/tracings/S88_age8_trial3.png","4","",""
"","7487","image-button-response","50","null","672876","68895b4cc3548521ab78eeca","688a69ebc44d303d17f302ec","67cfeddb9f4b04d789ca82bd","5","S109_age9_trial5.png","false","false","https://kisumu-drawings.s3-us-west-1.amazonaws.com/tracings/S109_age9_trial5.png","5","",""
"","9182","image-button-response","51","null","682573","68895b4cc3548521ab78eeca","688a69ebc44d303d17f302ec","67cfeddb9f4b04d789ca82bd","3","S89_age8_trial3.png","false","false","https://kisumu-drawings.s3-us-west-1.amazonaws.com/tracings/S89_age8_trial3.png","4","",""
"","11026","image-button-response","52","null","694111","68895b4cc3548521ab78eeca","688a69ebc44d303d17f302ec","67cfeddb9f4b04d789ca82bd","3","S50_age6_trial3.png","false","false","https://kisumu-drawings.s3-us-west-1.amazonaws.com/tracings/S50_age6_trial3.png","4","",""
"","9634","image-button-response","53","null","704255","68895b4cc3548521ab78eeca","688a69ebc44d303d17f302ec","67cfeddb9f4b04d789ca82bd","5","S19_age4_trial5.png","false","false","https://kisumu-drawings.s3-us-west-1.amazonaws.com/tracings/S19_age4_trial5.png","2","",""
"","48394","image-button-response","54","null","753158","68895b4cc3548521ab78eeca","688a69ebc44d303d17f302ec","67cfeddb9f4b04d789ca82bd","1","S69_age7_trial1.png","false","false","https://kisumu-drawings.s3-us-west-1.amazonaws.com/tracings/S69_age7_trial1.png","5","",""
"","13503","image-button-response","55","null","767181","68895b4cc3548521ab78eeca","688a69ebc44d303d17f302ec","67cfeddb9f4b04d789ca82bd","3","S70_age7_trial3.png","false","false","https://kisumu-drawings.s3-us-west-1.amazonaws.com/tracings/S70_age7_trial3.png","5","",""
"","9576","image-button-response","56","null","777264","68895b4cc3548521ab78eeca","688a69ebc44d303d17f302ec","67cfeddb9f4b04d789ca82bd","1","S90_age8_trial1.png","false","false","https://kisumu-drawings.s3-us-west-1.amazonaws.com/tracings/S90_age8_trial1.png","4","",""
"","12384","image-button-response","57","null","790159","68895b4cc3548521ab78eeca","688a69ebc44d303d17f302ec","67cfeddb9f4b04d789ca82bd","5","S1_age4_trial5.png","false","false","https://kisumu-drawings.s3-us-west-1.amazonaws.com/tracings/S1_age4_trial5.png","1","",""
"","16707","image-button-response","58","null","807386","68895b4cc3548521ab78eeca","688a69ebc44d303d17f302ec","67cfeddb9f4b04d789ca82bd","4","S71_age7_trial4.png","false","false","https://kisumu-drawings.s3-us-west-1.amazonaws.com/tracings/S71_age7_trial4.png","4","",""
"","8402","image-button-response","59","null","816308","68895b4cc3548521ab78eeca","688a69ebc44d303d17f302ec","67cfeddb9f4b04d789ca82bd","1","S109_age9_trial1.png","false","false","https://kisumu-drawings.s3-us-west-1.amazonaws.com/tracings/S109_age9_trial1.png","4","",""
"","9025","image-button-response","60","null","825854","68895b4cc3548521ab78eeca","688a69ebc44d303d17f302ec","67cfeddb9f4b04d789ca82bd","1","S89_age8_trial1.png","false","false","https://kisumu-drawings.s3-us-west-1.amazonaws.com/tracings/S89_age8_trial1.png","5","",""
"","8091","image-button-response","61","null","834454","68895b4cc3548521ab78eeca","688a69ebc44d303d17f302ec","67cfeddb9f4b04d789ca82bd","2","S109_age9_trial2.png","false","false","https://kisumu-drawings.s3-us-west-1.amazonaws.com/tracings/S109_age9_trial2.png","5","",""
