"view_history","rt","trial_type","trial_index","plugin_version","time_elapsed","study_id","session_id","participant_id","tracing_type","tracing_id","catch_trial","prep_trial","stimulus","response","sketcher_category","response_category"
"[{""page_index"":0,""viewing_time"":21596},{""page_index"":1,""viewing_time"":16823},{""page_index"":2,""viewing_time"":21800},{""page_index"":3,""viewing_time"":5896},{""page_index"":4,""viewing_time"":35872}]","101988","instructions","0","null","102025","68895b4cc3548521ab78eeca","6889ca53b12f1a7f7f2e8fa8","67d0c73d781bc022a088d11f","","","","","","","",""
"","19387","image-button-response","1","null","122433","68895b4cc3548521ab78eeca","6889ca53b12f1a7f7f2e8fa8","67d0c73d781bc022a088d11f","3","S65_age7_trial3.png","false","false","https://kisumu-drawings.s3-us-west-1.amazonaws.com/tracings/S65_age7_trial3.png","4","",""
"","14006","image-button-response","2","null","136944","68895b4cc3548521ab78eeca","6889ca53b12f1a7f7f2e8fa8","67d0c73d781bc022a088d11f","5","S44_age6_trial5.png","false","false","https://kisumu-drawings.s3-us-west-1.amazonaws.com/tracings/S44_age6_trial5.png","3","",""
"","10760","image-button-response","3","null","148208","68895b4cc3548521ab78eeca","6889ca53b12f1a7f7f2e8fa8","67d0c73d781bc022a088d11f","2","S84_age8_trial2.png","false","false","https://kisumu-drawings.s3-us-west-1.amazonaws.com/tracings/S84_age8_trial2.png","3","",""
"","11635","image-button-response","4","null","160360","68895b4cc3548521ab78eeca","6889ca53b12f1a7f7f2e8fa8","67d0c73d781bc022a088d11f","3","S25_age5_trial3.png","false","false","https://kisumu-drawings.s3-us-west-1.amazonaws.com/tracings/S25_age5_trial3.png","3","",""
"","12402","image-button-response","5","null","173280","68895b4cc3548521ab78eeca","6889ca53b12f1a7f7f2e8fa8","67d0c73d781bc022a088d11f","1","S84_age8_trial1.png","false","false","https://kisumu-drawings.s3-us-west-1.amazonaws.com/tracings/S84_age8_trial1.png","4","",""
"","10997","image-button-response","6","null","184784","68895b4cc3548521ab78eeca","6889ca53b12f1a7f7f2e8fa8","67d0c73d781bc022a088d11f","1","S64_age7_trial1.png","false","false","https://kisumu-drawings.s3-us-west-1.amazonaws.com/tracings/S64_age7_trial1.png","2","",""
"","7034","image-button-response","7","null","192328","68895b4cc3548521ab78eeca","6889ca53b12f1a7f7f2e8fa8","67d0c73d781bc022a088d11f","4","S23_age5_trial4.png","false","false","https://kisumu-drawings.s3-us-west-1.amazonaws.com/tracings/S23_age5_trial4.png","2","",""
"","10324","image-button-response","8","null","203168","68895b4cc3548521ab78eeca","6889ca53b12f1a7f7f2e8fa8","67d0c73d781bc022a088d11f","3","S83_age8_trial3.png","false","false","https://kisumu-drawings.s3-us-west-1.amazonaws.com/tracings/S83_age8_trial3.png","4","",""
"","5841","image-button-response","9","null","209520","68895b4cc3548521ab78eeca","6889ca53b12f1a7f7f2e8fa8","67d0c73d781bc022a088d11f","5","S104_age9_trial5.png","false","false","https://kisumu-drawings.s3-us-west-1.amazonaws.com/tracings/S104_age9_trial5.png","4","",""
"","11776","image-button-response","10","null","221800","68895b4cc3548521ab78eeca","6889ca53b12f1a7f7f2e8fa8","67d0c73d781bc022a088d11f","4","S84_age8_trial4.png","false","false","https://kisumu-drawings.s3-us-west-1.amazonaws.com/tracings/S84_age8_trial4.png","3","",""
"","10986","image-button-response","11","null","233296","68895b4cc3548521ab78eeca","6889ca53b12f1a7f7f2e8fa8","67d0c73d781bc022a088d11f","1","S63_age7_trial1.png","false","false","https://kisumu-drawings.s3-us-west-1.amazonaws.com/tracings/S63_age7_trial1.png","4","",""
"","7847","image-button-response","12","null","241647","68895b4cc3548521ab78eeca","6889ca53b12f1a7f7f2e8fa8","67d0c73d781bc022a088d11f","4","S105_age9_trial4.png","false","false","https://kisumu-drawings.s3-us-west-1.amazonaws.com/tracings/S105_age9_trial4.png","4","",""
"","10212","image-button-response","13","null","252375","68895b4cc3548521ab78eeca","6889ca53b12f1a7f7f2e8fa8","67d0c73d781bc022a088d11f","1","S14_age4_trial1.png","false","false","https://kisumu-drawings.s3-us-west-1.amazonaws.com/tracings/S14_age4_trial1.png","2","",""
"","15230","image-button-response","14","null","268111","68895b4cc3548521ab78eeca","6889ca53b12f1a7f7f2e8fa8","67d0c73d781bc022a088d11f","2","S65_age7_trial2.png","false","false","https://kisumu-drawings.s3-us-west-1.amazonaws.com/tracings/S65_age7_trial2.png","5","",""
"","10492","image-button-response","15","null","279112","68895b4cc3548521ab78eeca","6889ca53b12f1a7f7f2e8fa8","67d0c73d781bc022a088d11f","2","S44_age6_trial2.png","false","false","https://kisumu-drawings.s3-us-west-1.amazonaws.com/tracings/S44_age6_trial2.png","4","",""
"","7753","image-button-response","16","null","287375","68895b4cc3548521ab78eeca","6889ca53b12f1a7f7f2e8fa8","67d0c73d781bc022a088d11f","5","S65_age7_trial5.png","false","false","https://kisumu-drawings.s3-us-west-1.amazonaws.com/tracings/S65_age7_trial5.png","4","",""
"","9840","image-button-response","17","null","297719","68895b4cc3548521ab78eeca","6889ca53b12f1a7f7f2e8fa8","67d0c73d781bc022a088d11f","5","S103_age9_trial5.png","false","false","https://kisumu-drawings.s3-us-west-1.amazonaws.com/tracings/S103_age9_trial5.png","4","",""
"","8534","image-button-response","18","null","306759","68895b4cc3548521ab78eeca","6889ca53b12f1a7f7f2e8fa8","67d0c73d781bc022a088d11f","2","S64_age7_trial2.png","false","false","https://kisumu-drawings.s3-us-west-1.amazonaws.com/tracings/S64_age7_trial2.png","4","",""
"","9030","image-button-response","19","null","316303","68895b4cc3548521ab78eeca","6889ca53b12f1a7f7f2e8fa8","67d0c73d781bc022a088d11f","4","S43_age6_trial4.png","false","false","https://kisumu-drawings.s3-us-west-1.amazonaws.com/tracings/S43_age6_trial4.png","3","",""
"","7991","image-button-response","20","null","324799","68895b4cc3548521ab78eeca","6889ca53b12f1a7f7f2e8fa8","67d0c73d781bc022a088d11f","5","S23_age5_trial5.png","false","false","https://kisumu-drawings.s3-us-west-1.amazonaws.com/tracings/S23_age5_trial5.png","2","",""
"","9390","image-button-response","21","null","334695","68895b4cc3548521ab78eeca","6889ca53b12f1a7f7f2e8fa8","67d0c73d781bc022a088d11f","4","S106_age9_trial4.png","false","false","https://kisumu-drawings.s3-us-west-1.amazonaws.com/tracings/S106_age9_trial4.png","4","",""
"","9347","image-button-response","22","null","344559","68895b4cc3548521ab78eeca","6889ca53b12f1a7f7f2e8fa8","67d0c73d781bc022a088d11f","2","S85_age8_trial2.png","false","false","https://kisumu-drawings.s3-us-west-1.amazonaws.com/tracings/S85_age8_trial2.png","4","",""
"","4095","image-button-response","23","null","349167","68895b4cc3548521ab78eeca","6889ca53b12f1a7f7f2e8fa8","67d0c73d781bc022a088d11f","2","S105_age9_trial2.png","false","false","https://kisumu-drawings.s3-us-west-1.amazonaws.com/tracings/S105_age9_trial2.png","4","",""
"","7744","image-button-response","24","null","357423","68895b4cc3548521ab78eeca","6889ca53b12f1a7f7f2e8fa8","67d0c73d781bc022a088d11f","3","S24_age5_trial3.png","false","false","https://kisumu-drawings.s3-us-west-1.amazonaws.com/tracings/S24_age5_trial3.png","2","",""
"","2537","image-button-response","25","null","360463","68895b4cc3548521ab78eeca","6889ca53b12f1a7f7f2e8fa8","67d0c73d781bc022a088d11f","2","S23_age5_trial2.png","false","false","https://kisumu-drawings.s3-us-west-1.amazonaws.com/tracings/S23_age5_trial2.png","2","",""
"","6459","image-button-response","26","null","367431","68895b4cc3548521ab78eeca","6889ca53b12f1a7f7f2e8fa8","67d0c73d781bc022a088d11f","4","S13_age4_trial4.png","false","false","https://kisumu-drawings.s3-us-west-1.amazonaws.com/tracings/S13_age4_trial4.png","2","",""
"","4285","image-button-response","27","null","372223","68895b4cc3548521ab78eeca","6889ca53b12f1a7f7f2e8fa8","67d0c73d781bc022a088d11f","1","S104_age9_trial1.png","false","false","https://kisumu-drawings.s3-us-west-1.amazonaws.com/tracings/S104_age9_trial1.png","3","",""
"","12207","image-button-response","28","null","384943","68895b4cc3548521ab78eeca","6889ca53b12f1a7f7f2e8fa8","67d0c73d781bc022a088d11f","4","S66_age7_trial4.png","false","false","https://kisumu-drawings.s3-us-west-1.amazonaws.com/tracings/S66_age7_trial4.png","3","",""
"","11879","image-button-response","29","null","397327","68895b4cc3548521ab78eeca","6889ca53b12f1a7f7f2e8fa8","67d0c73d781bc022a088d11f","2","S45_age6_trial2.png","false","false","https://kisumu-drawings.s3-us-west-1.amazonaws.com/tracings/S45_age6_trial2.png","4","",""
"","8221","image-button-response","30","null","406055","68895b4cc3548521ab78eeca","6889ca53b12f1a7f7f2e8fa8","67d0c73d781bc022a088d11f","1","S45_age6_trial1.png","false","false","https://kisumu-drawings.s3-us-west-1.amazonaws.com/tracings/S45_age6_trial1.png","3","",""
"","10733","image-button-response","31","null","417303","68895b4cc3548521ab78eeca","6889ca53b12f1a7f7f2e8fa8","67d0c73d781bc022a088d11f","2","S15_age4_trial2.png","false","false","https://kisumu-drawings.s3-us-west-1.amazonaws.com/tracings/S15_age4_trial2.png","2","",""
"","3072","image-button-response","32","null","420879","68895b4cc3548521ab78eeca","6889ca53b12f1a7f7f2e8fa8","67d0c73d781bc022a088d11f","4","S24_age5_trial4.png","false","false","https://kisumu-drawings.s3-us-west-1.amazonaws.com/tracings/S24_age5_trial4.png","2","",""
"","5775","image-button-response","33","null","427167","68895b4cc3548521ab78eeca","6889ca53b12f1a7f7f2e8fa8","67d0c73d781bc022a088d11f","5","S24_age5_trial5.png","false","false","https://kisumu-drawings.s3-us-west-1.amazonaws.com/tracings/S24_age5_trial5.png","2","",""
"","6672","image-button-response","34","null","434351","68895b4cc3548521ab78eeca","6889ca53b12f1a7f7f2e8fa8","67d0c73d781bc022a088d11f","","","true","false","stimuli/catch_trials/catch_trial.png","0","","1"
"","7075","image-button-response","35","null","441943","68895b4cc3548521ab78eeca","6889ca53b12f1a7f7f2e8fa8","67d0c73d781bc022a088d11f","2","S14_age4_trial2.png","false","false","https://kisumu-drawings.s3-us-west-1.amazonaws.com/tracings/S14_age4_trial2.png","2","",""
"","7249","image-button-response","36","null","449694","68895b4cc3548521ab78eeca","6889ca53b12f1a7f7f2e8fa8","67d0c73d781bc022a088d11f","2","S24_age5_trial2.png","false","false","https://kisumu-drawings.s3-us-west-1.amazonaws.com/tracings/S24_age5_trial2.png","2","",""
"","7576","image-button-response","37","null","457775","68895b4cc3548521ab78eeca","6889ca53b12f1a7f7f2e8fa8","67d0c73d781bc022a088d11f","3","S105_age9_trial3.png","false","false","https://kisumu-drawings.s3-us-west-1.amazonaws.com/tracings/S105_age9_trial3.png","4","",""
"","4599","image-button-response","38","null","462887","68895b4cc3548521ab78eeca","6889ca53b12f1a7f7f2e8fa8","67d0c73d781bc022a088d11f","3","S82_age8_trial3.png","false","false","https://kisumu-drawings.s3-us-west-1.amazonaws.com/tracings/S82_age8_trial3.png","4","",""
"","6440","image-button-response","39","null","469838","68895b4cc3548521ab78eeca","6889ca53b12f1a7f7f2e8fa8","67d0c73d781bc022a088d11f","4","S12_age4_trial4.png","false","false","https://kisumu-drawings.s3-us-west-1.amazonaws.com/tracings/S12_age4_trial4.png","4","",""
"","7503","image-button-response","40","null","477846","68895b4cc3548521ab78eeca","6889ca53b12f1a7f7f2e8fa8","67d0c73d781bc022a088d11f","5","S43_age6_trial5.png","false","false","https://kisumu-drawings.s3-us-west-1.amazonaws.com/tracings/S43_age6_trial5.png","3","",""
"","4382","image-button-response","41","null","482742","68895b4cc3548521ab78eeca","6889ca53b12f1a7f7f2e8fa8","67d0c73d781bc022a088d11f","3","S103_age9_trial3.png","false","false","https://kisumu-drawings.s3-us-west-1.amazonaws.com/tracings/S103_age9_trial3.png","4","",""
"","4568","image-button-response","42","null","487822","68895b4cc3548521ab78eeca","6889ca53b12f1a7f7f2e8fa8","67d0c73d781bc022a088d11f","3","S63_age7_trial3.png","false","false","https://kisumu-drawings.s3-us-west-1.amazonaws.com/tracings/S63_age7_trial3.png","4","",""
"","5729","image-button-response","43","null","494062","68895b4cc3548521ab78eeca","6889ca53b12f1a7f7f2e8fa8","67d0c73d781bc022a088d11f","3","S13_age4_trial3.png","false","false","https://kisumu-drawings.s3-us-west-1.amazonaws.com/tracings/S13_age4_trial3.png","3","",""
"","8294","image-button-response","44","null","502862","68895b4cc3548521ab78eeca","6889ca53b12f1a7f7f2e8fa8","67d0c73d781bc022a088d11f","1","S83_age8_trial1.png","false","false","https://kisumu-drawings.s3-us-west-1.amazonaws.com/tracings/S83_age8_trial1.png","5","",""
"","8896","image-button-response","45","null","512262","68895b4cc3548521ab78eeca","6889ca53b12f1a7f7f2e8fa8","67d0c73d781bc022a088d11f","3","S14_age4_trial3.png","false","false","https://kisumu-drawings.s3-us-west-1.amazonaws.com/tracings/S14_age4_trial3.png","1","",""
"","8183","image-button-response","46","null","520950","68895b4cc3548521ab78eeca","6889ca53b12f1a7f7f2e8fa8","67d0c73d781bc022a088d11f","5","S84_age8_trial5.png","false","false","https://kisumu-drawings.s3-us-west-1.amazonaws.com/tracings/S84_age8_trial5.png","4","",""
"","9081","image-button-response","47","null","530535","68895b4cc3548521ab78eeca","6889ca53b12f1a7f7f2e8fa8","67d0c73d781bc022a088d11f","1","S105_age9_trial1.png","false","false","https://kisumu-drawings.s3-us-west-1.amazonaws.com/tracings/S105_age9_trial1.png","4","",""
"","10402","image-button-response","48","null","541446","68895b4cc3548521ab78eeca","6889ca53b12f1a7f7f2e8fa8","67d0c73d781bc022a088d11f","1","S23_age5_trial1.png","false","false","https://kisumu-drawings.s3-us-west-1.amazonaws.com/tracings/S23_age5_trial1.png","3","",""
"","8792","image-button-response","49","null","550742","68895b4cc3548521ab78eeca","6889ca53b12f1a7f7f2e8fa8","67d0c73d781bc022a088d11f","3","S44_age6_trial3.png","false","false","https://kisumu-drawings.s3-us-west-1.amazonaws.com/tracings/S44_age6_trial3.png","3","",""
"","7679","image-button-response","50","null","558934","68895b4cc3548521ab78eeca","6889ca53b12f1a7f7f2e8fa8","67d0c73d781bc022a088d11f","5","S64_age7_trial5.png","false","false","https://kisumu-drawings.s3-us-west-1.amazonaws.com/tracings/S64_age7_trial5.png","4","",""
"","5305","image-button-response","51","null","564742","68895b4cc3548521ab78eeca","6889ca53b12f1a7f7f2e8fa8","67d0c73d781bc022a088d11f","4","S83_age8_trial4.png","false","false","https://kisumu-drawings.s3-us-west-1.amazonaws.com/tracings/S83_age8_trial4.png","5","",""
"","6683","image-button-response","52","null","571942","68895b4cc3548521ab78eeca","6889ca53b12f1a7f7f2e8fa8","67d0c73d781bc022a088d11f","4","S45_age6_trial4.png","false","false","https://kisumu-drawings.s3-us-west-1.amazonaws.com/tracings/S45_age6_trial4.png","3","",""
"","12076","image-button-response","53","null","584534","68895b4cc3548521ab78eeca","6889ca53b12f1a7f7f2e8fa8","67d0c73d781bc022a088d11f","5","S82_age8_trial5.png","false","false","https://kisumu-drawings.s3-us-west-1.amazonaws.com/tracings/S82_age8_trial5.png","4","",""
"","4418","image-button-response","54","null","589462","68895b4cc3548521ab78eeca","6889ca53b12f1a7f7f2e8fa8","67d0c73d781bc022a088d11f","1","S24_age5_trial1.png","false","false","https://kisumu-drawings.s3-us-west-1.amazonaws.com/tracings/S24_age5_trial1.png","2","",""
"","10969","image-button-response","55","null","600950","68895b4cc3548521ab78eeca","6889ca53b12f1a7f7f2e8fa8","67d0c73d781bc022a088d11f","4","S65_age7_trial4.png","false","false","https://kisumu-drawings.s3-us-west-1.amazonaws.com/tracings/S65_age7_trial4.png","4","",""
"","10325","image-button-response","56","null","611782","68895b4cc3548521ab78eeca","6889ca53b12f1a7f7f2e8fa8","67d0c73d781bc022a088d11f","1","S46_age6_trial1.png","false","false","https://kisumu-drawings.s3-us-west-1.amazonaws.com/tracings/S46_age6_trial1.png","3","",""
"","6697","image-button-response","57","null","618990","68895b4cc3548521ab78eeca","6889ca53b12f1a7f7f2e8fa8","67d0c73d781bc022a088d11f","5","S13_age4_trial5.png","false","false","https://kisumu-drawings.s3-us-west-1.amazonaws.com/tracings/S13_age4_trial5.png","2","",""
"","6468","image-button-response","58","null","625966","68895b4cc3548521ab78eeca","6889ca53b12f1a7f7f2e8fa8","67d0c73d781bc022a088d11f","2","S104_age9_trial2.png","false","false","https://kisumu-drawings.s3-us-west-1.amazonaws.com/tracings/S104_age9_trial2.png","4","",""
"","11060","image-button-response","59","null","637542","68895b4cc3548521ab78eeca","6889ca53b12f1a7f7f2e8fa8","67d0c73d781bc022a088d11f","5","S12_age4_trial5.png","false","false","https://kisumu-drawings.s3-us-west-1.amazonaws.com/tracings/S12_age4_trial5.png","4","",""
"","7717","image-button-response","60","null","645774","68895b4cc3548521ab78eeca","6889ca53b12f1a7f7f2e8fa8","67d0c73d781bc022a088d11f","3","S45_age6_trial3.png","false","false","https://kisumu-drawings.s3-us-west-1.amazonaws.com/tracings/S45_age6_trial3.png","3","",""
"","4648","image-button-response","61","null","650934","68895b4cc3548521ab78eeca","6889ca53b12f1a7f7f2e8fa8","67d0c73d781bc022a088d11f","1","S13_age4_trial1.png","false","false","https://kisumu-drawings.s3-us-west-1.amazonaws.com/tracings/S13_age4_trial1.png","3","",""
