"view_history","rt","trial_type","trial_index","plugin_version","time_elapsed","study_id","session_id","participant_id","tracing_type","tracing_id","catch_trial","prep_trial","stimulus","response","sketcher_category","response_category"
"[{""page_index"":0,""viewing_time"":125555},{""page_index"":1,""viewing_time"":13718},{""page_index"":2,""viewing_time"":85664},{""page_index"":3,""viewing_time"":32},{""page_index"":4,""viewing_time"":27272}]","252241","instructions","0","null","252248","68895b4cc3548521ab78eeca","688a38416290b6bbb1f0e083","67dda00e83d591e9a6123c5f","","","","","","","",""
"","9444","image-button-response","1","null","262700","68895b4cc3548521ab78eeca","688a38416290b6bbb1f0e083","67dda00e83d591e9a6123c5f","4","S87_age8_trial4.png","false","false","https://kisumu-drawings.s3-us-west-1.amazonaws.com/tracings/S87_age8_trial4.png","5","",""
"","10071","image-button-response","2","null","273273","68895b4cc3548521ab78eeca","688a38416290b6bbb1f0e083","67dda00e83d591e9a6123c5f","4","S109_age9_trial4.png","false","false","https://kisumu-drawings.s3-us-west-1.amazonaws.com/tracings/S109_age9_trial4.png","4","",""
"","10841","image-button-response","3","null","284621","68895b4cc3548521ab78eeca","688a38416290b6bbb1f0e083","67dda00e83d591e9a6123c5f","2","S28_age5_trial2.png","false","false","https://kisumu-drawings.s3-us-west-1.amazonaws.com/tracings/S28_age5_trial2.png","4","",""
"","51268","image-button-response","4","null","336404","68895b4cc3548521ab78eeca","688a38416290b6bbb1f0e083","67dda00e83d591e9a6123c5f","3","S18_age4_trial3.png","false","false","https://kisumu-drawings.s3-us-west-1.amazonaws.com/tracings/S18_age4_trial3.png","5","",""
"","11163","image-button-response","5","null","348075","68895b4cc3548521ab78eeca","688a38416290b6bbb1f0e083","67dda00e83d591e9a6123c5f","2","S19_age4_trial2.png","false","false","https://kisumu-drawings.s3-us-west-1.amazonaws.com/tracings/S19_age4_trial2.png","3","",""
"","44927","image-button-response","6","null","393518","68895b4cc3548521ab78eeca","688a38416290b6bbb1f0e083","67dda00e83d591e9a6123c5f","3","S50_age6_trial3.png","false","false","https://kisumu-drawings.s3-us-west-1.amazonaws.com/tracings/S50_age6_trial3.png","5","",""
"","42056","image-button-response","7","null","436080","68895b4cc3548521ab78eeca","688a38416290b6bbb1f0e083","67dda00e83d591e9a6123c5f","3","S28_age5_trial3.png","false","false","https://kisumu-drawings.s3-us-west-1.amazonaws.com/tracings/S28_age5_trial3.png","4","",""
"","14868","image-button-response","8","null","451460","68895b4cc3548521ab78eeca","688a38416290b6bbb1f0e083","67dda00e83d591e9a6123c5f","1","S28_age5_trial1.png","false","false","https://kisumu-drawings.s3-us-west-1.amazonaws.com/tracings/S28_age5_trial1.png","2","",""
"","5281","image-button-response","9","null","457251","68895b4cc3548521ab78eeca","688a38416290b6bbb1f0e083","67dda00e83d591e9a6123c5f","1","S29_age5_trial1.png","false","false","https://kisumu-drawings.s3-us-west-1.amazonaws.com/tracings/S29_age5_trial1.png","2","",""
"","4414","image-button-response","10","null","462180","68895b4cc3548521ab78eeca","688a38416290b6bbb1f0e083","67dda00e83d591e9a6123c5f","1","S18_age4_trial1.png","false","false","https://kisumu-drawings.s3-us-west-1.amazonaws.com/tracings/S18_age4_trial1.png","2","",""
"","16869","image-button-response","11","null","479564","68895b4cc3548521ab78eeca","688a38416290b6bbb1f0e083","67dda00e83d591e9a6123c5f","5","S18_age4_trial5.png","false","false","https://kisumu-drawings.s3-us-west-1.amazonaws.com/tracings/S18_age4_trial5.png","1","",""
"","16738","image-button-response","12","null","496818","68895b4cc3548521ab78eeca","688a38416290b6bbb1f0e083","67dda00e83d591e9a6123c5f","3","S68_age7_trial3.png","false","false","https://kisumu-drawings.s3-us-west-1.amazonaws.com/tracings/S68_age7_trial3.png","5","",""
"","6178","image-button-response","13","null","503505","68895b4cc3548521ab78eeca","688a38416290b6bbb1f0e083","67dda00e83d591e9a6123c5f","1","S17_age4_trial1.png","false","false","https://kisumu-drawings.s3-us-west-1.amazonaws.com/tracings/S17_age4_trial1.png","4","",""
"","5034","image-button-response","14","null","509043","68895b4cc3548521ab78eeca","688a38416290b6bbb1f0e083","67dda00e83d591e9a6123c5f","5","S88_age8_trial5.png","false","false","https://kisumu-drawings.s3-us-west-1.amazonaws.com/tracings/S88_age8_trial5.png","5","",""
"","80159","image-button-response","15","null","589714","68895b4cc3548521ab78eeca","688a38416290b6bbb1f0e083","67dda00e83d591e9a6123c5f","5","S108_age9_trial5.png","false","false","https://kisumu-drawings.s3-us-west-1.amazonaws.com/tracings/S108_age9_trial5.png","5","",""
"","13242","image-button-response","16","null","603469","68895b4cc3548521ab78eeca","688a38416290b6bbb1f0e083","67dda00e83d591e9a6123c5f","1","S88_age8_trial1.png","false","false","https://kisumu-drawings.s3-us-west-1.amazonaws.com/tracings/S88_age8_trial1.png","5","",""
"","5295","image-button-response","17","null","609272","68895b4cc3548521ab78eeca","688a38416290b6bbb1f0e083","67dda00e83d591e9a6123c5f","2","S108_age9_trial2.png","false","false","https://kisumu-drawings.s3-us-west-1.amazonaws.com/tracings/S108_age9_trial2.png","5","",""
"","24066","image-button-response","18","null","633846","68895b4cc3548521ab78eeca","688a38416290b6bbb1f0e083","67dda00e83d591e9a6123c5f","2","S88_age8_trial2.png","false","false","https://kisumu-drawings.s3-us-west-1.amazonaws.com/tracings/S88_age8_trial2.png","5","",""
"","19384","image-button-response","19","null","653739","68895b4cc3548521ab78eeca","688a38416290b6bbb1f0e083","67dda00e83d591e9a6123c5f","1","S70_age7_trial1.png","false","false","https://kisumu-drawings.s3-us-west-1.amazonaws.com/tracings/S70_age7_trial1.png","5","",""
"","10403","image-button-response","20","null","664659","68895b4cc3548521ab78eeca","688a38416290b6bbb1f0e083","67dda00e83d591e9a6123c5f","5","S89_age8_trial5.png","false","false","https://kisumu-drawings.s3-us-west-1.amazonaws.com/tracings/S89_age8_trial5.png","5","",""
"","25179","image-button-response","21","null","690357","68895b4cc3548521ab78eeca","688a38416290b6bbb1f0e083","67dda00e83d591e9a6123c5f","2","S87_age8_trial2.png","false","false","https://kisumu-drawings.s3-us-west-1.amazonaws.com/tracings/S87_age8_trial2.png","1","",""
"","30926","image-button-response","22","null","721787","68895b4cc3548521ab78eeca","688a38416290b6bbb1f0e083","67dda00e83d591e9a6123c5f","5","S29_age5_trial5.png","false","false","https://kisumu-drawings.s3-us-west-1.amazonaws.com/tracings/S29_age5_trial5.png","1","",""
"","1342","image-button-response","23","null","723644","68895b4cc3548521ab78eeca","688a38416290b6bbb1f0e083","67dda00e83d591e9a6123c5f","5","S48_age6_trial5.png","false","false","https://kisumu-drawings.s3-us-west-1.amazonaws.com/tracings/S48_age6_trial5.png","1","",""
"","5065","image-button-response","24","null","729213","68895b4cc3548521ab78eeca","688a38416290b6bbb1f0e083","67dda00e83d591e9a6123c5f","1","S49_age6_trial1.png","false","false","https://kisumu-drawings.s3-us-west-1.amazonaws.com/tracings/S49_age6_trial1.png","4","",""
"","6668","image-button-response","25","null","736385","68895b4cc3548521ab78eeca","688a38416290b6bbb1f0e083","67dda00e83d591e9a6123c5f","4","S17_age4_trial4.png","false","false","https://kisumu-drawings.s3-us-west-1.amazonaws.com/tracings/S17_age4_trial4.png","5","",""
"","2060","image-button-response","26","null","738960","68895b4cc3548521ab78eeca","688a38416290b6bbb1f0e083","67dda00e83d591e9a6123c5f","4","S70_age7_trial4.png","false","false","https://kisumu-drawings.s3-us-west-1.amazonaws.com/tracings/S70_age7_trial4.png","4","",""
"","1240","image-button-response","27","null","740714","68895b4cc3548521ab78eeca","688a38416290b6bbb1f0e083","67dda00e83d591e9a6123c5f","3","S110_age9_trial3.png","false","false","https://kisumu-drawings.s3-us-west-1.amazonaws.com/tracings/S110_age9_trial3.png","4","",""
"","7266","image-button-response","28","null","748496","68895b4cc3548521ab78eeca","688a38416290b6bbb1f0e083","67dda00e83d591e9a6123c5f","2","S49_age6_trial2.png","false","false","https://kisumu-drawings.s3-us-west-1.amazonaws.com/tracings/S49_age6_trial2.png","3","",""
"","10879","image-button-response","29","null","759886","68895b4cc3548521ab78eeca","688a38416290b6bbb1f0e083","67dda00e83d591e9a6123c5f","3","S69_age7_trial3.png","false","false","https://kisumu-drawings.s3-us-west-1.amazonaws.com/tracings/S69_age7_trial3.png","5","",""
"","5790","image-button-response","30","null","766186","68895b4cc3548521ab78eeca","688a38416290b6bbb1f0e083","67dda00e83d591e9a6123c5f","3","S17_age4_trial3.png","false","false","https://kisumu-drawings.s3-us-west-1.amazonaws.com/tracings/S17_age4_trial3.png","1","",""
"","4147","image-button-response","31","null","770834","68895b4cc3548521ab78eeca","688a38416290b6bbb1f0e083","67dda00e83d591e9a6123c5f","4","S48_age6_trial4.png","false","false","https://kisumu-drawings.s3-us-west-1.amazonaws.com/tracings/S48_age6_trial4.png","1","",""
"","2879","image-button-response","32","null","774227","68895b4cc3548521ab78eeca","688a38416290b6bbb1f0e083","67dda00e83d591e9a6123c5f","3","S86_age8_trial3.png","false","false","https://kisumu-drawings.s3-us-west-1.amazonaws.com/tracings/S86_age8_trial3.png","4","",""
"","6294","image-button-response","33","null","781036","68895b4cc3548521ab78eeca","688a38416290b6bbb1f0e083","67dda00e83d591e9a6123c5f","1","S87_age8_trial1.png","false","false","https://kisumu-drawings.s3-us-west-1.amazonaws.com/tracings/S87_age8_trial1.png","4","",""
"","6289","image-button-response","34","null","787837","68895b4cc3548521ab78eeca","688a38416290b6bbb1f0e083","67dda00e83d591e9a6123c5f","5","S70_age7_trial5.png","false","false","https://kisumu-drawings.s3-us-west-1.amazonaws.com/tracings/S70_age7_trial5.png","5","",""
"","12041","image-button-response","35","null","800397","68895b4cc3548521ab78eeca","688a38416290b6bbb1f0e083","67dda00e83d591e9a6123c5f","","","true","false","stimuli/catch_trials/catch_trial.png","4","","5"
"","8030","image-button-response","36","null","808944","68895b4cc3548521ab78eeca","688a38416290b6bbb1f0e083","67dda00e83d591e9a6123c5f","4","S49_age6_trial4.png","false","false","https://kisumu-drawings.s3-us-west-1.amazonaws.com/tracings/S49_age6_trial4.png","4","",""
"","6030","image-button-response","37","null","815486","68895b4cc3548521ab78eeca","688a38416290b6bbb1f0e083","67dda00e83d591e9a6123c5f","1","S69_age7_trial1.png","false","false","https://kisumu-drawings.s3-us-west-1.amazonaws.com/tracings/S69_age7_trial1.png","4","",""
"","4725","image-button-response","38","null","820720","68895b4cc3548521ab78eeca","688a38416290b6bbb1f0e083","67dda00e83d591e9a6123c5f","5","S30_age5_trial5.png","false","false","https://kisumu-drawings.s3-us-west-1.amazonaws.com/tracings/S30_age5_trial5.png","1","",""
"","5166","image-button-response","39","null","826390","68895b4cc3548521ab78eeca","688a38416290b6bbb1f0e083","67dda00e83d591e9a6123c5f","5","S19_age4_trial5.png","false","false","https://kisumu-drawings.s3-us-west-1.amazonaws.com/tracings/S19_age4_trial5.png","1","",""
"","7379","image-button-response","40","null","834279","68895b4cc3548521ab78eeca","688a38416290b6bbb1f0e083","67dda00e83d591e9a6123c5f","1","S109_age9_trial1.png","false","false","https://kisumu-drawings.s3-us-west-1.amazonaws.com/tracings/S109_age9_trial1.png","5","",""
"","7843","image-button-response","41","null","842630","68895b4cc3548521ab78eeca","688a38416290b6bbb1f0e083","67dda00e83d591e9a6123c5f","5","S47_age6_trial5.png","false","false","https://kisumu-drawings.s3-us-west-1.amazonaws.com/tracings/S47_age6_trial5.png","5","",""
"","6899","image-button-response","42","null","850035","68895b4cc3548521ab78eeca","688a38416290b6bbb1f0e083","67dda00e83d591e9a6123c5f","5","S109_age9_trial5.png","false","false","https://kisumu-drawings.s3-us-west-1.amazonaws.com/tracings/S109_age9_trial5.png","5","",""
"","27197","image-button-response","43","null","877741","68895b4cc3548521ab78eeca","688a38416290b6bbb1f0e083","67dda00e83d591e9a6123c5f","4","S88_age8_trial4.png","false","false","https://kisumu-drawings.s3-us-west-1.amazonaws.com/tracings/S88_age8_trial4.png","5","",""
"","11296","image-button-response","44","null","889544","68895b4cc3548521ab78eeca","688a38416290b6bbb1f0e083","67dda00e83d591e9a6123c5f","4","S27_age5_trial4.png","false","false","https://kisumu-drawings.s3-us-west-1.amazonaws.com/tracings/S27_age5_trial4.png","2","",""
"","15113","image-button-response","45","null","905171","68895b4cc3548521ab78eeca","688a38416290b6bbb1f0e083","67dda00e83d591e9a6123c5f","4","S18_age4_trial4.png","false","false","https://kisumu-drawings.s3-us-west-1.amazonaws.com/tracings/S18_age4_trial4.png","2","",""
"","23031","image-button-response","46","null","928720","68895b4cc3548521ab78eeca","688a38416290b6bbb1f0e083","67dda00e83d591e9a6123c5f","2","S70_age7_trial2.png","false","false","https://kisumu-drawings.s3-us-west-1.amazonaws.com/tracings/S70_age7_trial2.png","5","",""
"","29175","image-button-response","47","null","958406","68895b4cc3548521ab78eeca","688a38416290b6bbb1f0e083","67dda00e83d591e9a6123c5f","2","S69_age7_trial2.png","false","false","https://kisumu-drawings.s3-us-west-1.amazonaws.com/tracings/S69_age7_trial2.png","4","",""
"","4405","image-button-response","48","null","963314","68895b4cc3548521ab78eeca","688a38416290b6bbb1f0e083","67dda00e83d591e9a6123c5f","2","S50_age6_trial2.png","false","false","https://kisumu-drawings.s3-us-west-1.amazonaws.com/tracings/S50_age6_trial2.png","4","",""
"","4696","image-button-response","49","null","968523","68895b4cc3548521ab78eeca","688a38416290b6bbb1f0e083","67dda00e83d591e9a6123c5f","3","S49_age6_trial3.png","false","false","https://kisumu-drawings.s3-us-west-1.amazonaws.com/tracings/S49_age6_trial3.png","2","",""
"","6459","image-button-response","50","null","975487","68895b4cc3548521ab78eeca","688a38416290b6bbb1f0e083","67dda00e83d591e9a6123c5f","1","S48_age6_trial1.png","false","false","https://kisumu-drawings.s3-us-west-1.amazonaws.com/tracings/S48_age6_trial1.png","1","",""
"","10193","image-button-response","51","null","986192","68895b4cc3548521ab78eeca","688a38416290b6bbb1f0e083","67dda00e83d591e9a6123c5f","1","S110_age9_trial1.png","false","false","https://kisumu-drawings.s3-us-west-1.amazonaws.com/tracings/S110_age9_trial1.png","5","",""
"","6210","image-button-response","52","null","992906","68895b4cc3548521ab78eeca","688a38416290b6bbb1f0e083","67dda00e83d591e9a6123c5f","3","S29_age5_trial3.png","false","false","https://kisumu-drawings.s3-us-west-1.amazonaws.com/tracings/S29_age5_trial3.png","1","",""
"","6774","image-button-response","53","null","1000193","68895b4cc3548521ab78eeca","688a38416290b6bbb1f0e083","67dda00e83d591e9a6123c5f","2","S18_age4_trial2.png","false","false","https://kisumu-drawings.s3-us-west-1.amazonaws.com/tracings/S18_age4_trial2.png","1","",""
"","7276","image-button-response","54","null","1007979","68895b4cc3548521ab78eeca","688a38416290b6bbb1f0e083","67dda00e83d591e9a6123c5f","3","S109_age9_trial3.png","false","false","https://kisumu-drawings.s3-us-west-1.amazonaws.com/tracings/S109_age9_trial3.png","4","",""
"","4000","image-button-response","55","null","1012485","68895b4cc3548521ab78eeca","688a38416290b6bbb1f0e083","67dda00e83d591e9a6123c5f","2","S29_age5_trial2.png","false","false","https://kisumu-drawings.s3-us-west-1.amazonaws.com/tracings/S29_age5_trial2.png","1","",""
"","8198","image-button-response","56","null","1021194","68895b4cc3548521ab78eeca","688a38416290b6bbb1f0e083","67dda00e83d591e9a6123c5f","5","S69_age7_trial5.png","false","false","https://kisumu-drawings.s3-us-west-1.amazonaws.com/tracings/S69_age7_trial5.png","5","",""
"","6197","image-button-response","57","null","1027910","68895b4cc3548521ab78eeca","688a38416290b6bbb1f0e083","67dda00e83d591e9a6123c5f","2","S109_age9_trial2.png","false","false","https://kisumu-drawings.s3-us-west-1.amazonaws.com/tracings/S109_age9_trial2.png","4","",""
"","10338","image-button-response","58","null","1038762","68895b4cc3548521ab78eeca","688a38416290b6bbb1f0e083","67dda00e83d591e9a6123c5f","3","S87_age8_trial3.png","false","false","https://kisumu-drawings.s3-us-west-1.amazonaws.com/tracings/S87_age8_trial3.png","4","",""
"","15708","image-button-response","59","null","1054976","68895b4cc3548521ab78eeca","688a38416290b6bbb1f0e083","67dda00e83d591e9a6123c5f","4","S110_age9_trial4.png","false","false","https://kisumu-drawings.s3-us-west-1.amazonaws.com/tracings/S110_age9_trial4.png","1","",""
"","7673","image-button-response","60","null","1063160","68895b4cc3548521ab78eeca","688a38416290b6bbb1f0e083","67dda00e83d591e9a6123c5f","4","S28_age5_trial4.png","false","false","https://kisumu-drawings.s3-us-west-1.amazonaws.com/tracings/S28_age5_trial4.png","2","",""
"","19256","image-button-response","61","null","1082927","68895b4cc3548521ab78eeca","688a38416290b6bbb1f0e083","67dda00e83d591e9a6123c5f","4","S69_age7_trial4.png","false","false","https://kisumu-drawings.s3-us-west-1.amazonaws.com/tracings/S69_age7_trial4.png","4","",""
