"view_history","rt","trial_type","trial_index","plugin_version","time_elapsed","study_id","session_id","participant_id","tracing_type","tracing_id","catch_trial","prep_trial","stimulus","response","sketcher_category","response_category"
"[{""page_index"":0,""viewing_time"":114309},{""page_index"":1,""viewing_time"":98745},{""page_index"":2,""viewing_time"":36008},{""page_index"":3,""viewing_time"":3288},{""page_index"":4,""viewing_time"":16303}]","268654","instructions","0","null","268679","68895b4cc3548521ab78eeca","688a51ec2946b7fb382eda28","67e85abca44b52f2e03fcbb1","","","","","","","",""
"","15474","image-button-response","1","null","285168","68895b4cc3548521ab78eeca","688a51ec2946b7fb382eda28","67e85abca44b52f2e03fcbb1","3","S17_age4_trial3.png","false","false","https://kisumu-drawings.s3-us-west-1.amazonaws.com/tracings/S17_age4_trial3.png","2","",""
"","14326","image-button-response","2","null","300009","68895b4cc3548521ab78eeca","688a51ec2946b7fb382eda28","67e85abca44b52f2e03fcbb1","1","S70_age7_trial1.png","false","false","https://kisumu-drawings.s3-us-west-1.amazonaws.com/tracings/S70_age7_trial1.png","4","",""
"","9814","image-button-response","3","null","310324","68895b4cc3548521ab78eeca","688a51ec2946b7fb382eda28","67e85abca44b52f2e03fcbb1","3","S51_age6_trial3.png","false","false","https://kisumu-drawings.s3-us-west-1.amazonaws.com/tracings/S51_age6_trial3.png","1","",""
"","16462","image-button-response","4","null","327293","68895b4cc3548521ab78eeca","688a51ec2946b7fb382eda28","67e85abca44b52f2e03fcbb1","4","S69_age7_trial4.png","false","false","https://kisumu-drawings.s3-us-west-1.amazonaws.com/tracings/S69_age7_trial4.png","4","",""
"","10460","image-button-response","5","null","338261","68895b4cc3548521ab78eeca","688a51ec2946b7fb382eda28","67e85abca44b52f2e03fcbb1","4","S110_age9_trial4.png","false","false","https://kisumu-drawings.s3-us-west-1.amazonaws.com/tracings/S110_age9_trial4.png","3","",""
"","11302","image-button-response","6","null","350073","68895b4cc3548521ab78eeca","688a51ec2946b7fb382eda28","67e85abca44b52f2e03fcbb1","5","S18_age4_trial5.png","false","false","https://kisumu-drawings.s3-us-west-1.amazonaws.com/tracings/S18_age4_trial5.png","1","",""
"","15883","image-button-response","7","null","366471","68895b4cc3548521ab78eeca","688a51ec2946b7fb382eda28","67e85abca44b52f2e03fcbb1","5","S19_age4_trial5.png","false","false","https://kisumu-drawings.s3-us-west-1.amazonaws.com/tracings/S19_age4_trial5.png","2","",""
"","16585","image-button-response","8","null","383572","68895b4cc3548521ab78eeca","688a51ec2946b7fb382eda28","67e85abca44b52f2e03fcbb1","2","S50_age6_trial2.png","false","false","https://kisumu-drawings.s3-us-west-1.amazonaws.com/tracings/S50_age6_trial2.png","4","",""
"","15684","image-button-response","9","null","399759","68895b4cc3548521ab78eeca","688a51ec2946b7fb382eda28","67e85abca44b52f2e03fcbb1","5","S50_age6_trial5.png","false","false","https://kisumu-drawings.s3-us-west-1.amazonaws.com/tracings/S50_age6_trial5.png","4","",""
"","10690","image-button-response","10","null","410961","68895b4cc3548521ab78eeca","688a51ec2946b7fb382eda28","67e85abca44b52f2e03fcbb1","1","S88_age8_trial1.png","false","false","https://kisumu-drawings.s3-us-west-1.amazonaws.com/tracings/S88_age8_trial1.png","4","",""
"","9136","image-button-response","11","null","420614","68895b4cc3548521ab78eeca","688a51ec2946b7fb382eda28","67e85abca44b52f2e03fcbb1","3","S69_age7_trial3.png","false","false","https://kisumu-drawings.s3-us-west-1.amazonaws.com/tracings/S69_age7_trial3.png","4","",""
"","12468","image-button-response","12","null","433588","68895b4cc3548521ab78eeca","688a51ec2946b7fb382eda28","67e85abca44b52f2e03fcbb1","1","S69_age7_trial1.png","false","false","https://kisumu-drawings.s3-us-west-1.amazonaws.com/tracings/S69_age7_trial1.png","4","",""
"","9470","image-button-response","13","null","443562","68895b4cc3548521ab78eeca","688a51ec2946b7fb382eda28","67e85abca44b52f2e03fcbb1","4","S70_age7_trial4.png","false","false","https://kisumu-drawings.s3-us-west-1.amazonaws.com/tracings/S70_age7_trial4.png","4","",""
"","4523","image-button-response","14","null","448602","68895b4cc3548521ab78eeca","688a51ec2946b7fb382eda28","67e85abca44b52f2e03fcbb1","3","S30_age5_trial3.png","false","false","https://kisumu-drawings.s3-us-west-1.amazonaws.com/tracings/S30_age5_trial3.png","2","",""
"","9316","image-button-response","15","null","458421","68895b4cc3548521ab78eeca","688a51ec2946b7fb382eda28","67e85abca44b52f2e03fcbb1","3","S110_age9_trial3.png","false","false","https://kisumu-drawings.s3-us-west-1.amazonaws.com/tracings/S110_age9_trial3.png","3","",""
"","9211","image-button-response","16","null","468140","68895b4cc3548521ab78eeca","688a51ec2946b7fb382eda28","67e85abca44b52f2e03fcbb1","1","S50_age6_trial1.png","false","false","https://kisumu-drawings.s3-us-west-1.amazonaws.com/tracings/S50_age6_trial1.png","4","",""
"","7828","image-button-response","17","null","476478","68895b4cc3548521ab78eeca","688a51ec2946b7fb382eda28","67e85abca44b52f2e03fcbb1","2","S29_age5_trial2.png","false","false","https://kisumu-drawings.s3-us-west-1.amazonaws.com/tracings/S29_age5_trial2.png","2","",""
"","21720","image-button-response","18","null","498715","68895b4cc3548521ab78eeca","688a51ec2946b7fb382eda28","67e85abca44b52f2e03fcbb1","2","S108_age9_trial2.png","false","false","https://kisumu-drawings.s3-us-west-1.amazonaws.com/tracings/S108_age9_trial2.png","4","",""
"","74294","image-button-response","19","null","573513","68895b4cc3548521ab78eeca","688a51ec2946b7fb382eda28","67e85abca44b52f2e03fcbb1","5","S89_age8_trial5.png","false","false","https://kisumu-drawings.s3-us-west-1.amazonaws.com/tracings/S89_age8_trial5.png","4","",""
"","8804","image-button-response","20","null","582827","68895b4cc3548521ab78eeca","688a51ec2946b7fb382eda28","67e85abca44b52f2e03fcbb1","4","S30_age5_trial4.png","false","false","https://kisumu-drawings.s3-us-west-1.amazonaws.com/tracings/S30_age5_trial4.png","1","",""
"","5593","image-button-response","21","null","588932","68895b4cc3548521ab78eeca","688a51ec2946b7fb382eda28","67e85abca44b52f2e03fcbb1","4","S50_age6_trial4.png","false","false","https://kisumu-drawings.s3-us-west-1.amazonaws.com/tracings/S50_age6_trial4.png","2","",""
"","9920","image-button-response","22","null","599361","68895b4cc3548521ab78eeca","688a51ec2946b7fb382eda28","67e85abca44b52f2e03fcbb1","2","S51_age6_trial2.png","false","false","https://kisumu-drawings.s3-us-west-1.amazonaws.com/tracings/S51_age6_trial2.png","4","",""
"","8582","image-button-response","23","null","608461","68895b4cc3548521ab78eeca","688a51ec2946b7fb382eda28","67e85abca44b52f2e03fcbb1","5","S49_age6_trial5.png","false","false","https://kisumu-drawings.s3-us-west-1.amazonaws.com/tracings/S49_age6_trial5.png","4","",""
"","6530","image-button-response","24","null","615505","68895b4cc3548521ab78eeca","688a51ec2946b7fb382eda28","67e85abca44b52f2e03fcbb1","3","S29_age5_trial3.png","false","false","https://kisumu-drawings.s3-us-west-1.amazonaws.com/tracings/S29_age5_trial3.png","1","",""
"","7204","image-button-response","25","null","623228","68895b4cc3548521ab78eeca","688a51ec2946b7fb382eda28","67e85abca44b52f2e03fcbb1","2","S70_age7_trial2.png","false","false","https://kisumu-drawings.s3-us-west-1.amazonaws.com/tracings/S70_age7_trial2.png","5","",""
"","8158","image-button-response","26","null","631904","68895b4cc3548521ab78eeca","688a51ec2946b7fb382eda28","67e85abca44b52f2e03fcbb1","2","S30_age5_trial2.png","false","false","https://kisumu-drawings.s3-us-west-1.amazonaws.com/tracings/S30_age5_trial2.png","4","",""
"","11409","image-button-response","27","null","643821","68895b4cc3548521ab78eeca","688a51ec2946b7fb382eda28","67e85abca44b52f2e03fcbb1","2","S18_age4_trial2.png","false","false","https://kisumu-drawings.s3-us-west-1.amazonaws.com/tracings/S18_age4_trial2.png","3","",""
"","4043","image-button-response","28","null","648372","68895b4cc3548521ab78eeca","688a51ec2946b7fb382eda28","67e85abca44b52f2e03fcbb1","4","S29_age5_trial4.png","false","false","https://kisumu-drawings.s3-us-west-1.amazonaws.com/tracings/S29_age5_trial4.png","1","",""
"","7969","image-button-response","29","null","656859","68895b4cc3548521ab78eeca","688a51ec2946b7fb382eda28","67e85abca44b52f2e03fcbb1","3","S70_age7_trial3.png","false","false","https://kisumu-drawings.s3-us-west-1.amazonaws.com/tracings/S70_age7_trial3.png","5","",""
"","7619","image-button-response","30","null","664989","68895b4cc3548521ab78eeca","688a51ec2946b7fb382eda28","67e85abca44b52f2e03fcbb1","","","true","false","stimuli/catch_trials/catch_trial.png","0","","1"
"","29876","image-button-response","31","null","695370","68895b4cc3548521ab78eeca","688a51ec2946b7fb382eda28","67e85abca44b52f2e03fcbb1","5","S30_age5_trial5.png","false","false","https://kisumu-drawings.s3-us-west-1.amazonaws.com/tracings/S30_age5_trial5.png","3","",""
"","8738","image-button-response","32","null","704621","68895b4cc3548521ab78eeca","688a51ec2946b7fb382eda28","67e85abca44b52f2e03fcbb1","3","S88_age8_trial3.png","false","false","https://kisumu-drawings.s3-us-west-1.amazonaws.com/tracings/S88_age8_trial3.png","4","",""
"","6319","image-button-response","33","null","711455","68895b4cc3548521ab78eeca","688a51ec2946b7fb382eda28","67e85abca44b52f2e03fcbb1","1","S49_age6_trial1.png","false","false","https://kisumu-drawings.s3-us-west-1.amazonaws.com/tracings/S49_age6_trial1.png","4","",""
"","3758","image-button-response","34","null","715727","68895b4cc3548521ab78eeca","688a51ec2946b7fb382eda28","67e85abca44b52f2e03fcbb1","1","S30_age5_trial1.png","false","false","https://kisumu-drawings.s3-us-west-1.amazonaws.com/tracings/S30_age5_trial1.png","4","",""
"","5253","image-button-response","35","null","721488","68895b4cc3548521ab78eeca","688a51ec2946b7fb382eda28","67e85abca44b52f2e03fcbb1","4","S109_age9_trial4.png","false","false","https://kisumu-drawings.s3-us-west-1.amazonaws.com/tracings/S109_age9_trial4.png","4","",""
"","7730","image-button-response","36","null","729722","68895b4cc3548521ab78eeca","688a51ec2946b7fb382eda28","67e85abca44b52f2e03fcbb1","4","S88_age8_trial4.png","false","false","https://kisumu-drawings.s3-us-west-1.amazonaws.com/tracings/S88_age8_trial4.png","4","",""
"","8339","image-button-response","37","null","738572","68895b4cc3548521ab78eeca","688a51ec2946b7fb382eda28","67e85abca44b52f2e03fcbb1","2","S69_age7_trial2.png","false","false","https://kisumu-drawings.s3-us-west-1.amazonaws.com/tracings/S69_age7_trial2.png","5","",""
"","8594","image-button-response","38","null","747684","68895b4cc3548521ab78eeca","688a51ec2946b7fb382eda28","67e85abca44b52f2e03fcbb1","3","S109_age9_trial3.png","false","false","https://kisumu-drawings.s3-us-west-1.amazonaws.com/tracings/S109_age9_trial3.png","5","",""
"","9376","image-button-response","39","null","757577","68895b4cc3548521ab78eeca","688a51ec2946b7fb382eda28","67e85abca44b52f2e03fcbb1","2","S109_age9_trial2.png","false","false","https://kisumu-drawings.s3-us-west-1.amazonaws.com/tracings/S109_age9_trial2.png","5","",""
"","19246","image-button-response","40","null","777339","68895b4cc3548521ab78eeca","688a51ec2946b7fb382eda28","67e85abca44b52f2e03fcbb1","1","S17_age4_trial1.png","false","false","https://kisumu-drawings.s3-us-west-1.amazonaws.com/tracings/S17_age4_trial1.png","4","",""
"","6171","image-button-response","41","null","784028","68895b4cc3548521ab78eeca","688a51ec2946b7fb382eda28","67e85abca44b52f2e03fcbb1","1","S87_age8_trial1.png","false","false","https://kisumu-drawings.s3-us-west-1.amazonaws.com/tracings/S87_age8_trial1.png","4","",""
"","29064","image-button-response","42","null","813611","68895b4cc3548521ab78eeca","688a51ec2946b7fb382eda28","67e85abca44b52f2e03fcbb1","5","S70_age7_trial5.png","false","false","https://kisumu-drawings.s3-us-west-1.amazonaws.com/tracings/S70_age7_trial5.png","5","",""
"","19212","image-button-response","43","null","833341","68895b4cc3548521ab78eeca","688a51ec2946b7fb382eda28","67e85abca44b52f2e03fcbb1","4","S89_age8_trial4.png","false","false","https://kisumu-drawings.s3-us-west-1.amazonaws.com/tracings/S89_age8_trial4.png","4","",""
"","8373","image-button-response","44","null","842227","68895b4cc3548521ab78eeca","688a51ec2946b7fb382eda28","67e85abca44b52f2e03fcbb1","5","S109_age9_trial5.png","false","false","https://kisumu-drawings.s3-us-west-1.amazonaws.com/tracings/S109_age9_trial5.png","5","",""
"","6926","image-button-response","45","null","849667","68895b4cc3548521ab78eeca","688a51ec2946b7fb382eda28","67e85abca44b52f2e03fcbb1","5","S29_age5_trial5.png","false","false","https://kisumu-drawings.s3-us-west-1.amazonaws.com/tracings/S29_age5_trial5.png","1","",""
"","18837","image-button-response","46","null","869018","68895b4cc3548521ab78eeca","688a51ec2946b7fb382eda28","67e85abca44b52f2e03fcbb1","4","S18_age4_trial4.png","false","false","https://kisumu-drawings.s3-us-west-1.amazonaws.com/tracings/S18_age4_trial4.png","2","",""
"","8463","image-button-response","47","null","877990","68895b4cc3548521ab78eeca","688a51ec2946b7fb382eda28","67e85abca44b52f2e03fcbb1","2","S19_age4_trial2.png","false","false","https://kisumu-drawings.s3-us-west-1.amazonaws.com/tracings/S19_age4_trial2.png","2","",""
"","9572","image-button-response","48","null","888070","68895b4cc3548521ab78eeca","688a51ec2946b7fb382eda28","67e85abca44b52f2e03fcbb1","2","S89_age8_trial2.png","false","false","https://kisumu-drawings.s3-us-west-1.amazonaws.com/tracings/S89_age8_trial2.png","4","",""
"","6871","image-button-response","49","null","895455","68895b4cc3548521ab78eeca","688a51ec2946b7fb382eda28","67e85abca44b52f2e03fcbb1","2","S88_age8_trial2.png","false","false","https://kisumu-drawings.s3-us-west-1.amazonaws.com/tracings/S88_age8_trial2.png","4","",""
"","6928","image-button-response","50","null","902894","68895b4cc3548521ab78eeca","688a51ec2946b7fb382eda28","67e85abca44b52f2e03fcbb1","4","S19_age4_trial4.png","false","false","https://kisumu-drawings.s3-us-west-1.amazonaws.com/tracings/S19_age4_trial4.png","1","",""
"","7045","image-button-response","51","null","910457","68895b4cc3548521ab78eeca","688a51ec2946b7fb382eda28","67e85abca44b52f2e03fcbb1","1","S110_age9_trial1.png","false","false","https://kisumu-drawings.s3-us-west-1.amazonaws.com/tracings/S110_age9_trial1.png","4","",""
"","7187","image-button-response","52","null","918154","68895b4cc3548521ab78eeca","688a51ec2946b7fb382eda28","67e85abca44b52f2e03fcbb1","3","S18_age4_trial3.png","false","false","https://kisumu-drawings.s3-us-west-1.amazonaws.com/tracings/S18_age4_trial3.png","2","",""
"","3595","image-button-response","53","null","922263","68895b4cc3548521ab78eeca","688a51ec2946b7fb382eda28","67e85abca44b52f2e03fcbb1","1","S29_age5_trial1.png","false","false","https://kisumu-drawings.s3-us-west-1.amazonaws.com/tracings/S29_age5_trial1.png","2","",""
"","7931","image-button-response","54","null","930705","68895b4cc3548521ab78eeca","688a51ec2946b7fb382eda28","67e85abca44b52f2e03fcbb1","5","S110_age9_trial5.png","false","false","https://kisumu-drawings.s3-us-west-1.amazonaws.com/tracings/S110_age9_trial5.png","4","",""
"","5497","image-button-response","55","null","936715","68895b4cc3548521ab78eeca","688a51ec2946b7fb382eda28","67e85abca44b52f2e03fcbb1","5","S69_age7_trial5.png","false","false","https://kisumu-drawings.s3-us-west-1.amazonaws.com/tracings/S69_age7_trial5.png","4","",""
"","29922","image-button-response","56","null","967144","68895b4cc3548521ab78eeca","688a51ec2946b7fb382eda28","67e85abca44b52f2e03fcbb1","1","S18_age4_trial1.png","false","false","https://kisumu-drawings.s3-us-west-1.amazonaws.com/tracings/S18_age4_trial1.png","4","",""
"","9587","image-button-response","57","null","977246","68895b4cc3548521ab78eeca","688a51ec2946b7fb382eda28","67e85abca44b52f2e03fcbb1","3","S50_age6_trial3.png","false","false","https://kisumu-drawings.s3-us-west-1.amazonaws.com/tracings/S50_age6_trial3.png","4","",""
"","16130","image-button-response","58","null","993892","68895b4cc3548521ab78eeca","688a51ec2946b7fb382eda28","67e85abca44b52f2e03fcbb1","5","S88_age8_trial5.png","false","false","https://kisumu-drawings.s3-us-west-1.amazonaws.com/tracings/S88_age8_trial5.png","4","",""
"","9318","image-button-response","59","null","1003715","68895b4cc3548521ab78eeca","688a51ec2946b7fb382eda28","67e85abca44b52f2e03fcbb1","1","S109_age9_trial1.png","false","false","https://kisumu-drawings.s3-us-west-1.amazonaws.com/tracings/S109_age9_trial1.png","5","",""
"","6261","image-button-response","60","null","1010490","68895b4cc3548521ab78eeca","688a51ec2946b7fb382eda28","67e85abca44b52f2e03fcbb1","3","S89_age8_trial3.png","false","false","https://kisumu-drawings.s3-us-west-1.amazonaws.com/tracings/S89_age8_trial3.png","3","",""
"","30804","image-button-response","61","null","1041799","68895b4cc3548521ab78eeca","688a51ec2946b7fb382eda28","67e85abca44b52f2e03fcbb1","4","S49_age6_trial4.png","false","false","https://kisumu-drawings.s3-us-west-1.amazonaws.com/tracings/S49_age6_trial4.png","4","",""
