"view_history","rt","trial_type","trial_index","plugin_version","time_elapsed","study_id","session_id","participant_id","tracing_type","tracing_id","catch_trial","prep_trial","stimulus","response","sketcher_category","response_category"
"[{""page_index"":0,""viewing_time"":15991},{""page_index"":1,""viewing_time"":20159},{""page_index"":2,""viewing_time"":21104},{""page_index"":3,""viewing_time"":9064},{""page_index"":4,""viewing_time"":25904}]","92223","instructions","0","null","92258","68895b4cc3548521ab78eeca","688a6581694a767fb4f00030","67ed8a9ef13251ff7c8b66a8","","","","","","","",""
"","16884","image-button-response","1","null","110152","68895b4cc3548521ab78eeca","688a6581694a767fb4f00030","67ed8a9ef13251ff7c8b66a8","1","S18_age4_trial1.png","false","false","https://kisumu-drawings.s3-us-west-1.amazonaws.com/tracings/S18_age4_trial1.png","2","",""
"","9718","image-button-response","2","null","120377","68895b4cc3548521ab78eeca","688a6581694a767fb4f00030","67ed8a9ef13251ff7c8b66a8","5","S30_age5_trial5.png","false","false","https://kisumu-drawings.s3-us-west-1.amazonaws.com/tracings/S30_age5_trial5.png","4","",""
"","17075","image-button-response","3","null","137961","68895b4cc3548521ab78eeca","688a6581694a767fb4f00030","67ed8a9ef13251ff7c8b66a8","5","S110_age9_trial5.png","false","false","https://kisumu-drawings.s3-us-west-1.amazonaws.com/tracings/S110_age9_trial5.png","5","",""
"","14758","image-button-response","4","null","153224","68895b4cc3548521ab78eeca","688a6581694a767fb4f00030","67ed8a9ef13251ff7c8b66a8","4","S111_age9_trial4.png","false","false","https://kisumu-drawings.s3-us-west-1.amazonaws.com/tracings/S111_age9_trial4.png","5","",""
"","15518","image-button-response","5","null","169249","68895b4cc3548521ab78eeca","688a6581694a767fb4f00030","67ed8a9ef13251ff7c8b66a8","2","S30_age5_trial2.png","false","false","https://kisumu-drawings.s3-us-west-1.amazonaws.com/tracings/S30_age5_trial2.png","5","",""
"","16655","image-button-response","6","null","186409","68895b4cc3548521ab78eeca","688a6581694a767fb4f00030","67ed8a9ef13251ff7c8b66a8","3","S17_age4_trial3.png","false","false","https://kisumu-drawings.s3-us-west-1.amazonaws.com/tracings/S17_age4_trial3.png","5","",""
"","9628","image-button-response","7","null","196543","68895b4cc3548521ab78eeca","688a6581694a767fb4f00030","67ed8a9ef13251ff7c8b66a8","4","S19_age4_trial4.png","false","false","https://kisumu-drawings.s3-us-west-1.amazonaws.com/tracings/S19_age4_trial4.png","4","",""
"","8758","image-button-response","8","null","205809","68895b4cc3548521ab78eeca","688a6581694a767fb4f00030","67ed8a9ef13251ff7c8b66a8","3","S29_age5_trial3.png","false","false","https://kisumu-drawings.s3-us-west-1.amazonaws.com/tracings/S29_age5_trial3.png","3","",""
"","8177","image-button-response","9","null","214497","68895b4cc3548521ab78eeca","688a6581694a767fb4f00030","67ed8a9ef13251ff7c8b66a8","2","S51_age6_trial2.png","false","false","https://kisumu-drawings.s3-us-west-1.amazonaws.com/tracings/S51_age6_trial2.png","5","",""
"","9670","image-button-response","10","null","224681","68895b4cc3548521ab78eeca","688a6581694a767fb4f00030","67ed8a9ef13251ff7c8b66a8","4","S50_age6_trial4.png","false","false","https://kisumu-drawings.s3-us-west-1.amazonaws.com/tracings/S50_age6_trial4.png","4","",""
"","10639","image-button-response","11","null","235824","68895b4cc3548521ab78eeca","688a6581694a767fb4f00030","67ed8a9ef13251ff7c8b66a8","4","S29_age5_trial4.png","false","false","https://kisumu-drawings.s3-us-west-1.amazonaws.com/tracings/S29_age5_trial4.png","2","",""
"","6799","image-button-response","12","null","243129","68895b4cc3548521ab78eeca","688a6581694a767fb4f00030","67ed8a9ef13251ff7c8b66a8","5","S89_age8_trial5.png","false","false","https://kisumu-drawings.s3-us-west-1.amazonaws.com/tracings/S89_age8_trial5.png","4","",""
"","6871","image-button-response","13","null","250504","68895b4cc3548521ab78eeca","688a6581694a767fb4f00030","67ed8a9ef13251ff7c8b66a8","5","S69_age7_trial5.png","false","false","https://kisumu-drawings.s3-us-west-1.amazonaws.com/tracings/S69_age7_trial5.png","5","",""
"","16144","image-button-response","14","null","267160","68895b4cc3548521ab78eeca","688a6581694a767fb4f00030","67ed8a9ef13251ff7c8b66a8","1","S69_age7_trial1.png","false","false","https://kisumu-drawings.s3-us-west-1.amazonaws.com/tracings/S69_age7_trial1.png","5","",""
"","8066","image-button-response","15","null","275736","68895b4cc3548521ab78eeca","688a6581694a767fb4f00030","67ed8a9ef13251ff7c8b66a8","4","S90_age8_trial4.png","false","false","https://kisumu-drawings.s3-us-west-1.amazonaws.com/tracings/S90_age8_trial4.png","4","",""
"","12639","image-button-response","16","null","288880","68895b4cc3548521ab78eeca","688a6581694a767fb4f00030","67ed8a9ef13251ff7c8b66a8","3","S69_age7_trial3.png","false","false","https://kisumu-drawings.s3-us-west-1.amazonaws.com/tracings/S69_age7_trial3.png","5","",""
"","11429","image-button-response","17","null","300816","68895b4cc3548521ab78eeca","688a6581694a767fb4f00030","67ed8a9ef13251ff7c8b66a8","5","S109_age9_trial5.png","false","false","https://kisumu-drawings.s3-us-west-1.amazonaws.com/tracings/S109_age9_trial5.png","4","",""
"","11166","image-button-response","18","null","312495","68895b4cc3548521ab78eeca","688a6581694a767fb4f00030","67ed8a9ef13251ff7c8b66a8","3","S30_age5_trial3.png","false","false","https://kisumu-drawings.s3-us-west-1.amazonaws.com/tracings/S30_age5_trial3.png","4","",""
"","8161","image-button-response","19","null","321168","68895b4cc3548521ab78eeca","688a6581694a767fb4f00030","67ed8a9ef13251ff7c8b66a8","1","S49_age6_trial1.png","false","false","https://kisumu-drawings.s3-us-west-1.amazonaws.com/tracings/S49_age6_trial1.png","5","",""
"","7623","image-button-response","20","null","329296","68895b4cc3548521ab78eeca","688a6581694a767fb4f00030","67ed8a9ef13251ff7c8b66a8","3","S89_age8_trial3.png","false","false","https://kisumu-drawings.s3-us-west-1.amazonaws.com/tracings/S89_age8_trial3.png","4","",""
"","7060","image-button-response","21","null","336873","68895b4cc3548521ab78eeca","688a6581694a767fb4f00030","67ed8a9ef13251ff7c8b66a8","1","S90_age8_trial1.png","false","false","https://kisumu-drawings.s3-us-west-1.amazonaws.com/tracings/S90_age8_trial1.png","5","",""
"","7509","image-button-response","22","null","344897","68895b4cc3548521ab78eeca","688a6581694a767fb4f00030","67ed8a9ef13251ff7c8b66a8","2","S88_age8_trial2.png","false","false","https://kisumu-drawings.s3-us-west-1.amazonaws.com/tracings/S88_age8_trial2.png","5","",""
"","5503","image-button-response","23","null","350904","68895b4cc3548521ab78eeca","688a6581694a767fb4f00030","67ed8a9ef13251ff7c8b66a8","1","S50_age6_trial1.png","false","false","https://kisumu-drawings.s3-us-west-1.amazonaws.com/tracings/S50_age6_trial1.png","5","",""
"","8655","image-button-response","24","null","360072","68895b4cc3548521ab78eeca","688a6581694a767fb4f00030","67ed8a9ef13251ff7c8b66a8","2","S110_age9_trial2.png","false","false","https://kisumu-drawings.s3-us-west-1.amazonaws.com/tracings/S110_age9_trial2.png","4","",""
"","6374","image-button-response","25","null","366952","68895b4cc3548521ab78eeca","688a6581694a767fb4f00030","67ed8a9ef13251ff7c8b66a8","2","S50_age6_trial2.png","false","false","https://kisumu-drawings.s3-us-west-1.amazonaws.com/tracings/S50_age6_trial2.png","4","",""
"","6599","image-button-response","26","null","374064","68895b4cc3548521ab78eeca","688a6581694a767fb4f00030","67ed8a9ef13251ff7c8b66a8","4","S30_age5_trial4.png","false","false","https://kisumu-drawings.s3-us-west-1.amazonaws.com/tracings/S30_age5_trial4.png","3","",""
"","7932","image-button-response","27","null","382505","68895b4cc3548521ab78eeca","688a6581694a767fb4f00030","67ed8a9ef13251ff7c8b66a8","2","S109_age9_trial2.png","false","false","https://kisumu-drawings.s3-us-west-1.amazonaws.com/tracings/S109_age9_trial2.png","5","",""
"","11444","image-button-response","28","null","394457","68895b4cc3548521ab78eeca","688a6581694a767fb4f00030","67ed8a9ef13251ff7c8b66a8","1","S110_age9_trial1.png","false","false","https://kisumu-drawings.s3-us-west-1.amazonaws.com/tracings/S110_age9_trial1.png","4","",""
"","6578","image-button-response","29","null","401543","68895b4cc3548521ab78eeca","688a6581694a767fb4f00030","67ed8a9ef13251ff7c8b66a8","2","S1_age4_trial2.png","false","false","https://kisumu-drawings.s3-us-west-1.amazonaws.com/tracings/S1_age4_trial2.png","4","",""
"","6001","image-button-response","30","null","408049","68895b4cc3548521ab78eeca","688a6581694a767fb4f00030","67ed8a9ef13251ff7c8b66a8","3","S109_age9_trial3.png","false","false","https://kisumu-drawings.s3-us-west-1.amazonaws.com/tracings/S109_age9_trial3.png","5","",""
"","8070","image-button-response","31","null","416648","68895b4cc3548521ab78eeca","688a6581694a767fb4f00030","67ed8a9ef13251ff7c8b66a8","4","S51_age6_trial4.png","false","false","https://kisumu-drawings.s3-us-west-1.amazonaws.com/tracings/S51_age6_trial4.png","4","",""
"","8235","image-button-response","32","null","425393","68895b4cc3548521ab78eeca","688a6581694a767fb4f00030","67ed8a9ef13251ff7c8b66a8","3","S110_age9_trial3.png","false","false","https://kisumu-drawings.s3-us-west-1.amazonaws.com/tracings/S110_age9_trial3.png","4","",""
"","8388","image-button-response","33","null","434288","68895b4cc3548521ab78eeca","688a6581694a767fb4f00030","67ed8a9ef13251ff7c8b66a8","2","S20_age4_trial2.png","false","false","https://kisumu-drawings.s3-us-west-1.amazonaws.com/tracings/S20_age4_trial2.png","2","",""
"","8361","image-button-response","34","null","443160","68895b4cc3548521ab78eeca","688a6581694a767fb4f00030","67ed8a9ef13251ff7c8b66a8","3","S88_age8_trial3.png","false","false","https://kisumu-drawings.s3-us-west-1.amazonaws.com/tracings/S88_age8_trial3.png","4","",""
"","6801","image-button-response","35","null","450473","68895b4cc3548521ab78eeca","688a6581694a767fb4f00030","67ed8a9ef13251ff7c8b66a8","1","S70_age7_trial1.png","false","false","https://kisumu-drawings.s3-us-west-1.amazonaws.com/tracings/S70_age7_trial1.png","5","",""
"","7675","image-button-response","36","null","458665","68895b4cc3548521ab78eeca","688a6581694a767fb4f00030","67ed8a9ef13251ff7c8b66a8","5","S50_age6_trial5.png","false","false","https://kisumu-drawings.s3-us-west-1.amazonaws.com/tracings/S50_age6_trial5.png","4","",""
"","7463","image-button-response","37","null","466631","68895b4cc3548521ab78eeca","688a6581694a767fb4f00030","67ed8a9ef13251ff7c8b66a8","5","S88_age8_trial5.png","false","false","https://kisumu-drawings.s3-us-west-1.amazonaws.com/tracings/S88_age8_trial5.png","5","",""
"","6359","image-button-response","38","null","473497","68895b4cc3548521ab78eeca","688a6581694a767fb4f00030","67ed8a9ef13251ff7c8b66a8","4","S71_age7_trial4.png","false","false","https://kisumu-drawings.s3-us-west-1.amazonaws.com/tracings/S71_age7_trial4.png","5","",""
"","5716","image-button-response","39","null","479736","68895b4cc3548521ab78eeca","688a6581694a767fb4f00030","67ed8a9ef13251ff7c8b66a8","3","S50_age6_trial3.png","false","false","https://kisumu-drawings.s3-us-west-1.amazonaws.com/tracings/S50_age6_trial3.png","4","",""
"","7753","image-button-response","40","null","488001","68895b4cc3548521ab78eeca","688a6581694a767fb4f00030","67ed8a9ef13251ff7c8b66a8","2","S70_age7_trial2.png","false","false","https://kisumu-drawings.s3-us-west-1.amazonaws.com/tracings/S70_age7_trial2.png","5","",""
"","8013","image-button-response","41","null","496529","68895b4cc3548521ab78eeca","688a6581694a767fb4f00030","67ed8a9ef13251ff7c8b66a8","2","S29_age5_trial2.png","false","false","https://kisumu-drawings.s3-us-west-1.amazonaws.com/tracings/S29_age5_trial2.png","3","",""
"","9085","image-button-response","42","null","506119","68895b4cc3548521ab78eeca","688a6581694a767fb4f00030","67ed8a9ef13251ff7c8b66a8","5","S49_age6_trial5.png","false","false","https://kisumu-drawings.s3-us-west-1.amazonaws.com/tracings/S49_age6_trial5.png","4","",""
"","43069","image-button-response","43","null","549697","68895b4cc3548521ab78eeca","688a6581694a767fb4f00030","67ed8a9ef13251ff7c8b66a8","2","S69_age7_trial2.png","false","false","https://kisumu-drawings.s3-us-west-1.amazonaws.com/tracings/S69_age7_trial2.png","3","",""
"","59287","image-button-response","44","null","609497","68895b4cc3548521ab78eeca","688a6581694a767fb4f00030","67ed8a9ef13251ff7c8b66a8","3","S51_age6_trial3.png","false","false","https://kisumu-drawings.s3-us-west-1.amazonaws.com/tracings/S51_age6_trial3.png","3","",""
"","105981","image-button-response","45","null","715986","68895b4cc3548521ab78eeca","688a6581694a767fb4f00030","67ed8a9ef13251ff7c8b66a8","4","S110_age9_trial4.png","false","false","https://kisumu-drawings.s3-us-west-1.amazonaws.com/tracings/S110_age9_trial4.png","4","",""
"","9519","image-button-response","46","null","726017","68895b4cc3548521ab78eeca","688a6581694a767fb4f00030","67ed8a9ef13251ff7c8b66a8","4","S72_age7_trial4.png","false","false","https://kisumu-drawings.s3-us-west-1.amazonaws.com/tracings/S72_age7_trial4.png","4","",""
"","9856","image-button-response","47","null","736385","68895b4cc3548521ab78eeca","688a6581694a767fb4f00030","67ed8a9ef13251ff7c8b66a8","2","S89_age8_trial2.png","false","false","https://kisumu-drawings.s3-us-west-1.amazonaws.com/tracings/S89_age8_trial2.png","4","",""
"","7580","image-button-response","48","null","744473","68895b4cc3548521ab78eeca","688a6581694a767fb4f00030","67ed8a9ef13251ff7c8b66a8","4","S89_age8_trial4.png","false","false","https://kisumu-drawings.s3-us-west-1.amazonaws.com/tracings/S89_age8_trial4.png","4","",""
"","7738","image-button-response","49","null","752720","68895b4cc3548521ab78eeca","688a6581694a767fb4f00030","67ed8a9ef13251ff7c8b66a8","4","S18_age4_trial4.png","false","false","https://kisumu-drawings.s3-us-west-1.amazonaws.com/tracings/S18_age4_trial4.png","3","",""
"","10799","image-button-response","50","null","764025","68895b4cc3548521ab78eeca","688a6581694a767fb4f00030","67ed8a9ef13251ff7c8b66a8","3","S18_age4_trial3.png","false","false","https://kisumu-drawings.s3-us-west-1.amazonaws.com/tracings/S18_age4_trial3.png","3","",""
"","5782","image-button-response","51","null","770321","68895b4cc3548521ab78eeca","688a6581694a767fb4f00030","67ed8a9ef13251ff7c8b66a8","1","S30_age5_trial1.png","false","false","https://kisumu-drawings.s3-us-west-1.amazonaws.com/tracings/S30_age5_trial1.png","4","",""
"","5354","image-button-response","52","null","776192","68895b4cc3548521ab78eeca","688a6581694a767fb4f00030","67ed8a9ef13251ff7c8b66a8","1","S29_age5_trial1.png","false","false","https://kisumu-drawings.s3-us-west-1.amazonaws.com/tracings/S29_age5_trial1.png","3","",""
"","7797","image-button-response","53","null","784497","68895b4cc3548521ab78eeca","688a6581694a767fb4f00030","67ed8a9ef13251ff7c8b66a8","","","true","false","stimuli/catch_trials/catch_trial.png","1","","2"
"","6440","image-button-response","54","null","791449","68895b4cc3548521ab78eeca","688a6581694a767fb4f00030","67ed8a9ef13251ff7c8b66a8","5","S1_age4_trial5.png","false","false","https://kisumu-drawings.s3-us-west-1.amazonaws.com/tracings/S1_age4_trial5.png","3","",""
"","4917","image-button-response","55","null","796873","68895b4cc3548521ab78eeca","688a6581694a767fb4f00030","67ed8a9ef13251ff7c8b66a8","5","S29_age5_trial5.png","false","false","https://kisumu-drawings.s3-us-west-1.amazonaws.com/tracings/S29_age5_trial5.png","2","",""
"","7956","image-button-response","56","null","805336","68895b4cc3548521ab78eeca","688a6581694a767fb4f00030","67ed8a9ef13251ff7c8b66a8","1","S109_age9_trial1.png","false","false","https://kisumu-drawings.s3-us-west-1.amazonaws.com/tracings/S109_age9_trial1.png","5","",""
"","9418","image-button-response","57","null","815265","68895b4cc3548521ab78eeca","688a6581694a767fb4f00030","67ed8a9ef13251ff7c8b66a8","3","S70_age7_trial3.png","false","false","https://kisumu-drawings.s3-us-west-1.amazonaws.com/tracings/S70_age7_trial3.png","5","",""
"","9214","image-button-response","58","null","824992","68895b4cc3548521ab78eeca","688a6581694a767fb4f00030","67ed8a9ef13251ff7c8b66a8","5","S70_age7_trial5.png","false","false","https://kisumu-drawings.s3-us-west-1.amazonaws.com/tracings/S70_age7_trial5.png","5","",""
"","9295","image-button-response","59","null","834793","68895b4cc3548521ab78eeca","688a6581694a767fb4f00030","67ed8a9ef13251ff7c8b66a8","5","S19_age4_trial5.png","false","false","https://kisumu-drawings.s3-us-west-1.amazonaws.com/tracings/S19_age4_trial5.png","3","",""
"","10671","image-button-response","60","null","845969","68895b4cc3548521ab78eeca","688a6581694a767fb4f00030","67ed8a9ef13251ff7c8b66a8","1","S89_age8_trial1.png","false","false","https://kisumu-drawings.s3-us-west-1.amazonaws.com/tracings/S89_age8_trial1.png","5","",""
"","14383","image-button-response","61","null","860857","68895b4cc3548521ab78eeca","688a6581694a767fb4f00030","67ed8a9ef13251ff7c8b66a8","1","S19_age4_trial1.png","false","false","https://kisumu-drawings.s3-us-west-1.amazonaws.com/tracings/S19_age4_trial1.png","3","",""
