"view_history","rt","trial_type","trial_index","plugin_version","time_elapsed","study_id","session_id","participant_id","tracing_type","tracing_id","catch_trial","prep_trial","stimulus","response","sketcher_category","response_category"
"[{""page_index"":0,""viewing_time"":21861},{""page_index"":1,""viewing_time"":54439},{""page_index"":2,""viewing_time"":52794},{""page_index"":3,""viewing_time"":37447},{""page_index"":4,""viewing_time"":21352}]","187893","instructions","0","null","187901","68895b4cc3548521ab78eeca","6889b21a6ea84965d1468995","67ef2daa61fea4816e6e8793","","","","","","","",""
"","8872","image-button-response","1","null","197792","68895b4cc3548521ab78eeca","6889b21a6ea84965d1468995","67ef2daa61fea4816e6e8793","2","S13_age4_trial2.png","false","false","https://kisumu-drawings.s3-us-west-1.amazonaws.com/tracings/S13_age4_trial2.png","4","",""
"","9088","image-button-response","2","null","207391","68895b4cc3548521ab78eeca","6889b21a6ea84965d1468995","67ef2daa61fea4816e6e8793","4","S103_age9_trial4.png","false","false","https://kisumu-drawings.s3-us-west-1.amazonaws.com/tracings/S103_age9_trial4.png","5","",""
"","7767","image-button-response","3","null","215668","68895b4cc3548521ab78eeca","6889b21a6ea84965d1468995","67ef2daa61fea4816e6e8793","2","S64_age7_trial2.png","false","false","https://kisumu-drawings.s3-us-west-1.amazonaws.com/tracings/S64_age7_trial2.png","5","",""
"","7106","image-button-response","4","null","223284","68895b4cc3548521ab78eeca","6889b21a6ea84965d1468995","67ef2daa61fea4816e6e8793","5","S83_age8_trial5.png","false","false","https://kisumu-drawings.s3-us-west-1.amazonaws.com/tracings/S83_age8_trial5.png","5","",""
"","8856","image-button-response","5","null","232646","68895b4cc3548521ab78eeca","6889b21a6ea84965d1468995","67ef2daa61fea4816e6e8793","5","S64_age7_trial5.png","false","false","https://kisumu-drawings.s3-us-west-1.amazonaws.com/tracings/S64_age7_trial5.png","4","",""
"","10365","image-button-response","6","null","243529","68895b4cc3548521ab78eeca","6889b21a6ea84965d1468995","67ef2daa61fea4816e6e8793","2","S82_age8_trial2.png","false","false","https://kisumu-drawings.s3-us-west-1.amazonaws.com/tracings/S82_age8_trial2.png","5","",""
"","6560","image-button-response","7","null","250599","68895b4cc3548521ab78eeca","6889b21a6ea84965d1468995","67ef2daa61fea4816e6e8793","4","S63_age7_trial4.png","false","false","https://kisumu-drawings.s3-us-west-1.amazonaws.com/tracings/S63_age7_trial4.png","5","",""
"","9680","image-button-response","8","null","260797","68895b4cc3548521ab78eeca","6889b21a6ea84965d1468995","67ef2daa61fea4816e6e8793","1","S82_age8_trial1.png","false","false","https://kisumu-drawings.s3-us-west-1.amazonaws.com/tracings/S82_age8_trial1.png","5","",""
"","11971","image-button-response","9","null","273276","68895b4cc3548521ab78eeca","6889b21a6ea84965d1468995","67ef2daa61fea4816e6e8793","2","S12_age4_trial2.png","false","false","https://kisumu-drawings.s3-us-west-1.amazonaws.com/tracings/S12_age4_trial2.png","4","",""
"","8303","image-button-response","10","null","282092","68895b4cc3548521ab78eeca","6889b21a6ea84965d1468995","67ef2daa61fea4816e6e8793","5","S63_age7_trial5.png","false","false","https://kisumu-drawings.s3-us-west-1.amazonaws.com/tracings/S63_age7_trial5.png","4","",""
"","22001","image-button-response","11","null","304602","68895b4cc3548521ab78eeca","6889b21a6ea84965d1468995","67ef2daa61fea4816e6e8793","5","S23_age5_trial5.png","false","false","https://kisumu-drawings.s3-us-west-1.amazonaws.com/tracings/S23_age5_trial5.png","2","",""
"","6594","image-button-response","12","null","311710","68895b4cc3548521ab78eeca","6889b21a6ea84965d1468995","67ef2daa61fea4816e6e8793","3","S83_age8_trial3.png","false","false","https://kisumu-drawings.s3-us-west-1.amazonaws.com/tracings/S83_age8_trial3.png","5","",""
"","5167","image-button-response","13","null","317394","68895b4cc3548521ab78eeca","6889b21a6ea84965d1468995","67ef2daa61fea4816e6e8793","1","S43_age6_trial1.png","false","false","https://kisumu-drawings.s3-us-west-1.amazonaws.com/tracings/S43_age6_trial1.png","4","",""
"","9898","image-button-response","14","null","327797","68895b4cc3548521ab78eeca","6889b21a6ea84965d1468995","67ef2daa61fea4816e6e8793","4","S82_age8_trial4.png","false","false","https://kisumu-drawings.s3-us-west-1.amazonaws.com/tracings/S82_age8_trial4.png","4","",""
"","6433","image-button-response","15","null","334736","68895b4cc3548521ab78eeca","6889b21a6ea84965d1468995","67ef2daa61fea4816e6e8793","5","S44_age6_trial5.png","false","false","https://kisumu-drawings.s3-us-west-1.amazonaws.com/tracings/S44_age6_trial5.png","4","",""
"","6679","image-button-response","16","null","341921","68895b4cc3548521ab78eeca","6889b21a6ea84965d1468995","67ef2daa61fea4816e6e8793","4","S64_age7_trial4.png","false","false","https://kisumu-drawings.s3-us-west-1.amazonaws.com/tracings/S64_age7_trial4.png","4","",""
"","12065","image-button-response","17","null","354494","68895b4cc3548521ab78eeca","6889b21a6ea84965d1468995","67ef2daa61fea4816e6e8793","3","S24_age5_trial3.png","false","false","https://kisumu-drawings.s3-us-west-1.amazonaws.com/tracings/S24_age5_trial3.png","4","",""
"","9033","image-button-response","18","null","364039","68895b4cc3548521ab78eeca","6889b21a6ea84965d1468995","67ef2daa61fea4816e6e8793","1","S44_age6_trial1.png","false","false","https://kisumu-drawings.s3-us-west-1.amazonaws.com/tracings/S44_age6_trial1.png","4","",""
"","5859","image-button-response","19","null","370413","68895b4cc3548521ab78eeca","6889b21a6ea84965d1468995","67ef2daa61fea4816e6e8793","5","S24_age5_trial5.png","false","false","https://kisumu-drawings.s3-us-west-1.amazonaws.com/tracings/S24_age5_trial5.png","4","",""
"","5106","image-button-response","20","null","376035","68895b4cc3548521ab78eeca","6889b21a6ea84965d1468995","67ef2daa61fea4816e6e8793","1","S104_age9_trial1.png","false","false","https://kisumu-drawings.s3-us-west-1.amazonaws.com/tracings/S104_age9_trial1.png","5","",""
"","11754","image-button-response","21","null","388292","68895b4cc3548521ab78eeca","6889b21a6ea84965d1468995","67ef2daa61fea4816e6e8793","1","S24_age5_trial1.png","false","false","https://kisumu-drawings.s3-us-west-1.amazonaws.com/tracings/S24_age5_trial1.png","2","",""
"","5570","image-button-response","22","null","394374","68895b4cc3548521ab78eeca","6889b21a6ea84965d1468995","67ef2daa61fea4816e6e8793","1","S103_age9_trial1.png","false","false","https://kisumu-drawings.s3-us-west-1.amazonaws.com/tracings/S103_age9_trial1.png","5","",""
"","51619","image-button-response","23","null","446500","68895b4cc3548521ab78eeca","6889b21a6ea84965d1468995","67ef2daa61fea4816e6e8793","1","S63_age7_trial1.png","false","false","https://kisumu-drawings.s3-us-west-1.amazonaws.com/tracings/S63_age7_trial1.png","5","",""
"","7639","image-button-response","24","null","454646","68895b4cc3548521ab78eeca","6889b21a6ea84965d1468995","67ef2daa61fea4816e6e8793","3","S82_age8_trial3.png","false","false","https://kisumu-drawings.s3-us-west-1.amazonaws.com/tracings/S82_age8_trial3.png","5","",""
"","5538","image-button-response","25","null","460702","68895b4cc3548521ab78eeca","6889b21a6ea84965d1468995","67ef2daa61fea4816e6e8793","2","S24_age5_trial2.png","false","false","https://kisumu-drawings.s3-us-west-1.amazonaws.com/tracings/S24_age5_trial2.png","4","",""
"","10302","image-button-response","26","null","471513","68895b4cc3548521ab78eeca","6889b21a6ea84965d1468995","67ef2daa61fea4816e6e8793","4","S23_age5_trial4.png","false","false","https://kisumu-drawings.s3-us-west-1.amazonaws.com/tracings/S23_age5_trial4.png","1","",""
"","7677","image-button-response","27","null","479699","68895b4cc3548521ab78eeca","6889b21a6ea84965d1468995","67ef2daa61fea4816e6e8793","1","S12_age4_trial1.png","false","false","https://kisumu-drawings.s3-us-west-1.amazonaws.com/tracings/S12_age4_trial1.png","4","",""
"","4733","image-button-response","28","null","484943","68895b4cc3548521ab78eeca","6889b21a6ea84965d1468995","67ef2daa61fea4816e6e8793","4","S44_age6_trial4.png","false","false","https://kisumu-drawings.s3-us-west-1.amazonaws.com/tracings/S44_age6_trial4.png","4","",""
"","3248","image-button-response","29","null","488707","68895b4cc3548521ab78eeca","6889b21a6ea84965d1468995","67ef2daa61fea4816e6e8793","3","S43_age6_trial3.png","false","false","https://kisumu-drawings.s3-us-west-1.amazonaws.com/tracings/S43_age6_trial3.png","4","",""
"","6038","image-button-response","30","null","495263","68895b4cc3548521ab78eeca","6889b21a6ea84965d1468995","67ef2daa61fea4816e6e8793","3","S23_age5_trial3.png","false","false","https://kisumu-drawings.s3-us-west-1.amazonaws.com/tracings/S23_age5_trial3.png","1","",""
"","11135","image-button-response","31","null","506906","68895b4cc3548521ab78eeca","6889b21a6ea84965d1468995","67ef2daa61fea4816e6e8793","2","S104_age9_trial2.png","false","false","https://kisumu-drawings.s3-us-west-1.amazonaws.com/tracings/S104_age9_trial2.png","5","",""
"","6493","image-button-response","32","null","513906","68895b4cc3548521ab78eeca","6889b21a6ea84965d1468995","67ef2daa61fea4816e6e8793","3","S12_age4_trial3.png","false","false","https://kisumu-drawings.s3-us-west-1.amazonaws.com/tracings/S12_age4_trial3.png","4","",""
"","6047","image-button-response","33","null","520459","68895b4cc3548521ab78eeca","6889b21a6ea84965d1468995","67ef2daa61fea4816e6e8793","5","S103_age9_trial5.png","false","false","https://kisumu-drawings.s3-us-west-1.amazonaws.com/tracings/S103_age9_trial5.png","5","",""
"","5609","image-button-response","34","null","526585","68895b4cc3548521ab78eeca","6889b21a6ea84965d1468995","67ef2daa61fea4816e6e8793","","","true","false","stimuli/catch_trials/catch_trial.png","0","","1"
"","6115","image-button-response","35","null","533214","68895b4cc3548521ab78eeca","6889b21a6ea84965d1468995","67ef2daa61fea4816e6e8793","4","S12_age4_trial4.png","false","false","https://kisumu-drawings.s3-us-west-1.amazonaws.com/tracings/S12_age4_trial4.png","4","",""
"","3196","image-button-response","36","null","536922","68895b4cc3548521ab78eeca","6889b21a6ea84965d1468995","67ef2daa61fea4816e6e8793","4","S43_age6_trial4.png","false","false","https://kisumu-drawings.s3-us-west-1.amazonaws.com/tracings/S43_age6_trial4.png","4","",""
"","3625","image-button-response","37","null","541054","68895b4cc3548521ab78eeca","6889b21a6ea84965d1468995","67ef2daa61fea4816e6e8793","2","S63_age7_trial2.png","false","false","https://kisumu-drawings.s3-us-west-1.amazonaws.com/tracings/S63_age7_trial2.png","4","",""
"","4152","image-button-response","38","null","545722","68895b4cc3548521ab78eeca","6889b21a6ea84965d1468995","67ef2daa61fea4816e6e8793","2","S83_age8_trial2.png","false","false","https://kisumu-drawings.s3-us-west-1.amazonaws.com/tracings/S83_age8_trial2.png","5","",""
"","4690","image-button-response","39","null","550914","68895b4cc3548521ab78eeca","6889b21a6ea84965d1468995","67ef2daa61fea4816e6e8793","5","S104_age9_trial5.png","false","false","https://kisumu-drawings.s3-us-west-1.amazonaws.com/tracings/S104_age9_trial5.png","5","",""
"","4725","image-button-response","40","null","556152","68895b4cc3548521ab78eeca","6889b21a6ea84965d1468995","67ef2daa61fea4816e6e8793","4","S83_age8_trial4.png","false","false","https://kisumu-drawings.s3-us-west-1.amazonaws.com/tracings/S83_age8_trial4.png","5","",""
"","4722","image-button-response","41","null","561384","68895b4cc3548521ab78eeca","6889b21a6ea84965d1468995","67ef2daa61fea4816e6e8793","3","S64_age7_trial3.png","false","false","https://kisumu-drawings.s3-us-west-1.amazonaws.com/tracings/S64_age7_trial3.png","4","",""
"","5672","image-button-response","42","null","567570","68895b4cc3548521ab78eeca","6889b21a6ea84965d1468995","67ef2daa61fea4816e6e8793","2","S43_age6_trial2.png","false","false","https://kisumu-drawings.s3-us-west-1.amazonaws.com/tracings/S43_age6_trial2.png","4","",""
"","6811","image-button-response","43","null","574895","68895b4cc3548521ab78eeca","6889b21a6ea84965d1468995","67ef2daa61fea4816e6e8793","2","S23_age5_trial2.png","false","false","https://kisumu-drawings.s3-us-west-1.amazonaws.com/tracings/S23_age5_trial2.png","2","",""
"","6390","image-button-response","44","null","581804","68895b4cc3548521ab78eeca","6889b21a6ea84965d1468995","67ef2daa61fea4816e6e8793","4","S104_age9_trial4.png","false","false","https://kisumu-drawings.s3-us-west-1.amazonaws.com/tracings/S104_age9_trial4.png","5","",""
"","7945","image-button-response","45","null","590263","68895b4cc3548521ab78eeca","6889b21a6ea84965d1468995","67ef2daa61fea4816e6e8793","5","S82_age8_trial5.png","false","false","https://kisumu-drawings.s3-us-west-1.amazonaws.com/tracings/S82_age8_trial5.png","4","",""
"","17577","image-button-response","46","null","608349","68895b4cc3548521ab78eeca","6889b21a6ea84965d1468995","67ef2daa61fea4816e6e8793","4","S13_age4_trial4.png","false","false","https://kisumu-drawings.s3-us-west-1.amazonaws.com/tracings/S13_age4_trial4.png","4","",""
"","9098","image-button-response","47","null","617964","68895b4cc3548521ab78eeca","6889b21a6ea84965d1468995","67ef2daa61fea4816e6e8793","1","S64_age7_trial1.png","false","false","https://kisumu-drawings.s3-us-west-1.amazonaws.com/tracings/S64_age7_trial1.png","4","",""
"","5531","image-button-response","48","null","624005","68895b4cc3548521ab78eeca","6889b21a6ea84965d1468995","67ef2daa61fea4816e6e8793","2","S44_age6_trial2.png","false","false","https://kisumu-drawings.s3-us-west-1.amazonaws.com/tracings/S44_age6_trial2.png","4","",""
"","3974","image-button-response","49","null","628496","68895b4cc3548521ab78eeca","6889b21a6ea84965d1468995","67ef2daa61fea4816e6e8793","3","S104_age9_trial3.png","false","false","https://kisumu-drawings.s3-us-west-1.amazonaws.com/tracings/S104_age9_trial3.png","5","",""
"","5782","image-button-response","50","null","634788","68895b4cc3548521ab78eeca","6889b21a6ea84965d1468995","67ef2daa61fea4816e6e8793","3","S103_age9_trial3.png","false","false","https://kisumu-drawings.s3-us-west-1.amazonaws.com/tracings/S103_age9_trial3.png","5","",""
"","9028","image-button-response","51","null","644331","68895b4cc3548521ab78eeca","6889b21a6ea84965d1468995","67ef2daa61fea4816e6e8793","5","S13_age4_trial5.png","false","false","https://kisumu-drawings.s3-us-west-1.amazonaws.com/tracings/S13_age4_trial5.png","4","",""
"","5385","image-button-response","52","null","650235","68895b4cc3548521ab78eeca","6889b21a6ea84965d1468995","67ef2daa61fea4816e6e8793","5","S12_age4_trial5.png","false","false","https://kisumu-drawings.s3-us-west-1.amazonaws.com/tracings/S12_age4_trial5.png","4","",""
"","3046","image-button-response","53","null","653786","68895b4cc3548521ab78eeca","6889b21a6ea84965d1468995","67ef2daa61fea4816e6e8793","3","S44_age6_trial3.png","false","false","https://kisumu-drawings.s3-us-west-1.amazonaws.com/tracings/S44_age6_trial3.png","4","",""
"","2944","image-button-response","54","null","657248","68895b4cc3548521ab78eeca","6889b21a6ea84965d1468995","67ef2daa61fea4816e6e8793","5","S43_age6_trial5.png","false","false","https://kisumu-drawings.s3-us-west-1.amazonaws.com/tracings/S43_age6_trial5.png","4","",""
"","19374","image-button-response","55","null","677146","68895b4cc3548521ab78eeca","6889b21a6ea84965d1468995","67ef2daa61fea4816e6e8793","4","S24_age5_trial4.png","false","false","https://kisumu-drawings.s3-us-west-1.amazonaws.com/tracings/S24_age5_trial4.png","4","",""
"","5937","image-button-response","56","null","683598","68895b4cc3548521ab78eeca","6889b21a6ea84965d1468995","67ef2daa61fea4816e6e8793","1","S83_age8_trial1.png","false","false","https://kisumu-drawings.s3-us-west-1.amazonaws.com/tracings/S83_age8_trial1.png","5","",""
"","3837","image-button-response","57","null","687953","68895b4cc3548521ab78eeca","6889b21a6ea84965d1468995","67ef2daa61fea4816e6e8793","3","S13_age4_trial3.png","false","false","https://kisumu-drawings.s3-us-west-1.amazonaws.com/tracings/S13_age4_trial3.png","4","",""
"","5220","image-button-response","58","null","693679","68895b4cc3548521ab78eeca","6889b21a6ea84965d1468995","67ef2daa61fea4816e6e8793","3","S63_age7_trial3.png","false","false","https://kisumu-drawings.s3-us-west-1.amazonaws.com/tracings/S63_age7_trial3.png","4","",""
"","5507","image-button-response","59","null","699701","68895b4cc3548521ab78eeca","6889b21a6ea84965d1468995","67ef2daa61fea4816e6e8793","1","S13_age4_trial1.png","false","false","https://kisumu-drawings.s3-us-west-1.amazonaws.com/tracings/S13_age4_trial1.png","4","",""
"","4180","image-button-response","60","null","704390","68895b4cc3548521ab78eeca","6889b21a6ea84965d1468995","67ef2daa61fea4816e6e8793","2","S103_age9_trial2.png","false","false","https://kisumu-drawings.s3-us-west-1.amazonaws.com/tracings/S103_age9_trial2.png","5","",""
"","6387","image-button-response","61","null","711285","68895b4cc3548521ab78eeca","6889b21a6ea84965d1468995","67ef2daa61fea4816e6e8793","1","S23_age5_trial1.png","false","false","https://kisumu-drawings.s3-us-west-1.amazonaws.com/tracings/S23_age5_trial1.png","5","",""
