"view_history","rt","trial_type","trial_index","plugin_version","time_elapsed","study_id","session_id","participant_id","tracing_type","tracing_id","catch_trial","prep_trial","stimulus","response","sketcher_category","response_category"
"[{""page_index"":0,""viewing_time"":13191},{""page_index"":1,""viewing_time"":6720},{""page_index"":2,""viewing_time"":7064},{""page_index"":3,""viewing_time"":2400},{""page_index"":4,""viewing_time"":15936}]","45311","instructions","0","null","45457","68895b4cc3548521ab78eeca","688a00af13420cb156f2407d","67f224dfcaaa213111714560","","","","","","","",""
"","9784","image-button-response","1","null","56256","68895b4cc3548521ab78eeca","688a00af13420cb156f2407d","67f224dfcaaa213111714560","3","S26_age5_trial3.png","false","false","https://kisumu-drawings.s3-us-west-1.amazonaws.com/tracings/S26_age5_trial3.png","3","",""
"","3506","image-button-response","2","null","60264","68895b4cc3548521ab78eeca","688a00af13420cb156f2407d","67f224dfcaaa213111714560","1","S85_age8_trial1.png","false","false","https://kisumu-drawings.s3-us-west-1.amazonaws.com/tracings/S85_age8_trial1.png","4","",""
"","2082","image-button-response","3","null","62847","68895b4cc3548521ab78eeca","688a00af13420cb156f2407d","67f224dfcaaa213111714560","1","S15_age4_trial1.png","false","false","https://kisumu-drawings.s3-us-west-1.amazonaws.com/tracings/S15_age4_trial1.png","2","",""
"","4690","image-button-response","4","null","68039","68895b4cc3548521ab78eeca","688a00af13420cb156f2407d","67f224dfcaaa213111714560","5","S45_age6_trial5.png","false","false","https://kisumu-drawings.s3-us-west-1.amazonaws.com/tracings/S45_age6_trial5.png","3","",""
"","1833","image-button-response","5","null","70375","68895b4cc3548521ab78eeca","688a00af13420cb156f2407d","67f224dfcaaa213111714560","1","S86_age8_trial1.png","false","false","https://kisumu-drawings.s3-us-west-1.amazonaws.com/tracings/S86_age8_trial1.png","4","",""
"","4650","image-button-response","6","null","75527","68895b4cc3548521ab78eeca","688a00af13420cb156f2407d","67f224dfcaaa213111714560","5","S14_age4_trial5.png","false","false","https://kisumu-drawings.s3-us-west-1.amazonaws.com/tracings/S14_age4_trial5.png","2","",""
"","2122","image-button-response","7","null","78151","68895b4cc3548521ab78eeca","688a00af13420cb156f2407d","67f224dfcaaa213111714560","","","true","false","stimuli/catch_trials/catch_trial.png","0","","1"
"","4138","image-button-response","8","null","82791","68895b4cc3548521ab78eeca","688a00af13420cb156f2407d","67f224dfcaaa213111714560","5","S106_age9_trial5.png","false","false","https://kisumu-drawings.s3-us-west-1.amazonaws.com/tracings/S106_age9_trial5.png","5","",""
"","2425","image-button-response","9","null","85718","68895b4cc3548521ab78eeca","688a00af13420cb156f2407d","67f224dfcaaa213111714560","2","S16_age4_trial2.png","false","false","https://kisumu-drawings.s3-us-west-1.amazonaws.com/tracings/S16_age4_trial2.png","2","",""
"","8266","image-button-response","10","null","94486","68895b4cc3548521ab78eeca","688a00af13420cb156f2407d","67f224dfcaaa213111714560","1","S105_age9_trial1.png","false","false","https://kisumu-drawings.s3-us-west-1.amazonaws.com/tracings/S105_age9_trial1.png","4","",""
"","3938","image-button-response","11","null","98926","68895b4cc3548521ab78eeca","688a00af13420cb156f2407d","67f224dfcaaa213111714560","5","S105_age9_trial5.png","false","false","https://kisumu-drawings.s3-us-west-1.amazonaws.com/tracings/S105_age9_trial5.png","4","",""
"","3466","image-button-response","12","null","102894","68895b4cc3548521ab78eeca","688a00af13420cb156f2407d","67f224dfcaaa213111714560","2","S66_age7_trial2.png","false","false","https://kisumu-drawings.s3-us-west-1.amazonaws.com/tracings/S66_age7_trial2.png","4","",""
"","2457","image-button-response","13","null","105853","68895b4cc3548521ab78eeca","688a00af13420cb156f2407d","67f224dfcaaa213111714560","5","S26_age5_trial5.png","false","false","https://kisumu-drawings.s3-us-west-1.amazonaws.com/tracings/S26_age5_trial5.png","2","",""
"","6618","image-button-response","14","null","112973","68895b4cc3548521ab78eeca","688a00af13420cb156f2407d","67f224dfcaaa213111714560","5","S46_age6_trial5.png","false","false","https://kisumu-drawings.s3-us-west-1.amazonaws.com/tracings/S46_age6_trial5.png","4","",""
"","4130","image-button-response","15","null","117605","68895b4cc3548521ab78eeca","688a00af13420cb156f2407d","67f224dfcaaa213111714560","5","S65_age7_trial5.png","false","false","https://kisumu-drawings.s3-us-west-1.amazonaws.com/tracings/S65_age7_trial5.png","4","",""
"","7762","image-button-response","16","null","125868","68895b4cc3548521ab78eeca","688a00af13420cb156f2407d","67f224dfcaaa213111714560","1","S25_age5_trial1.png","false","false","https://kisumu-drawings.s3-us-west-1.amazonaws.com/tracings/S25_age5_trial1.png","3","",""
"","9490","image-button-response","17","null","135860","68895b4cc3548521ab78eeca","688a00af13420cb156f2407d","67f224dfcaaa213111714560","2","S85_age8_trial2.png","false","false","https://kisumu-drawings.s3-us-west-1.amazonaws.com/tracings/S85_age8_trial2.png","5","",""
"","4722","image-button-response","18","null","141084","68895b4cc3548521ab78eeca","688a00af13420cb156f2407d","67f224dfcaaa213111714560","2","S45_age6_trial2.png","false","false","https://kisumu-drawings.s3-us-west-1.amazonaws.com/tracings/S45_age6_trial2.png","4","",""
"","5729","image-button-response","19","null","147315","68895b4cc3548521ab78eeca","688a00af13420cb156f2407d","67f224dfcaaa213111714560","1","S46_age6_trial1.png","false","false","https://kisumu-drawings.s3-us-west-1.amazonaws.com/tracings/S46_age6_trial1.png","4","",""
"","4761","image-button-response","20","null","152579","68895b4cc3548521ab78eeca","688a00af13420cb156f2407d","67f224dfcaaa213111714560","3","S65_age7_trial3.png","false","false","https://kisumu-drawings.s3-us-west-1.amazonaws.com/tracings/S65_age7_trial3.png","5","",""
"","10458","image-button-response","21","null","163538","68895b4cc3548521ab78eeca","688a00af13420cb156f2407d","67f224dfcaaa213111714560","4","S107_age9_trial4.png","false","false","https://kisumu-drawings.s3-us-west-1.amazonaws.com/tracings/S107_age9_trial4.png","4","",""
"","3914","image-button-response","22","null","167954","68895b4cc3548521ab78eeca","688a00af13420cb156f2407d","67f224dfcaaa213111714560","1","S14_age4_trial1.png","false","false","https://kisumu-drawings.s3-us-west-1.amazonaws.com/tracings/S14_age4_trial1.png","2","",""
"","3378","image-button-response","23","null","171834","68895b4cc3548521ab78eeca","688a00af13420cb156f2407d","67f224dfcaaa213111714560","2","S84_age8_trial2.png","false","false","https://kisumu-drawings.s3-us-west-1.amazonaws.com/tracings/S84_age8_trial2.png","4","",""
"","3313","image-button-response","24","null","175650","68895b4cc3548521ab78eeca","688a00af13420cb156f2407d","67f224dfcaaa213111714560","4","S65_age7_trial4.png","false","false","https://kisumu-drawings.s3-us-west-1.amazonaws.com/tracings/S65_age7_trial4.png","4","",""
"","3362","image-button-response","25","null","179513","68895b4cc3548521ab78eeca","688a00af13420cb156f2407d","67f224dfcaaa213111714560","3","S47_age6_trial3.png","false","false","https://kisumu-drawings.s3-us-west-1.amazonaws.com/tracings/S47_age6_trial3.png","4","",""
"","2442","image-button-response","26","null","182457","68895b4cc3548521ab78eeca","688a00af13420cb156f2407d","67f224dfcaaa213111714560","5","S85_age8_trial5.png","false","false","https://kisumu-drawings.s3-us-west-1.amazonaws.com/tracings/S85_age8_trial5.png","4","",""
"","1642","image-button-response","27","null","184601","68895b4cc3548521ab78eeca","688a00af13420cb156f2407d","67f224dfcaaa213111714560","2","S67_age7_trial2.png","false","false","https://kisumu-drawings.s3-us-west-1.amazonaws.com/tracings/S67_age7_trial2.png","5","",""
"","2306","image-button-response","28","null","187409","68895b4cc3548521ab78eeca","688a00af13420cb156f2407d","67f224dfcaaa213111714560","3","S14_age4_trial3.png","false","false","https://kisumu-drawings.s3-us-west-1.amazonaws.com/tracings/S14_age4_trial3.png","2","",""
"","3115","image-button-response","29","null","191025","68895b4cc3548521ab78eeca","688a00af13420cb156f2407d","67f224dfcaaa213111714560","2","S17_age4_trial2.png","false","false","https://kisumu-drawings.s3-us-west-1.amazonaws.com/tracings/S17_age4_trial2.png","3","",""
"","2218","image-button-response","30","null","193745","68895b4cc3548521ab78eeca","688a00af13420cb156f2407d","67f224dfcaaa213111714560","3","S105_age9_trial3.png","false","false","https://kisumu-drawings.s3-us-west-1.amazonaws.com/tracings/S105_age9_trial3.png","4","",""
"","2818","image-button-response","31","null","197065","68895b4cc3548521ab78eeca","688a00af13420cb156f2407d","67f224dfcaaa213111714560","2","S105_age9_trial2.png","false","false","https://kisumu-drawings.s3-us-west-1.amazonaws.com/tracings/S105_age9_trial2.png","5","",""
"","1994","image-button-response","32","null","199560","68895b4cc3548521ab78eeca","688a00af13420cb156f2407d","67f224dfcaaa213111714560","3","S84_age8_trial3.png","false","false","https://kisumu-drawings.s3-us-west-1.amazonaws.com/tracings/S84_age8_trial3.png","5","",""
"","3313","image-button-response","33","null","203376","68895b4cc3548521ab78eeca","688a00af13420cb156f2407d","67f224dfcaaa213111714560","4","S45_age6_trial4.png","false","false","https://kisumu-drawings.s3-us-west-1.amazonaws.com/tracings/S45_age6_trial4.png","3","",""
"","3250","image-button-response","34","null","207128","68895b4cc3548521ab78eeca","688a00af13420cb156f2407d","67f224dfcaaa213111714560","2","S106_age9_trial2.png","false","false","https://kisumu-drawings.s3-us-west-1.amazonaws.com/tracings/S106_age9_trial2.png","4","",""
"","2106","image-button-response","35","null","209736","68895b4cc3548521ab78eeca","688a00af13420cb156f2407d","67f224dfcaaa213111714560","1","S106_age9_trial1.png","false","false","https://kisumu-drawings.s3-us-west-1.amazonaws.com/tracings/S106_age9_trial1.png","4","",""
"","1378","image-button-response","36","null","211616","68895b4cc3548521ab78eeca","688a00af13420cb156f2407d","67f224dfcaaa213111714560","1","S65_age7_trial1.png","false","false","https://kisumu-drawings.s3-us-west-1.amazonaws.com/tracings/S65_age7_trial1.png","4","",""
"","7170","image-button-response","37","null","219287","68895b4cc3548521ab78eeca","688a00af13420cb156f2407d","67f224dfcaaa213111714560","2","S26_age5_trial2.png","false","false","https://kisumu-drawings.s3-us-west-1.amazonaws.com/tracings/S26_age5_trial2.png","2","",""
"","2225","image-button-response","38","null","222015","68895b4cc3548521ab78eeca","688a00af13420cb156f2407d","67f224dfcaaa213111714560","5","S15_age4_trial5.png","false","false","https://kisumu-drawings.s3-us-west-1.amazonaws.com/tracings/S15_age4_trial5.png","2","",""
"","2707","image-button-response","39","null","225223","68895b4cc3548521ab78eeca","688a00af13420cb156f2407d","67f224dfcaaa213111714560","1","S45_age6_trial1.png","false","false","https://kisumu-drawings.s3-us-west-1.amazonaws.com/tracings/S45_age6_trial1.png","3","",""
"","5730","image-button-response","40","null","231455","68895b4cc3548521ab78eeca","688a00af13420cb156f2407d","67f224dfcaaa213111714560","4","S46_age6_trial4.png","false","false","https://kisumu-drawings.s3-us-west-1.amazonaws.com/tracings/S46_age6_trial4.png","4","",""
"","3762","image-button-response","41","null","235719","68895b4cc3548521ab78eeca","688a00af13420cb156f2407d","67f224dfcaaa213111714560","3","S25_age5_trial3.png","false","false","https://kisumu-drawings.s3-us-west-1.amazonaws.com/tracings/S25_age5_trial3.png","4","",""
"","6938","image-button-response","42","null","243158","68895b4cc3548521ab78eeca","688a00af13420cb156f2407d","67f224dfcaaa213111714560","4","S84_age8_trial4.png","false","false","https://kisumu-drawings.s3-us-west-1.amazonaws.com/tracings/S84_age8_trial4.png","3","",""
"","2698","image-button-response","43","null","246358","68895b4cc3548521ab78eeca","688a00af13420cb156f2407d","67f224dfcaaa213111714560","3","S66_age7_trial3.png","false","false","https://kisumu-drawings.s3-us-west-1.amazonaws.com/tracings/S66_age7_trial3.png","4","",""
"","2106","image-button-response","44","null","248966","68895b4cc3548521ab78eeca","688a00af13420cb156f2407d","67f224dfcaaa213111714560","5","S84_age8_trial5.png","false","false","https://kisumu-drawings.s3-us-west-1.amazonaws.com/tracings/S84_age8_trial5.png","4","",""
"","2322","image-button-response","45","null","251789","68895b4cc3548521ab78eeca","688a00af13420cb156f2407d","67f224dfcaaa213111714560","3","S106_age9_trial3.png","false","false","https://kisumu-drawings.s3-us-west-1.amazonaws.com/tracings/S106_age9_trial3.png","5","",""
"","5059","image-button-response","46","null","257349","68895b4cc3548521ab78eeca","688a00af13420cb156f2407d","67f224dfcaaa213111714560","3","S15_age4_trial3.png","false","false","https://kisumu-drawings.s3-us-west-1.amazonaws.com/tracings/S15_age4_trial3.png","2","",""
"","3602","image-button-response","47","null","261453","68895b4cc3548521ab78eeca","688a00af13420cb156f2407d","67f224dfcaaa213111714560","2","S25_age5_trial2.png","false","false","https://kisumu-drawings.s3-us-west-1.amazonaws.com/tracings/S25_age5_trial2.png","3","",""
"","4050","image-button-response","48","null","266005","68895b4cc3548521ab78eeca","688a00af13420cb156f2407d","67f224dfcaaa213111714560","4","S26_age5_trial4.png","false","false","https://kisumu-drawings.s3-us-west-1.amazonaws.com/tracings/S26_age5_trial4.png","3","",""
"","3658","image-button-response","49","null","270165","68895b4cc3548521ab78eeca","688a00af13420cb156f2407d","67f224dfcaaa213111714560","1","S66_age7_trial1.png","false","false","https://kisumu-drawings.s3-us-west-1.amazonaws.com/tracings/S66_age7_trial1.png","5","",""
"","1618","image-button-response","50","null","272285","68895b4cc3548521ab78eeca","688a00af13420cb156f2407d","67f224dfcaaa213111714560","1","S26_age5_trial1.png","false","false","https://kisumu-drawings.s3-us-west-1.amazonaws.com/tracings/S26_age5_trial1.png","4","",""
"","1450","image-button-response","51","null","274237","68895b4cc3548521ab78eeca","688a00af13420cb156f2407d","67f224dfcaaa213111714560","3","S85_age8_trial3.png","false","false","https://kisumu-drawings.s3-us-west-1.amazonaws.com/tracings/S85_age8_trial3.png","4","",""
"","2985","image-button-response","52","null","277724","68895b4cc3548521ab78eeca","688a00af13420cb156f2407d","67f224dfcaaa213111714560","4","S85_age8_trial4.png","false","false","https://kisumu-drawings.s3-us-west-1.amazonaws.com/tracings/S85_age8_trial4.png","4","",""
"","1586","image-button-response","53","null","279812","68895b4cc3548521ab78eeca","688a00af13420cb156f2407d","67f224dfcaaa213111714560","5","S25_age5_trial5.png","false","false","https://kisumu-drawings.s3-us-west-1.amazonaws.com/tracings/S25_age5_trial5.png","4","",""
"","1890","image-button-response","54","null","282204","68895b4cc3548521ab78eeca","688a00af13420cb156f2407d","67f224dfcaaa213111714560","4","S15_age4_trial4.png","false","false","https://kisumu-drawings.s3-us-west-1.amazonaws.com/tracings/S15_age4_trial4.png","2","",""
"","2066","image-button-response","55","null","284772","68895b4cc3548521ab78eeca","688a00af13420cb156f2407d","67f224dfcaaa213111714560","4","S106_age9_trial4.png","false","false","https://kisumu-drawings.s3-us-west-1.amazonaws.com/tracings/S106_age9_trial4.png","4","",""
"","1586","image-button-response","56","null","286860","68895b4cc3548521ab78eeca","688a00af13420cb156f2407d","67f224dfcaaa213111714560","5","S66_age7_trial5.png","false","false","https://kisumu-drawings.s3-us-west-1.amazonaws.com/tracings/S66_age7_trial5.png","4","",""
"","2498","image-button-response","57","null","289860","68895b4cc3548521ab78eeca","688a00af13420cb156f2407d","67f224dfcaaa213111714560","4","S25_age5_trial4.png","false","false","https://kisumu-drawings.s3-us-west-1.amazonaws.com/tracings/S25_age5_trial4.png","3","",""
"","8082","image-button-response","58","null","298443","68895b4cc3548521ab78eeca","688a00af13420cb156f2407d","67f224dfcaaa213111714560","4","S66_age7_trial4.png","false","false","https://kisumu-drawings.s3-us-west-1.amazonaws.com/tracings/S66_age7_trial4.png","4","",""
"","3034","image-button-response","59","null","301979","68895b4cc3548521ab78eeca","688a00af13420cb156f2407d","67f224dfcaaa213111714560","2","S46_age6_trial2.png","false","false","https://kisumu-drawings.s3-us-west-1.amazonaws.com/tracings/S46_age6_trial2.png","4","",""
"","1898","image-button-response","60","null","304379","68895b4cc3548521ab78eeca","688a00af13420cb156f2407d","67f224dfcaaa213111714560","3","S46_age6_trial3.png","false","false","https://kisumu-drawings.s3-us-west-1.amazonaws.com/tracings/S46_age6_trial3.png","4","",""
"","5010","image-button-response","61","null","309890","68895b4cc3548521ab78eeca","688a00af13420cb156f2407d","67f224dfcaaa213111714560","4","S14_age4_trial4.png","false","false","https://kisumu-drawings.s3-us-west-1.amazonaws.com/tracings/S14_age4_trial4.png","2","",""
