"view_history","rt","trial_type","trial_index","plugin_version","time_elapsed","study_id","session_id","participant_id","tracing_type","tracing_id","catch_trial","prep_trial","stimulus","response","sketcher_category","response_category"
"[{""page_index"":0,""viewing_time"":228741},{""page_index"":1,""viewing_time"":151765},{""page_index"":2,""viewing_time"":8909},{""page_index"":3,""viewing_time"":2308},{""page_index"":4,""viewing_time"":1500}]","393224","instructions","0","null","393259","68895b4cc3548521ab78eeca","688a037a5ea80e806d1220f1","680bf9db627b9fac31d2efdc","","","","","","","",""
"","9927","image-button-response","1","null","404212","68895b4cc3548521ab78eeca","688a037a5ea80e806d1220f1","680bf9db627b9fac31d2efdc","1","S26_age5_trial1.png","false","false","https://kisumu-drawings.s3-us-west-1.amazonaws.com/tracings/S26_age5_trial1.png","4","",""
"","21329","image-button-response","2","null","426059","68895b4cc3548521ab78eeca","688a037a5ea80e806d1220f1","680bf9db627b9fac31d2efdc","5","S45_age6_trial5.png","false","false","https://kisumu-drawings.s3-us-west-1.amazonaws.com/tracings/S45_age6_trial5.png","4","",""
"","8071","image-button-response","3","null","434638","68895b4cc3548521ab78eeca","688a037a5ea80e806d1220f1","680bf9db627b9fac31d2efdc","4","S14_age4_trial4.png","false","false","https://kisumu-drawings.s3-us-west-1.amazonaws.com/tracings/S14_age4_trial4.png","4","",""
"","9278","image-button-response","4","null","444426","68895b4cc3548521ab78eeca","688a037a5ea80e806d1220f1","680bf9db627b9fac31d2efdc","3","S46_age6_trial3.png","false","false","https://kisumu-drawings.s3-us-west-1.amazonaws.com/tracings/S46_age6_trial3.png","1","",""
"","2101","image-button-response","5","null","447031","68895b4cc3548521ab78eeca","688a037a5ea80e806d1220f1","680bf9db627b9fac31d2efdc","","","true","false","stimuli/catch_trials/catch_trial.png","0","","1"
"","11865","image-button-response","6","null","459415","68895b4cc3548521ab78eeca","688a037a5ea80e806d1220f1","680bf9db627b9fac31d2efdc","4","S67_age7_trial4.png","false","false","https://kisumu-drawings.s3-us-west-1.amazonaws.com/tracings/S67_age7_trial4.png","1","",""
"","16672","image-button-response","7","null","476603","68895b4cc3548521ab78eeca","688a037a5ea80e806d1220f1","680bf9db627b9fac31d2efdc","5","S86_age8_trial5.png","false","false","https://kisumu-drawings.s3-us-west-1.amazonaws.com/tracings/S86_age8_trial5.png","5","",""
"","4996","image-button-response","8","null","482103","68895b4cc3548521ab78eeca","688a037a5ea80e806d1220f1","680bf9db627b9fac31d2efdc","2","S26_age5_trial2.png","false","false","https://kisumu-drawings.s3-us-west-1.amazonaws.com/tracings/S26_age5_trial2.png","5","",""
"","11279","image-button-response","9","null","493893","68895b4cc3548521ab78eeca","688a037a5ea80e806d1220f1","680bf9db627b9fac31d2efdc","3","S15_age4_trial3.png","false","false","https://kisumu-drawings.s3-us-west-1.amazonaws.com/tracings/S15_age4_trial3.png","5","",""
"","14056","image-button-response","10","null","508465","68895b4cc3548521ab78eeca","688a037a5ea80e806d1220f1","680bf9db627b9fac31d2efdc","5","S26_age5_trial5.png","false","false","https://kisumu-drawings.s3-us-west-1.amazonaws.com/tracings/S26_age5_trial5.png","5","",""
"","32381","image-button-response","11","null","541356","68895b4cc3548521ab78eeca","688a037a5ea80e806d1220f1","680bf9db627b9fac31d2efdc","5","S15_age4_trial5.png","false","false","https://kisumu-drawings.s3-us-west-1.amazonaws.com/tracings/S15_age4_trial5.png","5","",""
"","15771","image-button-response","12","null","557642","68895b4cc3548521ab78eeca","688a037a5ea80e806d1220f1","680bf9db627b9fac31d2efdc","5","S105_age9_trial5.png","false","false","https://kisumu-drawings.s3-us-west-1.amazonaws.com/tracings/S105_age9_trial5.png","5","",""
"","59939","image-button-response","13","null","618099","68895b4cc3548521ab78eeca","688a037a5ea80e806d1220f1","680bf9db627b9fac31d2efdc","4","S15_age4_trial4.png","false","false","https://kisumu-drawings.s3-us-west-1.amazonaws.com/tracings/S15_age4_trial4.png","5","",""
"","15726","image-button-response","14","null","634338","68895b4cc3548521ab78eeca","688a037a5ea80e806d1220f1","680bf9db627b9fac31d2efdc","2","S86_age8_trial2.png","false","false","https://kisumu-drawings.s3-us-west-1.amazonaws.com/tracings/S86_age8_trial2.png","5","",""
"","16627","image-button-response","15","null","651471","68895b4cc3548521ab78eeca","688a037a5ea80e806d1220f1","680bf9db627b9fac31d2efdc","3","S66_age7_trial3.png","false","false","https://kisumu-drawings.s3-us-west-1.amazonaws.com/tracings/S66_age7_trial3.png","5","",""
"","15932","image-button-response","16","null","667918","68895b4cc3548521ab78eeca","688a037a5ea80e806d1220f1","680bf9db627b9fac31d2efdc","5","S85_age8_trial5.png","false","false","https://kisumu-drawings.s3-us-west-1.amazonaws.com/tracings/S85_age8_trial5.png","5","",""
"","20104","image-button-response","17","null","688536","68895b4cc3548521ab78eeca","688a037a5ea80e806d1220f1","680bf9db627b9fac31d2efdc","4","S107_age9_trial4.png","false","false","https://kisumu-drawings.s3-us-west-1.amazonaws.com/tracings/S107_age9_trial4.png","5","",""
"","12038","image-button-response","18","null","701084","68895b4cc3548521ab78eeca","688a037a5ea80e806d1220f1","680bf9db627b9fac31d2efdc","2","S85_age8_trial2.png","false","false","https://kisumu-drawings.s3-us-west-1.amazonaws.com/tracings/S85_age8_trial2.png","1","",""
"","18310","image-button-response","19","null","719910","68895b4cc3548521ab78eeca","688a037a5ea80e806d1220f1","680bf9db627b9fac31d2efdc","1","S65_age7_trial1.png","false","false","https://kisumu-drawings.s3-us-west-1.amazonaws.com/tracings/S65_age7_trial1.png","1","",""
"","23608","image-button-response","20","null","744032","68895b4cc3548521ab78eeca","688a037a5ea80e806d1220f1","680bf9db627b9fac31d2efdc","5","S67_age7_trial5.png","false","false","https://kisumu-drawings.s3-us-west-1.amazonaws.com/tracings/S67_age7_trial5.png","5","",""
"","34282","image-button-response","21","null","778819","68895b4cc3548521ab78eeca","688a037a5ea80e806d1220f1","680bf9db627b9fac31d2efdc","2","S17_age4_trial2.png","false","false","https://kisumu-drawings.s3-us-west-1.amazonaws.com/tracings/S17_age4_trial2.png","2","",""
"","11885","image-button-response","22","null","791221","68895b4cc3548521ab78eeca","688a037a5ea80e806d1220f1","680bf9db627b9fac31d2efdc","2","S66_age7_trial2.png","false","false","https://kisumu-drawings.s3-us-west-1.amazonaws.com/tracings/S66_age7_trial2.png","1","",""
"","8490","image-button-response","23","null","800223","68895b4cc3548521ab78eeca","688a037a5ea80e806d1220f1","680bf9db627b9fac31d2efdc","2","S46_age6_trial2.png","false","false","https://kisumu-drawings.s3-us-west-1.amazonaws.com/tracings/S46_age6_trial2.png","1","",""
"","44311","image-button-response","24","null","845039","68895b4cc3548521ab78eeca","688a037a5ea80e806d1220f1","680bf9db627b9fac31d2efdc","2","S47_age6_trial2.png","false","false","https://kisumu-drawings.s3-us-west-1.amazonaws.com/tracings/S47_age6_trial2.png","5","",""
"","34586","image-button-response","25","null","880135","68895b4cc3548521ab78eeca","688a037a5ea80e806d1220f1","680bf9db627b9fac31d2efdc","2","S67_age7_trial2.png","false","false","https://kisumu-drawings.s3-us-west-1.amazonaws.com/tracings/S67_age7_trial2.png","5","",""
"","66735","image-button-response","26","null","947381","68895b4cc3548521ab78eeca","688a037a5ea80e806d1220f1","680bf9db627b9fac31d2efdc","3","S47_age6_trial3.png","false","false","https://kisumu-drawings.s3-us-west-1.amazonaws.com/tracings/S47_age6_trial3.png","5","",""
"","24845","image-button-response","27","null","972732","68895b4cc3548521ab78eeca","688a037a5ea80e806d1220f1","680bf9db627b9fac31d2efdc","3","S84_age8_trial3.png","false","false","https://kisumu-drawings.s3-us-west-1.amazonaws.com/tracings/S84_age8_trial3.png","5","",""
"","13992","image-button-response","28","null","987230","68895b4cc3548521ab78eeca","688a037a5ea80e806d1220f1","680bf9db627b9fac31d2efdc","1","S66_age7_trial1.png","false","false","https://kisumu-drawings.s3-us-west-1.amazonaws.com/tracings/S66_age7_trial1.png","5","",""
"","17430","image-button-response","29","null","1005174","68895b4cc3548521ab78eeca","688a037a5ea80e806d1220f1","680bf9db627b9fac31d2efdc","2","S16_age4_trial2.png","false","false","https://kisumu-drawings.s3-us-west-1.amazonaws.com/tracings/S16_age4_trial2.png","5","",""
"","21707","image-button-response","30","null","1027397","68895b4cc3548521ab78eeca","688a037a5ea80e806d1220f1","680bf9db627b9fac31d2efdc","3","S25_age5_trial3.png","false","false","https://kisumu-drawings.s3-us-west-1.amazonaws.com/tracings/S25_age5_trial3.png","5","",""
"","37686","image-button-response","31","null","1065585","68895b4cc3548521ab78eeca","688a037a5ea80e806d1220f1","680bf9db627b9fac31d2efdc","1","S85_age8_trial1.png","false","false","https://kisumu-drawings.s3-us-west-1.amazonaws.com/tracings/S85_age8_trial1.png","5","",""
"","36026","image-button-response","32","null","1102114","68895b4cc3548521ab78eeca","688a037a5ea80e806d1220f1","680bf9db627b9fac31d2efdc","1","S46_age6_trial1.png","false","false","https://kisumu-drawings.s3-us-west-1.amazonaws.com/tracings/S46_age6_trial1.png","1","",""
"","19140","image-button-response","33","null","1121766","68895b4cc3548521ab78eeca","688a037a5ea80e806d1220f1","680bf9db627b9fac31d2efdc","3","S65_age7_trial3.png","false","false","https://kisumu-drawings.s3-us-west-1.amazonaws.com/tracings/S65_age7_trial3.png","5","",""
"","8339","image-button-response","34","null","1130617","68895b4cc3548521ab78eeca","688a037a5ea80e806d1220f1","680bf9db627b9fac31d2efdc","1","S25_age5_trial1.png","false","false","https://kisumu-drawings.s3-us-west-1.amazonaws.com/tracings/S25_age5_trial1.png","5","",""
"","10713","image-button-response","35","null","1141846","68895b4cc3548521ab78eeca","688a037a5ea80e806d1220f1","680bf9db627b9fac31d2efdc","4","S47_age6_trial4.png","false","false","https://kisumu-drawings.s3-us-west-1.amazonaws.com/tracings/S47_age6_trial4.png","5","",""
"","13021","image-button-response","36","null","1155376","68895b4cc3548521ab78eeca","688a037a5ea80e806d1220f1","680bf9db627b9fac31d2efdc","2","S106_age9_trial2.png","false","false","https://kisumu-drawings.s3-us-west-1.amazonaws.com/tracings/S106_age9_trial2.png","1","",""
"","21141","image-button-response","37","null","1177028","68895b4cc3548521ab78eeca","688a037a5ea80e806d1220f1","680bf9db627b9fac31d2efdc","5","S106_age9_trial5.png","false","false","https://kisumu-drawings.s3-us-west-1.amazonaws.com/tracings/S106_age9_trial5.png","5","",""
"","30918","image-button-response","38","null","1208454","68895b4cc3548521ab78eeca","688a037a5ea80e806d1220f1","680bf9db627b9fac31d2efdc","3","S105_age9_trial3.png","false","false","https://kisumu-drawings.s3-us-west-1.amazonaws.com/tracings/S105_age9_trial3.png","5","",""
"","7987","image-button-response","39","null","1216947","68895b4cc3548521ab78eeca","688a037a5ea80e806d1220f1","680bf9db627b9fac31d2efdc","5","S14_age4_trial5.png","false","false","https://kisumu-drawings.s3-us-west-1.amazonaws.com/tracings/S14_age4_trial5.png","5","",""
"","26794","image-button-response","40","null","1244257","68895b4cc3548521ab78eeca","688a037a5ea80e806d1220f1","680bf9db627b9fac31d2efdc","5","S66_age7_trial5.png","false","false","https://kisumu-drawings.s3-us-west-1.amazonaws.com/tracings/S66_age7_trial5.png","5","",""
"","13152","image-button-response","41","null","1257918","68895b4cc3548521ab78eeca","688a037a5ea80e806d1220f1","680bf9db627b9fac31d2efdc","5","S25_age5_trial5.png","false","false","https://kisumu-drawings.s3-us-west-1.amazonaws.com/tracings/S25_age5_trial5.png","1","",""
"","15202","image-button-response","42","null","1273627","68895b4cc3548521ab78eeca","688a037a5ea80e806d1220f1","680bf9db627b9fac31d2efdc","2","S25_age5_trial2.png","false","false","https://kisumu-drawings.s3-us-west-1.amazonaws.com/tracings/S25_age5_trial2.png","1","",""
"","7870","image-button-response","43","null","1282013","68895b4cc3548521ab78eeca","688a037a5ea80e806d1220f1","680bf9db627b9fac31d2efdc","4","S85_age8_trial4.png","false","false","https://kisumu-drawings.s3-us-west-1.amazonaws.com/tracings/S85_age8_trial4.png","1","",""
"","8319","image-button-response","44","null","1290850","68895b4cc3548521ab78eeca","688a037a5ea80e806d1220f1","680bf9db627b9fac31d2efdc","1","S16_age4_trial1.png","false","false","https://kisumu-drawings.s3-us-west-1.amazonaws.com/tracings/S16_age4_trial1.png","4","",""
"","50176","image-button-response","45","null","1341532","68895b4cc3548521ab78eeca","688a037a5ea80e806d1220f1","680bf9db627b9fac31d2efdc","3","S14_age4_trial3.png","false","false","https://kisumu-drawings.s3-us-west-1.amazonaws.com/tracings/S14_age4_trial3.png","4","",""
"","29939","image-button-response","46","null","1371982","68895b4cc3548521ab78eeca","688a037a5ea80e806d1220f1","680bf9db627b9fac31d2efdc","1","S45_age6_trial1.png","false","false","https://kisumu-drawings.s3-us-west-1.amazonaws.com/tracings/S45_age6_trial1.png","1","",""
"","34490","image-button-response","47","null","1406977","68895b4cc3548521ab78eeca","688a037a5ea80e806d1220f1","680bf9db627b9fac31d2efdc","4","S68_age7_trial4.png","false","false","https://kisumu-drawings.s3-us-west-1.amazonaws.com/tracings/S68_age7_trial4.png","1","",""
"","6021","image-button-response","48","null","1413503","68895b4cc3548521ab78eeca","688a037a5ea80e806d1220f1","680bf9db627b9fac31d2efdc","3","S26_age5_trial3.png","false","false","https://kisumu-drawings.s3-us-west-1.amazonaws.com/tracings/S26_age5_trial3.png","1","",""
"","9079","image-button-response","49","null","1423085","68895b4cc3548521ab78eeca","688a037a5ea80e806d1220f1","680bf9db627b9fac31d2efdc","5","S46_age6_trial5.png","false","false","https://kisumu-drawings.s3-us-west-1.amazonaws.com/tracings/S46_age6_trial5.png","1","",""
"","11313","image-button-response","50","null","1434908","68895b4cc3548521ab78eeca","688a037a5ea80e806d1220f1","680bf9db627b9fac31d2efdc","3","S85_age8_trial3.png","false","false","https://kisumu-drawings.s3-us-west-1.amazonaws.com/tracings/S85_age8_trial3.png","1","",""
"","18611","image-button-response","51","null","1454024","68895b4cc3548521ab78eeca","688a037a5ea80e806d1220f1","680bf9db627b9fac31d2efdc","1","S106_age9_trial1.png","false","false","https://kisumu-drawings.s3-us-west-1.amazonaws.com/tracings/S106_age9_trial1.png","5","",""
"","57636","image-button-response","52","null","1512167","68895b4cc3548521ab78eeca","688a037a5ea80e806d1220f1","680bf9db627b9fac31d2efdc","1","S107_age9_trial1.png","false","false","https://kisumu-drawings.s3-us-west-1.amazonaws.com/tracings/S107_age9_trial1.png","5","",""
"","6537","image-button-response","53","null","1519215","68895b4cc3548521ab78eeca","688a037a5ea80e806d1220f1","680bf9db627b9fac31d2efdc","4","S25_age5_trial4.png","false","false","https://kisumu-drawings.s3-us-west-1.amazonaws.com/tracings/S25_age5_trial4.png","1","",""
"","9015","image-button-response","54","null","1528735","68895b4cc3548521ab78eeca","688a037a5ea80e806d1220f1","680bf9db627b9fac31d2efdc","3","S106_age9_trial3.png","false","false","https://kisumu-drawings.s3-us-west-1.amazonaws.com/tracings/S106_age9_trial3.png","1","",""
"","29511","image-button-response","55","null","1558753","68895b4cc3548521ab78eeca","688a037a5ea80e806d1220f1","680bf9db627b9fac31d2efdc","4","S46_age6_trial4.png","false","false","https://kisumu-drawings.s3-us-west-1.amazonaws.com/tracings/S46_age6_trial4.png","1","",""
"","10166","image-button-response","56","null","1569434","68895b4cc3548521ab78eeca","688a037a5ea80e806d1220f1","680bf9db627b9fac31d2efdc","2","S105_age9_trial2.png","false","false","https://kisumu-drawings.s3-us-west-1.amazonaws.com/tracings/S105_age9_trial2.png","1","",""
"","14333","image-button-response","57","null","1584280","68895b4cc3548521ab78eeca","688a037a5ea80e806d1220f1","680bf9db627b9fac31d2efdc","4","S106_age9_trial4.png","false","false","https://kisumu-drawings.s3-us-west-1.amazonaws.com/tracings/S106_age9_trial4.png","1","",""
"","44736","image-button-response","58","null","1629533","68895b4cc3548521ab78eeca","688a037a5ea80e806d1220f1","680bf9db627b9fac31d2efdc","1","S86_age8_trial1.png","false","false","https://kisumu-drawings.s3-us-west-1.amazonaws.com/tracings/S86_age8_trial1.png","5","",""
"","11354","image-button-response","59","null","1641398","68895b4cc3548521ab78eeca","688a037a5ea80e806d1220f1","680bf9db627b9fac31d2efdc","4","S86_age8_trial4.png","false","false","https://kisumu-drawings.s3-us-west-1.amazonaws.com/tracings/S86_age8_trial4.png","5","",""
"","37971","image-button-response","60","null","1679885","68895b4cc3548521ab78eeca","688a037a5ea80e806d1220f1","680bf9db627b9fac31d2efdc","4","S26_age5_trial4.png","false","false","https://kisumu-drawings.s3-us-west-1.amazonaws.com/tracings/S26_age5_trial4.png","5","",""
"","12350","image-button-response","61","null","1692743","68895b4cc3548521ab78eeca","688a037a5ea80e806d1220f1","680bf9db627b9fac31d2efdc","1","S15_age4_trial1.png","false","false","https://kisumu-drawings.s3-us-west-1.amazonaws.com/tracings/S15_age4_trial1.png","5","",""
