"view_history","rt","trial_type","trial_index","plugin_version","time_elapsed","study_id","session_id","participant_id","tracing_type","tracing_id","catch_trial","prep_trial","stimulus","response","sketcher_category","response_category"
"[{""page_index"":0,""viewing_time"":14712},{""page_index"":1,""viewing_time"":18895},{""page_index"":2,""viewing_time"":27345},{""page_index"":3,""viewing_time"":11073},{""page_index"":4,""viewing_time"":13912}]","85936","instructions","0","null","85971","68895b4cc3548521ab78eeca","688a93f23f7eeb09fe7cafdb","6824938830c974d9f6915e3c","","","","","","","",""
"","15476","image-button-response","1","null","102474","68895b4cc3548521ab78eeca","688a93f23f7eeb09fe7cafdb","6824938830c974d9f6915e3c","1","S113_age9_trial1.png","false","false","https://kisumu-drawings.s3-us-west-1.amazonaws.com/tracings/S113_age9_trial1.png","5","",""
"","9222","image-button-response","2","null","112202","68895b4cc3548521ab78eeca","688a93f23f7eeb09fe7cafdb","6824938830c974d9f6915e3c","2","S53_age6_trial2.png","false","false","https://kisumu-drawings.s3-us-west-1.amazonaws.com/tracings/S53_age6_trial2.png","5","",""
"","9398","image-button-response","3","null","122106","68895b4cc3548521ab78eeca","688a93f23f7eeb09fe7cafdb","6824938830c974d9f6915e3c","2","S32_age5_trial2.png","false","false","https://kisumu-drawings.s3-us-west-1.amazonaws.com/tracings/S32_age5_trial2.png","4","",""
"","11586","image-button-response","4","null","134201","68895b4cc3548521ab78eeca","688a93f23f7eeb09fe7cafdb","6824938830c974d9f6915e3c","2","S31_age5_trial2.png","false","false","https://kisumu-drawings.s3-us-west-1.amazonaws.com/tracings/S31_age5_trial2.png","4","",""
"","12381","image-button-response","5","null","147097","68895b4cc3548521ab78eeca","688a93f23f7eeb09fe7cafdb","6824938830c974d9f6915e3c","4","S113_age9_trial4.png","false","false","https://kisumu-drawings.s3-us-west-1.amazonaws.com/tracings/S113_age9_trial4.png","5","",""
"","7721","image-button-response","6","null","155334","68895b4cc3548521ab78eeca","688a93f23f7eeb09fe7cafdb","6824938830c974d9f6915e3c","1","S53_age6_trial1.png","false","false","https://kisumu-drawings.s3-us-west-1.amazonaws.com/tracings/S53_age6_trial1.png","5","",""
"","5912","image-button-response","7","null","161757","68895b4cc3548521ab78eeca","688a93f23f7eeb09fe7cafdb","6824938830c974d9f6915e3c","1","S31_age5_trial1.png","false","false","https://kisumu-drawings.s3-us-west-1.amazonaws.com/tracings/S31_age5_trial1.png","5","",""
"","3997","image-button-response","8","null","166262","68895b4cc3548521ab78eeca","688a93f23f7eeb09fe7cafdb","6824938830c974d9f6915e3c","4","S112_age9_trial4.png","false","false","https://kisumu-drawings.s3-us-west-1.amazonaws.com/tracings/S112_age9_trial4.png","5","",""
"","3530","image-button-response","9","null","170313","68895b4cc3548521ab78eeca","688a93f23f7eeb09fe7cafdb","6824938830c974d9f6915e3c","3","S90_age8_trial3.png","false","false","https://kisumu-drawings.s3-us-west-1.amazonaws.com/tracings/S90_age8_trial3.png","5","",""
"","3020","image-button-response","10","null","173844","68895b4cc3548521ab78eeca","688a93f23f7eeb09fe7cafdb","6824938830c974d9f6915e3c","2","S112_age9_trial2.png","false","false","https://kisumu-drawings.s3-us-west-1.amazonaws.com/tracings/S112_age9_trial2.png","5","",""
"","3168","image-button-response","11","null","177533","68895b4cc3548521ab78eeca","688a93f23f7eeb09fe7cafdb","6824938830c974d9f6915e3c","2","S90_age8_trial2.png","false","false","https://kisumu-drawings.s3-us-west-1.amazonaws.com/tracings/S90_age8_trial2.png","5","",""
"","2798","image-button-response","12","null","180849","68895b4cc3548521ab78eeca","688a93f23f7eeb09fe7cafdb","6824938830c974d9f6915e3c","2","S111_age9_trial2.png","false","false","https://kisumu-drawings.s3-us-west-1.amazonaws.com/tracings/S111_age9_trial2.png","5","",""
"","3198","image-button-response","13","null","184555","68895b4cc3548521ab78eeca","688a93f23f7eeb09fe7cafdb","6824938830c974d9f6915e3c","3","S91_age8_trial3.png","false","false","https://kisumu-drawings.s3-us-west-1.amazonaws.com/tracings/S91_age8_trial3.png","5","",""
"","3850","image-button-response","14","null","188912","68895b4cc3548521ab78eeca","688a93f23f7eeb09fe7cafdb","6824938830c974d9f6915e3c","1","S112_age9_trial1.png","false","false","https://kisumu-drawings.s3-us-west-1.amazonaws.com/tracings/S112_age9_trial1.png","5","",""
"","3585","image-button-response","15","null","193004","68895b4cc3548521ab78eeca","688a93f23f7eeb09fe7cafdb","6824938830c974d9f6915e3c","5","S52_age6_trial5.png","false","false","https://kisumu-drawings.s3-us-west-1.amazonaws.com/tracings/S52_age6_trial5.png","5","",""
"","6040","image-button-response","16","null","199557","68895b4cc3548521ab78eeca","688a93f23f7eeb09fe7cafdb","6824938830c974d9f6915e3c","5","S73_age7_trial5.png","false","false","https://kisumu-drawings.s3-us-west-1.amazonaws.com/tracings/S73_age7_trial5.png","4","",""
"","7985","image-button-response","17","null","208052","68895b4cc3548521ab78eeca","688a93f23f7eeb09fe7cafdb","6824938830c974d9f6915e3c","4","S52_age6_trial4.png","false","false","https://kisumu-drawings.s3-us-west-1.amazonaws.com/tracings/S52_age6_trial4.png","5","",""
"","5705","image-button-response","18","null","214264","68895b4cc3548521ab78eeca","688a93f23f7eeb09fe7cafdb","6824938830c974d9f6915e3c","3","S111_age9_trial3.png","false","false","https://kisumu-drawings.s3-us-west-1.amazonaws.com/tracings/S111_age9_trial3.png","5","",""
"","3374","image-button-response","19","null","218154","68895b4cc3548521ab78eeca","688a93f23f7eeb09fe7cafdb","6824938830c974d9f6915e3c","5","S91_age8_trial5.png","false","false","https://kisumu-drawings.s3-us-west-1.amazonaws.com/tracings/S91_age8_trial5.png","5","",""
"","3512","image-button-response","20","null","222180","68895b4cc3548521ab78eeca","688a93f23f7eeb09fe7cafdb","6824938830c974d9f6915e3c","","","true","false","stimuli/catch_trials/catch_trial.png","0","","1"
"","7015","image-button-response","21","null","229711","68895b4cc3548521ab78eeca","688a93f23f7eeb09fe7cafdb","6824938830c974d9f6915e3c","1","S20_age4_trial1.png","false","false","https://kisumu-drawings.s3-us-west-1.amazonaws.com/tracings/S20_age4_trial1.png","4","",""
"","3596","image-button-response","22","null","233820","68895b4cc3548521ab78eeca","688a93f23f7eeb09fe7cafdb","6824938830c974d9f6915e3c","2","S71_age7_trial2.png","false","false","https://kisumu-drawings.s3-us-west-1.amazonaws.com/tracings/S71_age7_trial2.png","5","",""
"","4760","image-button-response","23","null","239086","68895b4cc3548521ab78eeca","688a93f23f7eeb09fe7cafdb","6824938830c974d9f6915e3c","3","S20_age4_trial3.png","false","false","https://kisumu-drawings.s3-us-west-1.amazonaws.com/tracings/S20_age4_trial3.png","1","",""
"","3915","image-button-response","24","null","243505","68895b4cc3548521ab78eeca","688a93f23f7eeb09fe7cafdb","6824938830c974d9f6915e3c","3","S52_age6_trial3.png","false","false","https://kisumu-drawings.s3-us-west-1.amazonaws.com/tracings/S52_age6_trial3.png","5","",""
"","4117","image-button-response","25","null","248132","68895b4cc3548521ab78eeca","688a93f23f7eeb09fe7cafdb","6824938830c974d9f6915e3c","5","S31_age5_trial5.png","false","false","https://kisumu-drawings.s3-us-west-1.amazonaws.com/tracings/S31_age5_trial5.png","4","",""
"","3344","image-button-response","26","null","251996","68895b4cc3548521ab78eeca","688a93f23f7eeb09fe7cafdb","6824938830c974d9f6915e3c","1","S92_age8_trial1.png","false","false","https://kisumu-drawings.s3-us-west-1.amazonaws.com/tracings/S92_age8_trial1.png","5","",""
"","4724","image-button-response","27","null","257229","68895b4cc3548521ab78eeca","688a93f23f7eeb09fe7cafdb","6824938830c974d9f6915e3c","5","S20_age4_trial5.png","false","false","https://kisumu-drawings.s3-us-west-1.amazonaws.com/tracings/S20_age4_trial5.png","1","",""
"","4153","image-button-response","28","null","261889","68895b4cc3548521ab78eeca","688a93f23f7eeb09fe7cafdb","6824938830c974d9f6915e3c","5","S92_age8_trial5.png","false","false","https://kisumu-drawings.s3-us-west-1.amazonaws.com/tracings/S92_age8_trial5.png","5","",""
"","4116","image-button-response","29","null","266511","68895b4cc3548521ab78eeca","688a93f23f7eeb09fe7cafdb","6824938830c974d9f6915e3c","4","S53_age6_trial4.png","false","false","https://kisumu-drawings.s3-us-west-1.amazonaws.com/tracings/S53_age6_trial4.png","4","",""
"","6497","image-button-response","30","null","273524","68895b4cc3548521ab78eeca","688a93f23f7eeb09fe7cafdb","6824938830c974d9f6915e3c","5","S1_age4_trial5.png","false","false","https://kisumu-drawings.s3-us-west-1.amazonaws.com/tracings/S1_age4_trial5.png","2","",""
"","8273","image-button-response","31","null","282309","68895b4cc3548521ab78eeca","688a93f23f7eeb09fe7cafdb","6824938830c974d9f6915e3c","2","S1_age4_trial2.png","false","false","https://kisumu-drawings.s3-us-west-1.amazonaws.com/tracings/S1_age4_trial2.png","4","",""
"","6656","image-button-response","32","null","289473","68895b4cc3548521ab78eeca","688a93f23f7eeb09fe7cafdb","6824938830c974d9f6915e3c","1","S91_age8_trial1.png","false","false","https://kisumu-drawings.s3-us-west-1.amazonaws.com/tracings/S91_age8_trial1.png","5","",""
"","4399","image-button-response","33","null","294378","68895b4cc3548521ab78eeca","688a93f23f7eeb09fe7cafdb","6824938830c974d9f6915e3c","4","S32_age5_trial4.png","false","false","https://kisumu-drawings.s3-us-west-1.amazonaws.com/tracings/S32_age5_trial4.png","2","",""
"","3456","image-button-response","34","null","298344","68895b4cc3548521ab78eeca","688a93f23f7eeb09fe7cafdb","6824938830c974d9f6915e3c","1","S32_age5_trial1.png","false","false","https://kisumu-drawings.s3-us-west-1.amazonaws.com/tracings/S32_age5_trial1.png","2","",""
"","3796","image-button-response","35","null","302649","68895b4cc3548521ab78eeca","688a93f23f7eeb09fe7cafdb","6824938830c974d9f6915e3c","2","S52_age6_trial2.png","false","false","https://kisumu-drawings.s3-us-west-1.amazonaws.com/tracings/S52_age6_trial2.png","5","",""
"","3941","image-button-response","36","null","307099","68895b4cc3548521ab78eeca","688a93f23f7eeb09fe7cafdb","6824938830c974d9f6915e3c","3","S53_age6_trial3.png","false","false","https://kisumu-drawings.s3-us-west-1.amazonaws.com/tracings/S53_age6_trial3.png","5","",""
"","2949","image-button-response","37","null","310556","68895b4cc3548521ab78eeca","688a93f23f7eeb09fe7cafdb","6824938830c974d9f6915e3c","1","S1_age4_trial1.png","false","false","https://kisumu-drawings.s3-us-west-1.amazonaws.com/tracings/S1_age4_trial1.png","4","",""
"","2864","image-button-response","38","null","313929","68895b4cc3548521ab78eeca","688a93f23f7eeb09fe7cafdb","6824938830c974d9f6915e3c","3","S71_age7_trial3.png","false","false","https://kisumu-drawings.s3-us-west-1.amazonaws.com/tracings/S71_age7_trial3.png","5","",""
"","4434","image-button-response","39","null","318871","68895b4cc3548521ab78eeca","688a93f23f7eeb09fe7cafdb","6824938830c974d9f6915e3c","4","S1_age4_trial4.png","false","false","https://kisumu-drawings.s3-us-west-1.amazonaws.com/tracings/S1_age4_trial4.png","2","",""
"","3733","image-button-response","40","null","323109","68895b4cc3548521ab78eeca","688a93f23f7eeb09fe7cafdb","6824938830c974d9f6915e3c","1","S52_age6_trial1.png","false","false","https://kisumu-drawings.s3-us-west-1.amazonaws.com/tracings/S52_age6_trial1.png","5","",""
"","3380","image-button-response","41","null","327009","68895b4cc3548521ab78eeca","688a93f23f7eeb09fe7cafdb","6824938830c974d9f6915e3c","3","S112_age9_trial3.png","false","false","https://kisumu-drawings.s3-us-west-1.amazonaws.com/tracings/S112_age9_trial3.png","5","",""
"","4917","image-button-response","42","null","332431","68895b4cc3548521ab78eeca","688a93f23f7eeb09fe7cafdb","6824938830c974d9f6915e3c","4","S74_age7_trial4.png","false","false","https://kisumu-drawings.s3-us-west-1.amazonaws.com/tracings/S74_age7_trial4.png","4","",""
"","3729","image-button-response","43","null","336679","68895b4cc3548521ab78eeca","688a93f23f7eeb09fe7cafdb","6824938830c974d9f6915e3c","4","S90_age8_trial4.png","false","false","https://kisumu-drawings.s3-us-west-1.amazonaws.com/tracings/S90_age8_trial4.png","5","",""
"","3247","image-button-response","44","null","340436","68895b4cc3548521ab78eeca","688a93f23f7eeb09fe7cafdb","6824938830c974d9f6915e3c","1","S71_age7_trial1.png","false","false","https://kisumu-drawings.s3-us-west-1.amazonaws.com/tracings/S71_age7_trial1.png","5","",""
"","3636","image-button-response","45","null","344585","68895b4cc3548521ab78eeca","688a93f23f7eeb09fe7cafdb","6824938830c974d9f6915e3c","2","S20_age4_trial2.png","false","false","https://kisumu-drawings.s3-us-west-1.amazonaws.com/tracings/S20_age4_trial2.png","1","",""
"","4009","image-button-response","46","null","349109","68895b4cc3548521ab78eeca","688a93f23f7eeb09fe7cafdb","6824938830c974d9f6915e3c","1","S72_age7_trial1.png","false","false","https://kisumu-drawings.s3-us-west-1.amazonaws.com/tracings/S72_age7_trial1.png","5","",""
"","3141","image-button-response","47","null","352756","68895b4cc3548521ab78eeca","688a93f23f7eeb09fe7cafdb","6824938830c974d9f6915e3c","3","S32_age5_trial3.png","false","false","https://kisumu-drawings.s3-us-west-1.amazonaws.com/tracings/S32_age5_trial3.png","4","",""
"","4483","image-button-response","48","null","357754","68895b4cc3548521ab78eeca","688a93f23f7eeb09fe7cafdb","6824938830c974d9f6915e3c","5","S113_age9_trial5.png","false","false","https://kisumu-drawings.s3-us-west-1.amazonaws.com/tracings/S113_age9_trial5.png","5","",""
"","3422","image-button-response","49","null","361687","68895b4cc3548521ab78eeca","688a93f23f7eeb09fe7cafdb","6824938830c974d9f6915e3c","4","S73_age7_trial4.png","false","false","https://kisumu-drawings.s3-us-west-1.amazonaws.com/tracings/S73_age7_trial4.png","4","",""
"","11664","image-button-response","50","null","373856","68895b4cc3548521ab78eeca","688a93f23f7eeb09fe7cafdb","6824938830c974d9f6915e3c","5","S51_age6_trial5.png","false","false","https://kisumu-drawings.s3-us-west-1.amazonaws.com/tracings/S51_age6_trial5.png","4","",""
"","6706","image-button-response","51","null","381069","68895b4cc3548521ab78eeca","688a93f23f7eeb09fe7cafdb","6824938830c974d9f6915e3c","5","S32_age5_trial5.png","false","false","https://kisumu-drawings.s3-us-west-1.amazonaws.com/tracings/S32_age5_trial5.png","2","",""
"","5219","image-button-response","52","null","386796","68895b4cc3548521ab78eeca","688a93f23f7eeb09fe7cafdb","6824938830c974d9f6915e3c","3","S72_age7_trial3.png","false","false","https://kisumu-drawings.s3-us-west-1.amazonaws.com/tracings/S72_age7_trial3.png","5","",""
"","3853","image-button-response","53","null","391158","68895b4cc3548521ab78eeca","688a93f23f7eeb09fe7cafdb","6824938830c974d9f6915e3c","5","S72_age7_trial5.png","false","false","https://kisumu-drawings.s3-us-west-1.amazonaws.com/tracings/S72_age7_trial5.png","5","",""
"","3074","image-button-response","54","null","394739","68895b4cc3548521ab78eeca","688a93f23f7eeb09fe7cafdb","6824938830c974d9f6915e3c","2","S91_age8_trial2.png","false","false","https://kisumu-drawings.s3-us-west-1.amazonaws.com/tracings/S91_age8_trial2.png","5","",""
"","2868","image-button-response","55","null","398120","68895b4cc3548521ab78eeca","688a93f23f7eeb09fe7cafdb","6824938830c974d9f6915e3c","2","S72_age7_trial2.png","false","false","https://kisumu-drawings.s3-us-west-1.amazonaws.com/tracings/S72_age7_trial2.png","5","",""
"","12979","image-button-response","56","null","411608","68895b4cc3548521ab78eeca","688a93f23f7eeb09fe7cafdb","6824938830c974d9f6915e3c","4","S91_age8_trial4.png","false","false","https://kisumu-drawings.s3-us-west-1.amazonaws.com/tracings/S91_age8_trial4.png","5","",""
"","6860","image-button-response","57","null","418980","68895b4cc3548521ab78eeca","688a93f23f7eeb09fe7cafdb","6824938830c974d9f6915e3c","3","S31_age5_trial3.png","false","false","https://kisumu-drawings.s3-us-west-1.amazonaws.com/tracings/S31_age5_trial3.png","4","",""
"","4453","image-button-response","58","null","423951","68895b4cc3548521ab78eeca","688a93f23f7eeb09fe7cafdb","6824938830c974d9f6915e3c","4","S20_age4_trial4.png","false","false","https://kisumu-drawings.s3-us-west-1.amazonaws.com/tracings/S20_age4_trial4.png","1","",""
"","3059","image-button-response","59","null","427517","68895b4cc3548521ab78eeca","688a93f23f7eeb09fe7cafdb","6824938830c974d9f6915e3c","3","S1_age4_trial3.png","false","false","https://kisumu-drawings.s3-us-west-1.amazonaws.com/tracings/S1_age4_trial3.png","2","",""
"","3244","image-button-response","60","null","431276","68895b4cc3548521ab78eeca","688a93f23f7eeb09fe7cafdb","6824938830c974d9f6915e3c","4","S31_age5_trial4.png","false","false","https://kisumu-drawings.s3-us-west-1.amazonaws.com/tracings/S31_age5_trial4.png","2","",""
"","5061","image-button-response","61","null","436847","68895b4cc3548521ab78eeca","688a93f23f7eeb09fe7cafdb","6824938830c974d9f6915e3c","5","S112_age9_trial5.png","false","false","https://kisumu-drawings.s3-us-west-1.amazonaws.com/tracings/S112_age9_trial5.png","5","",""
