view_history,rt,trial_type,trial_index,plugin_version,time_elapsed,study_id,session_id,participant_id,tracing_type,tracing_id,catch_trial,prep_trial,stimulus,response,sketcher_category,response_category
"[{""page_index"":0,""viewing_time"":4411},{""page_index"":1,""viewing_time"":3461},{""page_index"":2,""viewing_time"":7803},{""page_index"":3,""viewing_time"":4526},{""page_index"":4,""viewing_time"":3386}]",23588,instructions,0,,23599,68895b4cc3548521ab78eeca,688aa8fd81cc3a60a0c9a6e0,28,,,,,,,,
,2605,image-button-response,1,,27210,68895b4cc3548521ab78eeca,688aa8fd81cc3a60a0c9a6e0,28,4.0,S31_age5_trial4.png,False,False,https://kisumu-drawings.s3-us-west-1.amazonaws.com/tracings/S31_age5_trial4.png,4.0,,
,2471,image-button-response,2,,30183,68895b4cc3548521ab78eeca,688aa8fd81cc3a60a0c9a6e0,28,3.0,S32_age5_trial3.png,False,False,https://kisumu-drawings.s3-us-west-1.amazonaws.com/tracings/S32_age5_trial3.png,4.0,,
,4136,image-button-response,3,,34820,68895b4cc3548521ab78eeca,688aa8fd81cc3a60a0c9a6e0,28,4.0,S113_age9_trial4.png,False,False,https://kisumu-drawings.s3-us-west-1.amazonaws.com/tracings/S113_age9_trial4.png,5.0,,
,3656,image-button-response,4,,38978,68895b4cc3548521ab78eeca,688aa8fd81cc3a60a0c9a6e0,28,2.0,S2_age4_trial2.png,False,False,https://kisumu-drawings.s3-us-west-1.amazonaws.com/tracings/S2_age4_trial2.png,3.0,,
,2245,image-button-response,5,,41726,68895b4cc3548521ab78eeca,688aa8fd81cc3a60a0c9a6e0,28,1.0,S112_age9_trial1.png,False,False,https://kisumu-drawings.s3-us-west-1.amazonaws.com/tracings/S112_age9_trial1.png,5.0,,
,1887,image-button-response,6,,44115,68895b4cc3548521ab78eeca,688aa8fd81cc3a60a0c9a6e0,28,5.0,S33_age5_trial5.png,False,False,https://kisumu-drawings.s3-us-west-1.amazonaws.com/tracings/S33_age5_trial5.png,4.0,,
,3084,image-button-response,7,,47701,68895b4cc3548521ab78eeca,688aa8fd81cc3a60a0c9a6e0,28,4.0,S91_age8_trial4.png,False,False,https://kisumu-drawings.s3-us-west-1.amazonaws.com/tracings/S91_age8_trial4.png,5.0,,
,4670,image-button-response,8,,52874,68895b4cc3548521ab78eeca,688aa8fd81cc3a60a0c9a6e0,28,4.0,S32_age5_trial4.png,False,False,https://kisumu-drawings.s3-us-west-1.amazonaws.com/tracings/S32_age5_trial4.png,4.0,,
,5319,image-button-response,9,,58695,68895b4cc3548521ab78eeca,688aa8fd81cc3a60a0c9a6e0,28,5.0,S51_age6_trial5.png,False,False,https://kisumu-drawings.s3-us-west-1.amazonaws.com/tracings/S51_age6_trial5.png,3.0,,
,1626,image-button-response,10,,60824,68895b4cc3548521ab78eeca,688aa8fd81cc3a60a0c9a6e0,28,3.0,S91_age8_trial3.png,False,False,https://kisumu-drawings.s3-us-west-1.amazonaws.com/tracings/S91_age8_trial3.png,5.0,,
,1716,image-button-response,11,,63043,68895b4cc3548521ab78eeca,688aa8fd81cc3a60a0c9a6e0,28,3.0,S31_age5_trial3.png,False,False,https://kisumu-drawings.s3-us-west-1.amazonaws.com/tracings/S31_age5_trial3.png,5.0,,
,1505,image-button-response,12,,65050,68895b4cc3548521ab78eeca,688aa8fd81cc3a60a0c9a6e0,28,1.0,S32_age5_trial1.png,False,False,https://kisumu-drawings.s3-us-west-1.amazonaws.com/tracings/S32_age5_trial1.png,5.0,,
,23746,image-button-response,13,,89297,68895b4cc3548521ab78eeca,688aa8fd81cc3a60a0c9a6e0,28,2.0,S32_age5_trial2.png,False,False,https://kisumu-drawings.s3-us-west-1.amazonaws.com/tracings/S32_age5_trial2.png,4.0,,
,3545,image-button-response,14,,93343,68895b4cc3548521ab78eeca,688aa8fd81cc3a60a0c9a6e0,28,5.0,S92_age8_trial5.png,False,False,https://kisumu-drawings.s3-us-west-1.amazonaws.com/tracings/S92_age8_trial5.png,5.0,,
,6335,image-button-response,15,,100180,68895b4cc3548521ab78eeca,688aa8fd81cc3a60a0c9a6e0,28,2.0,S20_age4_trial2.png,False,False,https://kisumu-drawings.s3-us-west-1.amazonaws.com/tracings/S20_age4_trial2.png,3.0,,
,3131,image-button-response,16,,103813,68895b4cc3548521ab78eeca,688aa8fd81cc3a60a0c9a6e0,28,4.0,S53_age6_trial4.png,False,False,https://kisumu-drawings.s3-us-west-1.amazonaws.com/tracings/S53_age6_trial4.png,5.0,,
,1348,image-button-response,17,,105663,68895b4cc3548521ab78eeca,688aa8fd81cc3a60a0c9a6e0,28,4.0,S73_age7_trial4.png,False,False,https://kisumu-drawings.s3-us-west-1.amazonaws.com/tracings/S73_age7_trial4.png,5.0,,
,1832,image-button-response,18,,107996,68895b4cc3548521ab78eeca,688aa8fd81cc3a60a0c9a6e0,28,3.0,S1_age4_trial3.png,False,False,https://kisumu-drawings.s3-us-west-1.amazonaws.com/tracings/S1_age4_trial3.png,5.0,,
,233151,image-button-response,19,,341649,68895b4cc3548521ab78eeca,688aa8fd81cc3a60a0c9a6e0,28,4.0,S74_age7_trial4.png,False,False,https://kisumu-drawings.s3-us-west-1.amazonaws.com/tracings/S74_age7_trial4.png,4.0,,
,1710,image-button-response,20,,343861,68895b4cc3548521ab78eeca,688aa8fd81cc3a60a0c9a6e0,28,3.0,S92_age8_trial3.png,False,False,https://kisumu-drawings.s3-us-west-1.amazonaws.com/tracings/S92_age8_trial3.png,4.0,,
,1124,image-button-response,21,,345488,68895b4cc3548521ab78eeca,688aa8fd81cc3a60a0c9a6e0,28,4.0,S1_age4_trial4.png,False,False,https://kisumu-drawings.s3-us-west-1.amazonaws.com/tracings/S1_age4_trial4.png,4.0,,
,2264,image-button-response,22,,348255,68895b4cc3548521ab78eeca,688aa8fd81cc3a60a0c9a6e0,28,3.0,S20_age4_trial3.png,False,False,https://kisumu-drawings.s3-us-west-1.amazonaws.com/tracings/S20_age4_trial3.png,2.0,,
,2992,image-button-response,23,,351748,68895b4cc3548521ab78eeca,688aa8fd81cc3a60a0c9a6e0,28,5.0,S20_age4_trial5.png,False,False,https://kisumu-drawings.s3-us-west-1.amazonaws.com/tracings/S20_age4_trial5.png,2.0,,
,17094,image-button-response,24,,369344,68895b4cc3548521ab78eeca,688aa8fd81cc3a60a0c9a6e0,28,5.0,S112_age9_trial5.png,False,False,https://kisumu-drawings.s3-us-west-1.amazonaws.com/tracings/S112_age9_trial5.png,5.0,,
,2821,image-button-response,25,,372666,68895b4cc3548521ab78eeca,688aa8fd81cc3a60a0c9a6e0,28,2.0,S33_age5_trial2.png,False,False,https://kisumu-drawings.s3-us-west-1.amazonaws.com/tracings/S33_age5_trial2.png,1.0,,
,20892,image-button-response,26,,394061,68895b4cc3548521ab78eeca,688aa8fd81cc3a60a0c9a6e0,28,2.0,S53_age6_trial2.png,False,False,https://kisumu-drawings.s3-us-west-1.amazonaws.com/tracings/S53_age6_trial2.png,5.0,,
,2548,image-button-response,27,,397110,68895b4cc3548521ab78eeca,688aa8fd81cc3a60a0c9a6e0,28,1.0,S72_age7_trial1.png,False,False,https://kisumu-drawings.s3-us-west-1.amazonaws.com/tracings/S72_age7_trial1.png,3.0,,
,1775,image-button-response,28,,399387,68895b4cc3548521ab78eeca,688aa8fd81cc3a60a0c9a6e0,28,1.0,S2_age4_trial1.png,False,False,https://kisumu-drawings.s3-us-west-1.amazonaws.com/tracings/S2_age4_trial1.png,5.0,,
,1710,image-button-response,29,,401599,68895b4cc3548521ab78eeca,688aa8fd81cc3a60a0c9a6e0,28,2.0,S73_age7_trial2.png,False,False,https://kisumu-drawings.s3-us-west-1.amazonaws.com/tracings/S73_age7_trial2.png,5.0,,
,55476,image-button-response,30,,457578,68895b4cc3548521ab78eeca,688aa8fd81cc3a60a0c9a6e0,28,4.0,S52_age6_trial4.png,False,False,https://kisumu-drawings.s3-us-west-1.amazonaws.com/tracings/S52_age6_trial4.png,5.0,,
,8617,image-button-response,31,,466698,68895b4cc3548521ab78eeca,688aa8fd81cc3a60a0c9a6e0,28,1.0,S52_age6_trial1.png,False,False,https://kisumu-drawings.s3-us-west-1.amazonaws.com/tracings/S52_age6_trial1.png,5.0,,
,5509,image-button-response,32,,472709,68895b4cc3548521ab78eeca,688aa8fd81cc3a60a0c9a6e0,28,3.0,S73_age7_trial3.png,False,False,https://kisumu-drawings.s3-us-west-1.amazonaws.com/tracings/S73_age7_trial3.png,5.0,,
,3136,image-button-response,33,,476346,68895b4cc3548521ab78eeca,688aa8fd81cc3a60a0c9a6e0,28,1.0,S113_age9_trial1.png,False,False,https://kisumu-drawings.s3-us-west-1.amazonaws.com/tracings/S113_age9_trial1.png,5.0,,
,9183,image-button-response,34,,486031,68895b4cc3548521ab78eeca,688aa8fd81cc3a60a0c9a6e0,28,5.0,S93_age8_trial5.png,False,False,https://kisumu-drawings.s3-us-west-1.amazonaws.com/tracings/S93_age8_trial5.png,5.0,,
,1841,image-button-response,35,,488374,68895b4cc3548521ab78eeca,688aa8fd81cc3a60a0c9a6e0,28,5.0,S52_age6_trial5.png,False,False,https://kisumu-drawings.s3-us-west-1.amazonaws.com/tracings/S52_age6_trial5.png,5.0,,
,2541,image-button-response,36,,491417,68895b4cc3548521ab78eeca,688aa8fd81cc3a60a0c9a6e0,28,2.0,S113_age9_trial2.png,False,False,https://kisumu-drawings.s3-us-west-1.amazonaws.com/tracings/S113_age9_trial2.png,5.0,,
,1299,image-button-response,37,,493217,68895b4cc3548521ab78eeca,688aa8fd81cc3a60a0c9a6e0,28,5.0,S73_age7_trial5.png,False,False,https://kisumu-drawings.s3-us-west-1.amazonaws.com/tracings/S73_age7_trial5.png,5.0,,
,1264,image-button-response,38,,494983,68895b4cc3548521ab78eeca,688aa8fd81cc3a60a0c9a6e0,28,3.0,S113_age9_trial3.png,False,False,https://kisumu-drawings.s3-us-west-1.amazonaws.com/tracings/S113_age9_trial3.png,5.0,,
,1303,image-button-response,39,,496789,68895b4cc3548521ab78eeca,688aa8fd81cc3a60a0c9a6e0,28,2.0,S74_age7_trial2.png,False,False,https://kisumu-drawings.s3-us-west-1.amazonaws.com/tracings/S74_age7_trial2.png,5.0,,
,1277,image-button-response,40,,498568,68895b4cc3548521ab78eeca,688aa8fd81cc3a60a0c9a6e0,28,3.0,S114_age9_trial3.png,False,False,https://kisumu-drawings.s3-us-west-1.amazonaws.com/tracings/S114_age9_trial3.png,5.0,,
,3106,image-button-response,41,,502176,68895b4cc3548521ab78eeca,688aa8fd81cc3a60a0c9a6e0,28,5.0,S2_age4_trial5.png,False,False,https://kisumu-drawings.s3-us-west-1.amazonaws.com/tracings/S2_age4_trial5.png,2.0,,
,2164,image-button-response,42,,504841,68895b4cc3548521ab78eeca,688aa8fd81cc3a60a0c9a6e0,28,5.0,S113_age9_trial5.png,False,False,https://kisumu-drawings.s3-us-west-1.amazonaws.com/tracings/S113_age9_trial5.png,5.0,,
,1195,image-button-response,43,,506539,68895b4cc3548521ab78eeca,688aa8fd81cc3a60a0c9a6e0,28,,,True,False,stimuli/catch_trials/catch_trial.png,4.0,,5.0
,2210,image-button-response,44,,509251,68895b4cc3548521ab78eeca,688aa8fd81cc3a60a0c9a6e0,28,5.0,S32_age5_trial5.png,False,False,https://kisumu-drawings.s3-us-west-1.amazonaws.com/tracings/S32_age5_trial5.png,1.0,,
,958,image-button-response,45,,510712,68895b4cc3548521ab78eeca,688aa8fd81cc3a60a0c9a6e0,28,1.0,S91_age8_trial1.png,False,False,https://kisumu-drawings.s3-us-west-1.amazonaws.com/tracings/S91_age8_trial1.png,5.0,,
,2479,image-button-response,46,,513693,68895b4cc3548521ab78eeca,688aa8fd81cc3a60a0c9a6e0,28,2.0,S92_age8_trial2.png,False,False,https://kisumu-drawings.s3-us-west-1.amazonaws.com/tracings/S92_age8_trial2.png,4.0,,
,1759,image-button-response,47,,515954,68895b4cc3548521ab78eeca,688aa8fd81cc3a60a0c9a6e0,28,4.0,S112_age9_trial4.png,False,False,https://kisumu-drawings.s3-us-west-1.amazonaws.com/tracings/S112_age9_trial4.png,4.0,,
,2441,image-button-response,48,,518897,68895b4cc3548521ab78eeca,688aa8fd81cc3a60a0c9a6e0,28,1.0,S53_age6_trial1.png,False,False,https://kisumu-drawings.s3-us-west-1.amazonaws.com/tracings/S53_age6_trial1.png,3.0,,
,1128,image-button-response,49,,520526,68895b4cc3548521ab78eeca,688aa8fd81cc3a60a0c9a6e0,28,2.0,S52_age6_trial2.png,False,False,https://kisumu-drawings.s3-us-west-1.amazonaws.com/tracings/S52_age6_trial2.png,3.0,,
,1588,image-button-response,50,,522617,68895b4cc3548521ab78eeca,688aa8fd81cc3a60a0c9a6e0,28,4.0,S92_age8_trial4.png,False,False,https://kisumu-drawings.s3-us-west-1.amazonaws.com/tracings/S92_age8_trial4.png,5.0,,
,1246,image-button-response,51,,524364,68895b4cc3548521ab78eeca,688aa8fd81cc3a60a0c9a6e0,28,1.0,S20_age4_trial1.png,False,False,https://kisumu-drawings.s3-us-west-1.amazonaws.com/tracings/S20_age4_trial1.png,4.0,,
,2888,image-button-response,52,,527755,68895b4cc3548521ab78eeca,688aa8fd81cc3a60a0c9a6e0,28,4.0,S20_age4_trial4.png,False,False,https://kisumu-drawings.s3-us-west-1.amazonaws.com/tracings/S20_age4_trial4.png,1.0,,
,8678,image-button-response,53,,536935,68895b4cc3548521ab78eeca,688aa8fd81cc3a60a0c9a6e0,28,1.0,S33_age5_trial1.png,False,False,https://kisumu-drawings.s3-us-west-1.amazonaws.com/tracings/S33_age5_trial1.png,2.0,,
,2333,image-button-response,54,,539770,68895b4cc3548521ab78eeca,688aa8fd81cc3a60a0c9a6e0,28,3.0,S52_age6_trial3.png,False,False,https://kisumu-drawings.s3-us-west-1.amazonaws.com/tracings/S52_age6_trial3.png,5.0,,
,1323,image-button-response,55,,541595,68895b4cc3548521ab78eeca,688aa8fd81cc3a60a0c9a6e0,28,2.0,S93_age8_trial2.png,False,False,https://kisumu-drawings.s3-us-west-1.amazonaws.com/tracings/S93_age8_trial2.png,5.0,,
,1463,image-button-response,56,,543575,68895b4cc3548521ab78eeca,688aa8fd81cc3a60a0c9a6e0,28,2.0,S112_age9_trial2.png,False,False,https://kisumu-drawings.s3-us-west-1.amazonaws.com/tracings/S112_age9_trial2.png,5.0,,
,1460,image-button-response,57,,545538,68895b4cc3548521ab78eeca,688aa8fd81cc3a60a0c9a6e0,28,5.0,S72_age7_trial5.png,False,False,https://kisumu-drawings.s3-us-west-1.amazonaws.com/tracings/S72_age7_trial5.png,5.0,,
,2795,image-button-response,58,,548835,68895b4cc3548521ab78eeca,688aa8fd81cc3a60a0c9a6e0,28,1.0,S71_age7_trial1.png,False,False,https://kisumu-drawings.s3-us-west-1.amazonaws.com/tracings/S71_age7_trial1.png,4.0,,
,1647,image-button-response,59,,550983,68895b4cc3548521ab78eeca,688aa8fd81cc3a60a0c9a6e0,28,3.0,S53_age6_trial3.png,False,False,https://kisumu-drawings.s3-us-west-1.amazonaws.com/tracings/S53_age6_trial3.png,5.0,,
,1048,image-button-response,60,,552533,68895b4cc3548521ab78eeca,688aa8fd81cc3a60a0c9a6e0,28,3.0,S72_age7_trial3.png,False,False,https://kisumu-drawings.s3-us-west-1.amazonaws.com/tracings/S72_age7_trial3.png,5.0,,
,1032,image-button-response,61,,554066,68895b4cc3548521ab78eeca,688aa8fd81cc3a60a0c9a6e0,28,1.0,S92_age8_trial1.png,False,False,https://kisumu-drawings.s3-us-west-1.amazonaws.com/tracings/S92_age8_trial1.png,5.0,,
