"view_history","rt","trial_type","trial_index","plugin_version","time_elapsed","study_id","session_id","participant_id","catch_trial","prep_trial","sketcher_category","stimulus","response","response_category","sketch_id"
"[{""page_index"":0,""viewing_time"":2323},{""page_index"":1,""viewing_time"":1007},{""page_index"":2,""viewing_time"":735},{""page_index"":3,""viewing_time"":1121}]","5187","instructions","0","null","5220","68769bb471ece8c02a5878a4","6876a3f2d8a059106e866215","5b646a727c39ee00010a18b0","","","","","","",""
"","1893","image-button-response","1","null","8126","68769bb471ece8c02a5878a4","6876a3f2d8a059106e866215","5b646a727c39ee00010a18b0","false","true","car","stimuli/prep_trials/1_car_prep.png","3","Car",""
"","2958","image-button-response","2","null","11605","68769bb471ece8c02a5878a4","6876a3f2d8a059106e866215","5b646a727c39ee00010a18b0","false","true","cat","stimuli/prep_trials/0_cat_prep.jpg","4","Cat",""
"","11899","image-button-response","3","null","24021","68769bb471ece8c02a5878a4","6876a3f2d8a059106e866215","5b646a727c39ee00010a18b0","false","false","Bicycle","https://kisumu-drawings.s3-us-west-1.amazonaws.com/82-006.png","0","Airplane","82-006.png"
"","16742","image-button-response","4","null","41278","68769bb471ece8c02a5878a4","6876a3f2d8a059106e866215","5b646a727c39ee00010a18b0","false","false","Car","https://kisumu-drawings.s3-us-west-1.amazonaws.com/36-011.png","3","Car","36-011.png"
"","6948","image-button-response","5","null","48749","68769bb471ece8c02a5878a4","6876a3f2d8a059106e866215","5b646a727c39ee00010a18b0","false","false","Tree","https://kisumu-drawings.s3-us-west-1.amazonaws.com/83-013.png","10","Tree","83-013.png"
"","16781","image-button-response","6","null","66038","68769bb471ece8c02a5878a4","6876a3f2d8a059106e866215","5b646a727c39ee00010a18b0","false","false","Car","https://kisumu-drawings.s3-us-west-1.amazonaws.com/14-010.png","11","Watch","14-010.png"
"","6074","image-button-response","7","null","72622","68769bb471ece8c02a5878a4","6876a3f2d8a059106e866215","5b646a727c39ee00010a18b0","false","false","Rabbit","https://kisumu-drawings.s3-us-west-1.amazonaws.com/97-012.png","2","Bird","97-012.png"
"","4508","image-button-response","8","null","77647","68769bb471ece8c02a5878a4","6876a3f2d8a059106e866215","5b646a727c39ee00010a18b0","false","false","Airplane","https://kisumu-drawings.s3-us-west-1.amazonaws.com/70-008.png","0","Airplane","70-008.png"
"","12537","image-button-response","9","null","90702","68769bb471ece8c02a5878a4","6876a3f2d8a059106e866215","5b646a727c39ee00010a18b0","false","false","Bicycle","https://kisumu-drawings.s3-us-west-1.amazonaws.com/53-010.png","0","Airplane","53-010.png"
"","4581","image-button-response","10","null","95790","68769bb471ece8c02a5878a4","6876a3f2d8a059106e866215","5b646a727c39ee00010a18b0","false","false","Cat","https://kisumu-drawings.s3-us-west-1.amazonaws.com/9-012.png","8","House","9-012.png"
"","16181","image-button-response","11","null","112478","68769bb471ece8c02a5878a4","6876a3f2d8a059106e866215","5b646a727c39ee00010a18b0","false","false","Bird","https://kisumu-drawings.s3-us-west-1.amazonaws.com/116-010.png","2","Bird","116-010.png"
"","4061","image-button-response","12","null","117062","68769bb471ece8c02a5878a4","6876a3f2d8a059106e866215","5b646a727c39ee00010a18b0","false","false","Bird","https://kisumu-drawings.s3-us-west-1.amazonaws.com/21-013.png","0","Airplane","21-013.png"
"","3142","image-button-response","13","null","120719","68769bb471ece8c02a5878a4","6876a3f2d8a059106e866215","5b646a727c39ee00010a18b0","false","false","Watch","https://kisumu-drawings.s3-us-west-1.amazonaws.com/96-016.png","11","Watch","96-016.png"
"","8172","image-button-response","14","null","129400","68769bb471ece8c02a5878a4","6876a3f2d8a059106e866215","5b646a727c39ee00010a18b0","false","false","Cup","https://kisumu-drawings.s3-us-west-1.amazonaws.com/107-008.png","6","Cup","107-008.png"
"","5052","image-button-response","15","null","134975","68769bb471ece8c02a5878a4","6876a3f2d8a059106e866215","5b646a727c39ee00010a18b0","false","false","Watch","https://kisumu-drawings.s3-us-west-1.amazonaws.com/69-012.png","11","Watch","69-012.png"
"","23135","image-button-response","16","null","158615","68769bb471ece8c02a5878a4","6876a3f2d8a059106e866215","5b646a727c39ee00010a18b0","false","false","Airplane","https://kisumu-drawings.s3-us-west-1.amazonaws.com/10-013.png","3","Car","10-013.png"
"","8334","image-button-response","17","null","167464","68769bb471ece8c02a5878a4","6876a3f2d8a059106e866215","5b646a727c39ee00010a18b0","false","false","Cup","https://kisumu-drawings.s3-us-west-1.amazonaws.com/48-015.png","10","Tree","48-015.png"
"","4397","image-button-response","18","null","172375","68769bb471ece8c02a5878a4","6876a3f2d8a059106e866215","5b646a727c39ee00010a18b0","false","false","Bird","https://kisumu-drawings.s3-us-west-1.amazonaws.com/44-010.png","0","Airplane","44-010.png"
"","4316","image-button-response","19","null","177240","68769bb471ece8c02a5878a4","6876a3f2d8a059106e866215","5b646a727c39ee00010a18b0","false","false","House","https://kisumu-drawings.s3-us-west-1.amazonaws.com/98-005.png","8","House","98-005.png"
"","3334","image-button-response","20","null","181089","68769bb471ece8c02a5878a4","6876a3f2d8a059106e866215","5b646a727c39ee00010a18b0","false","false","Bicycle","https://kisumu-drawings.s3-us-west-1.amazonaws.com/74-014.png","1","Bicycle","74-014.png"
"","13412","image-button-response","21","null","195008","68769bb471ece8c02a5878a4","6876a3f2d8a059106e866215","5b646a727c39ee00010a18b0","false","false","Car","https://kisumu-drawings.s3-us-west-1.amazonaws.com/84-013.png","3","Car","84-013.png"
"","17255","image-button-response","22","null","212769","68769bb471ece8c02a5878a4","6876a3f2d8a059106e866215","5b646a727c39ee00010a18b0","false","false","Rabbit","https://kisumu-drawings.s3-us-west-1.amazonaws.com/26-013.png","5","Chair","26-013.png"
"","4697","image-button-response","23","null","217977","68769bb471ece8c02a5878a4","6876a3f2d8a059106e866215","5b646a727c39ee00010a18b0","false","false","Airplane","https://kisumu-drawings.s3-us-west-1.amazonaws.com/112-015.png","0","Airplane","112-015.png"
"","5710","image-button-response","24","null","224194","68769bb471ece8c02a5878a4","6876a3f2d8a059106e866215","5b646a727c39ee00010a18b0","false","false","Cup","https://kisumu-drawings.s3-us-west-1.amazonaws.com/83-011.png","6","Cup","83-011.png"
"","4557","image-button-response","25","null","229257","68769bb471ece8c02a5878a4","6876a3f2d8a059106e866215","5b646a727c39ee00010a18b0","false","false","Tree","https://kisumu-drawings.s3-us-west-1.amazonaws.com/9-016.png","8","House","9-016.png"
"","3101","image-button-response","26","null","232865","68769bb471ece8c02a5878a4","6876a3f2d8a059106e866215","5b646a727c39ee00010a18b0","false","false","Airplane","https://kisumu-drawings.s3-us-west-1.amazonaws.com/55-014.png","0","Airplane","55-014.png"
"","3996","image-button-response","27","null","237369","68769bb471ece8c02a5878a4","6876a3f2d8a059106e866215","5b646a727c39ee00010a18b0","false","false","Tree","https://kisumu-drawings.s3-us-west-1.amazonaws.com/102-014.png","10","Tree","102-014.png"
"","5173","image-button-response","28","null","243050","68769bb471ece8c02a5878a4","6876a3f2d8a059106e866215","5b646a727c39ee00010a18b0","false","false","Cup","https://kisumu-drawings.s3-us-west-1.amazonaws.com/40-010.png","6","Cup","40-010.png"
"","6047","image-button-response","29","null","249617","68769bb471ece8c02a5878a4","6876a3f2d8a059106e866215","5b646a727c39ee00010a18b0","false","false","Rabbit","https://kisumu-drawings.s3-us-west-1.amazonaws.com/107-005.png","9","Rabbit","107-005.png"
"","10245","image-button-response","30","null","260379","68769bb471ece8c02a5878a4","6876a3f2d8a059106e866215","5b646a727c39ee00010a18b0","false","false","Watch","https://kisumu-drawings.s3-us-west-1.amazonaws.com/1-006.png","11","Watch","1-006.png"
"","3133","image-button-response","31","null","264018","68769bb471ece8c02a5878a4","6876a3f2d8a059106e866215","5b646a727c39ee00010a18b0","false","false","Airplane","https://kisumu-drawings.s3-us-west-1.amazonaws.com/21-012.png","0","Airplane","21-012.png"
"","6751","image-button-response","32","null","271274","68769bb471ece8c02a5878a4","6876a3f2d8a059106e866215","5b646a727c39ee00010a18b0","false","false","Chair","https://kisumu-drawings.s3-us-west-1.amazonaws.com/45-007.png","5","Chair","45-007.png"
"","3973","image-button-response","33","null","275755","68769bb471ece8c02a5878a4","6876a3f2d8a059106e866215","5b646a727c39ee00010a18b0","false","false","Cup","https://kisumu-drawings.s3-us-west-1.amazonaws.com/17-014.png","6","Cup","17-014.png"
"","5741","image-button-response","34","null","282010","68769bb471ece8c02a5878a4","6876a3f2d8a059106e866215","5b646a727c39ee00010a18b0","false","false","House","https://kisumu-drawings.s3-us-west-1.amazonaws.com/117-014.png","8","House","117-014.png"
"","3873","image-button-response","35","null","286396","68769bb471ece8c02a5878a4","6876a3f2d8a059106e866215","5b646a727c39ee00010a18b0","false","false","Hat","https://kisumu-drawings.s3-us-west-1.amazonaws.com/45-009.png","11","Watch","45-009.png"
"","7614","image-button-response","36","null","294522","68769bb471ece8c02a5878a4","6876a3f2d8a059106e866215","5b646a727c39ee00010a18b0","false","false","Hat","https://kisumu-drawings.s3-us-west-1.amazonaws.com/87-011.png","6","Cup","87-011.png"
"","3725","image-button-response","37","null","298763","68769bb471ece8c02a5878a4","6876a3f2d8a059106e866215","5b646a727c39ee00010a18b0","false","false","Rabbit","https://kisumu-drawings.s3-us-west-1.amazonaws.com/62-006.png","9","Rabbit","62-006.png"
"","7091","image-button-response","38","null","306378","68769bb471ece8c02a5878a4","6876a3f2d8a059106e866215","5b646a727c39ee00010a18b0","false","false","Cat","https://kisumu-drawings.s3-us-west-1.amazonaws.com/59-008.png","4","Cat","59-008.png"
"","5556","image-button-response","39","null","312443","68769bb471ece8c02a5878a4","6876a3f2d8a059106e866215","5b646a727c39ee00010a18b0","false","false","Cat","https://kisumu-drawings.s3-us-west-1.amazonaws.com/111-016.png","4","Cat","111-016.png"
"","4559","image-button-response","40","null","317515","68769bb471ece8c02a5878a4","6876a3f2d8a059106e866215","5b646a727c39ee00010a18b0","false","false","Bird","https://kisumu-drawings.s3-us-west-1.amazonaws.com/10-014.png","4","Cat","10-014.png"
"","2905","image-button-response","41","null","320931","68769bb471ece8c02a5878a4","6876a3f2d8a059106e866215","5b646a727c39ee00010a18b0","false","false","Watch","https://kisumu-drawings.s3-us-west-1.amazonaws.com/45-013.png","11","Watch","45-013.png"
"","6500","image-button-response","42","null","327940","68769bb471ece8c02a5878a4","6876a3f2d8a059106e866215","5b646a727c39ee00010a18b0","false","false","Chair","https://kisumu-drawings.s3-us-west-1.amazonaws.com/78-007.png","5","Chair","78-007.png"
"","5108","image-button-response","43","null","333556","68769bb471ece8c02a5878a4","6876a3f2d8a059106e866215","5b646a727c39ee00010a18b0","false","false","Bicycle","https://kisumu-drawings.s3-us-west-1.amazonaws.com/116-005.png","1","Bicycle","116-005.png"
"","4877","image-button-response","44","null","338939","68769bb471ece8c02a5878a4","6876a3f2d8a059106e866215","5b646a727c39ee00010a18b0","false","false","Car","https://kisumu-drawings.s3-us-west-1.amazonaws.com/61-012.png","3","Car","61-012.png"
"","10740","image-button-response","45","null","350190","68769bb471ece8c02a5878a4","6876a3f2d8a059106e866215","5b646a727c39ee00010a18b0","false","false","Rabbit","https://kisumu-drawings.s3-us-west-1.amazonaws.com/56-016.png","4","Cat","56-016.png"
"","27801","image-button-response","46","null","378508","68769bb471ece8c02a5878a4","6876a3f2d8a059106e866215","5b646a727c39ee00010a18b0","false","false","Hat","https://kisumu-drawings.s3-us-west-1.amazonaws.com/16-013.png","5","Chair","16-013.png"
"","11246","image-button-response","47","null","390261","68769bb471ece8c02a5878a4","6876a3f2d8a059106e866215","5b646a727c39ee00010a18b0","false","false","Airplane","https://kisumu-drawings.s3-us-west-1.amazonaws.com/82-005.png","0","Airplane","82-005.png"
"","4652","image-button-response","48","null","395421","68769bb471ece8c02a5878a4","6876a3f2d8a059106e866215","5b646a727c39ee00010a18b0","false","false","Bicycle","https://kisumu-drawings.s3-us-west-1.amazonaws.com/36-015.png","3","Car","36-015.png"
"","7716","image-button-response","49","null","403646","68769bb471ece8c02a5878a4","6876a3f2d8a059106e866215","5b646a727c39ee00010a18b0","false","false","Bird","https://kisumu-drawings.s3-us-west-1.amazonaws.com/72-016.png","10","Tree","72-016.png"
"","4702","image-button-response","50","null","408870","68769bb471ece8c02a5878a4","6876a3f2d8a059106e866215","5b646a727c39ee00010a18b0","false","false","Bicycle","https://kisumu-drawings.s3-us-west-1.amazonaws.com/15-012.png","8","House","15-012.png"
"","4877","image-button-response","51","null","414254","68769bb471ece8c02a5878a4","6876a3f2d8a059106e866215","5b646a727c39ee00010a18b0","false","false","House","https://kisumu-drawings.s3-us-west-1.amazonaws.com/56-015.png","6","Cup","56-015.png"
"","5431","image-button-response","52","null","420197","68769bb471ece8c02a5878a4","6876a3f2d8a059106e866215","5b646a727c39ee00010a18b0","false","false","House","https://kisumu-drawings.s3-us-west-1.amazonaws.com/38-008.png","8","House","38-008.png"
"","10333","image-button-response","53","null","431046","68769bb471ece8c02a5878a4","6876a3f2d8a059106e866215","5b646a727c39ee00010a18b0","false","false","Hat","https://kisumu-drawings.s3-us-west-1.amazonaws.com/101-008.png","7","Hat","101-008.png"
"","9398","image-button-response","54","null","440950","68769bb471ece8c02a5878a4","6876a3f2d8a059106e866215","5b646a727c39ee00010a18b0","false","false","Tree","https://kisumu-drawings.s3-us-west-1.amazonaws.com/77-012.png","10","Tree","77-012.png"
"","5198","image-button-response","55","null","446654","68769bb471ece8c02a5878a4","6876a3f2d8a059106e866215","5b646a727c39ee00010a18b0","false","false","Cat","https://kisumu-drawings.s3-us-west-1.amazonaws.com/83-006.png","4","Cat","83-006.png"
"","4949","image-button-response","56","null","452117","68769bb471ece8c02a5878a4","6876a3f2d8a059106e866215","5b646a727c39ee00010a18b0","false","false","Hat","https://kisumu-drawings.s3-us-west-1.amazonaws.com/77-008.png","6","Cup","77-008.png"
"","3776","image-button-response","57","null","456400","68769bb471ece8c02a5878a4","6876a3f2d8a059106e866215","5b646a727c39ee00010a18b0","false","false","Tree","https://kisumu-drawings.s3-us-west-1.amazonaws.com/52-012.png","10","Tree","52-012.png"
"","7324","image-button-response","58","null","464232","68769bb471ece8c02a5878a4","6876a3f2d8a059106e866215","5b646a727c39ee00010a18b0","false","false","Chair","https://kisumu-drawings.s3-us-west-1.amazonaws.com/118-006.png","5","Chair","118-006.png"
"","9294","image-button-response","59","null","474033","68769bb471ece8c02a5878a4","6876a3f2d8a059106e866215","5b646a727c39ee00010a18b0","false","false","Cup","https://kisumu-drawings.s3-us-west-1.amazonaws.com/73-015.png","6","Cup","73-015.png"
"","7404","image-button-response","60","null","481958","68769bb471ece8c02a5878a4","6876a3f2d8a059106e866215","5b646a727c39ee00010a18b0","false","false","Car","https://kisumu-drawings.s3-us-west-1.amazonaws.com/111-012.png","3","Car","111-012.png"
"","4085","image-button-response","61","null","486560","68769bb471ece8c02a5878a4","6876a3f2d8a059106e866215","5b646a727c39ee00010a18b0","false","false","Tree","https://kisumu-drawings.s3-us-west-1.amazonaws.com/23-009.png","10","Tree","23-009.png"
"","3095","image-button-response","62","null","490168","68769bb471ece8c02a5878a4","6876a3f2d8a059106e866215","5b646a727c39ee00010a18b0","false","false","Chair","https://kisumu-drawings.s3-us-west-1.amazonaws.com/24-006.png","8","House","24-006.png"
"","2964","image-button-response","63","null","493639","68769bb471ece8c02a5878a4","6876a3f2d8a059106e866215","5b646a727c39ee00010a18b0","true","false","airplane","stimuli/catch_trials/0_airplane_catch.jpg","0","Airplane",""
"","4790","image-button-response","64","null","498944","68769bb471ece8c02a5878a4","6876a3f2d8a059106e866215","5b646a727c39ee00010a18b0","false","false","Cat","https://kisumu-drawings.s3-us-west-1.amazonaws.com/61-013.png","4","Cat","61-013.png"
"","6472","image-button-response","65","null","505922","68769bb471ece8c02a5878a4","6876a3f2d8a059106e866215","5b646a727c39ee00010a18b0","false","false","Hat","https://kisumu-drawings.s3-us-west-1.amazonaws.com/25-011.png","5","Chair","25-011.png"
"","8449","image-button-response","66","null","514887","68769bb471ece8c02a5878a4","6876a3f2d8a059106e866215","5b646a727c39ee00010a18b0","false","false","Bird","https://kisumu-drawings.s3-us-west-1.amazonaws.com/82-013.png","2","Bird","82-013.png"
"","6246","image-button-response","67","null","521639","68769bb471ece8c02a5878a4","6876a3f2d8a059106e866215","5b646a727c39ee00010a18b0","false","false","Chair","https://kisumu-drawings.s3-us-west-1.amazonaws.com/84-011.png","5","Chair","84-011.png"
"","4374","image-button-response","68","null","526520","68769bb471ece8c02a5878a4","6876a3f2d8a059106e866215","5b646a727c39ee00010a18b0","false","false","Car","https://kisumu-drawings.s3-us-west-1.amazonaws.com/51-015.png","3","Car","51-015.png"
"","12659","image-button-response","69","null","539688","68769bb471ece8c02a5878a4","6876a3f2d8a059106e866215","5b646a727c39ee00010a18b0","false","false","Cat","https://kisumu-drawings.s3-us-west-1.amazonaws.com/33-012.png","2","Bird","33-012.png"
"","4718","image-button-response","70","null","544922","68769bb471ece8c02a5878a4","6876a3f2d8a059106e866215","5b646a727c39ee00010a18b0","false","false","House","https://kisumu-drawings.s3-us-west-1.amazonaws.com/17-016.png","8","House","17-016.png"
"","12805","image-button-response","71","null","558232","68769bb471ece8c02a5878a4","6876a3f2d8a059106e866215","5b646a727c39ee00010a18b0","false","false","Rabbit","https://kisumu-drawings.s3-us-west-1.amazonaws.com/14-006.png","7","Hat","14-006.png"
"","3830","image-button-response","72","null","562568","68769bb471ece8c02a5878a4","6876a3f2d8a059106e866215","5b646a727c39ee00010a18b0","false","false","Watch","https://kisumu-drawings.s3-us-west-1.amazonaws.com/22-010.png","11","Watch","22-010.png"
"","5926","image-button-response","73","null","569001","68769bb471ece8c02a5878a4","6876a3f2d8a059106e866215","5b646a727c39ee00010a18b0","false","false","Watch","https://kisumu-drawings.s3-us-west-1.amazonaws.com/119-015.png","11","Watch","119-015.png"
"","6852","image-button-response","74","null","576361","68769bb471ece8c02a5878a4","6876a3f2d8a059106e866215","5b646a727c39ee00010a18b0","false","false","Chair","https://kisumu-drawings.s3-us-west-1.amazonaws.com/15-009.png","7","Hat","15-009.png"
"","5030","image-button-response","75","null","581897","68769bb471ece8c02a5878a4","6876a3f2d8a059106e866215","5b646a727c39ee00010a18b0","false","false","House","https://kisumu-drawings.s3-us-west-1.amazonaws.com/77-016.png","8","House","77-016.png"
