"view_history","rt","trial_type","trial_index","plugin_version","time_elapsed","study_id","session_id","participant_id","tracing_type","tracing_id","catch_trial","prep_trial","stimulus","response"
"[{""page_index"":0,""viewing_time"":3637},{""page_index"":1,""viewing_time"":3682},{""page_index"":2,""viewing_time"":3219},{""page_index"":3,""viewing_time"":2120},{""page_index"":4,""viewing_time"":1540}]","14200","instructions","0","null","14215","689b8a7a4faa850af7a40460","689b953f46b208ac2c41e53f","55bd8669fdf99b5bfc7d4cfc","","","","","",""
"","3499","image-button-response","1","null","18741","689b8a7a4faa850af7a40460","689b953f46b208ac2c41e53f","55bd8669fdf99b5bfc7d4cfc","2","S36_age5_trial2.png","false","false","https://kisumu-drawings.s3-us-west-1.amazonaws.com/tracings/S36_age5_trial2.png","5"
"","4481","image-button-response","2","null","23734","689b8a7a4faa850af7a40460","689b953f46b208ac2c41e53f","55bd8669fdf99b5bfc7d4cfc","1","S116_age9_trial1.png","false","false","https://kisumu-drawings.s3-us-west-1.amazonaws.com/tracings/S116_age9_trial1.png","2"
"","2725","image-button-response","3","null","26970","689b8a7a4faa850af7a40460","689b953f46b208ac2c41e53f","55bd8669fdf99b5bfc7d4cfc","1","S38_age5_trial1.png","false","false","https://kisumu-drawings.s3-us-west-1.amazonaws.com/tracings/S38_age5_trial1.png","2"
"","2473","image-button-response","4","null","29954","689b8a7a4faa850af7a40460","689b953f46b208ac2c41e53f","55bd8669fdf99b5bfc7d4cfc","5","S9_age4_trial5.png","false","false","https://kisumu-drawings.s3-us-west-1.amazonaws.com/tracings/S9_age4_trial5.png","4"
"","2145","image-button-response","5","null","32611","689b8a7a4faa850af7a40460","689b953f46b208ac2c41e53f","55bd8669fdf99b5bfc7d4cfc","4","S6_age4_trial4.png","false","false","https://kisumu-drawings.s3-us-west-1.amazonaws.com/tracings/S6_age4_trial4.png","1"
"","2380","image-button-response","6","null","35503","689b8a7a4faa850af7a40460","689b953f46b208ac2c41e53f","55bd8669fdf99b5bfc7d4cfc","4","S59_age6_trial4.png","false","false","https://kisumu-drawings.s3-us-west-1.amazonaws.com/tracings/S59_age6_trial4.png","4"
"","4752","image-button-response","7","null","40765","689b8a7a4faa850af7a40460","689b953f46b208ac2c41e53f","55bd8669fdf99b5bfc7d4cfc","1","S99_age8_trial1.png","false","false","https://kisumu-drawings.s3-us-west-1.amazonaws.com/tracings/S99_age8_trial1.png","5"
"","1474","image-button-response","8","null","42751","689b8a7a4faa850af7a40460","689b953f46b208ac2c41e53f","55bd8669fdf99b5bfc7d4cfc","5","S7_age4_trial5.png","false","false","https://kisumu-drawings.s3-us-west-1.amazonaws.com/tracings/S7_age4_trial5.png","5"
"","1447","image-button-response","9","null","44708","689b8a7a4faa850af7a40460","689b953f46b208ac2c41e53f","55bd8669fdf99b5bfc7d4cfc","5","S117_age9_trial5.png","false","false","https://kisumu-drawings.s3-us-west-1.amazonaws.com/tracings/S117_age9_trial5.png","5"
"","1433","image-button-response","10","null","46653","689b8a7a4faa850af7a40460","689b953f46b208ac2c41e53f","55bd8669fdf99b5bfc7d4cfc","3","S95_age8_trial3.png","false","false","https://kisumu-drawings.s3-us-west-1.amazonaws.com/tracings/S95_age8_trial3.png","5"
"","2208","image-button-response","11","null","49371","689b8a7a4faa850af7a40460","689b953f46b208ac2c41e53f","55bd8669fdf99b5bfc7d4cfc","2","S76_age7_trial2.png","false","false","https://kisumu-drawings.s3-us-west-1.amazonaws.com/tracings/S76_age7_trial2.png","5"
"","1574","image-button-response","12","null","51454","689b8a7a4faa850af7a40460","689b953f46b208ac2c41e53f","55bd8669fdf99b5bfc7d4cfc","1","S117_age9_trial1.png","false","false","https://kisumu-drawings.s3-us-west-1.amazonaws.com/tracings/S117_age9_trial1.png","5"
"","2112","image-button-response","13","null","54077","689b8a7a4faa850af7a40460","689b953f46b208ac2c41e53f","55bd8669fdf99b5bfc7d4cfc","5","S59_age6_trial5.png","false","false","https://kisumu-drawings.s3-us-west-1.amazonaws.com/tracings/S59_age6_trial5.png","4"
"","1775","image-button-response","14","null","56362","689b8a7a4faa850af7a40460","689b953f46b208ac2c41e53f","55bd8669fdf99b5bfc7d4cfc","3","S80_age7_trial3.png","false","false","https://kisumu-drawings.s3-us-west-1.amazonaws.com/tracings/S80_age7_trial3.png","5"
"","1585","image-button-response","15","null","58457","689b8a7a4faa850af7a40460","689b953f46b208ac2c41e53f","55bd8669fdf99b5bfc7d4cfc","5","S40_age5_trial5.png","false","false","https://kisumu-drawings.s3-us-west-1.amazonaws.com/tracings/S40_age5_trial5.png","5"
"","1893","image-button-response","16","null","60861","689b8a7a4faa850af7a40460","689b953f46b208ac2c41e53f","55bd8669fdf99b5bfc7d4cfc","1","S3_age4_trial1.png","false","false","https://kisumu-drawings.s3-us-west-1.amazonaws.com/tracings/S3_age4_trial1.png","4"
"","1682","image-button-response","17","null","63052","689b8a7a4faa850af7a40460","689b953f46b208ac2c41e53f","55bd8669fdf99b5bfc7d4cfc","3","S59_age6_trial3.png","false","false","https://kisumu-drawings.s3-us-west-1.amazonaws.com/tracings/S59_age6_trial3.png","4"
"","1691","image-button-response","18","null","65253","689b8a7a4faa850af7a40460","689b953f46b208ac2c41e53f","55bd8669fdf99b5bfc7d4cfc","3","S38_age5_trial3.png","false","false","https://kisumu-drawings.s3-us-west-1.amazonaws.com/tracings/S38_age5_trial3.png","4"
"","1469","image-button-response","19","null","67233","689b8a7a4faa850af7a40460","689b953f46b208ac2c41e53f","55bd8669fdf99b5bfc7d4cfc","4","S57_age6_trial4.png","false","false","https://kisumu-drawings.s3-us-west-1.amazonaws.com/tracings/S57_age6_trial4.png","5"
"","1533","image-button-response","20","null","69273","689b8a7a4faa850af7a40460","689b953f46b208ac2c41e53f","55bd8669fdf99b5bfc7d4cfc","4","S77_age7_trial4.png","false","false","https://kisumu-drawings.s3-us-west-1.amazonaws.com/tracings/S77_age7_trial4.png","5"
"","1597","image-button-response","21","null","71381","689b8a7a4faa850af7a40460","689b953f46b208ac2c41e53f","55bd8669fdf99b5bfc7d4cfc","1","S77_age7_trial1.png","false","false","https://kisumu-drawings.s3-us-west-1.amazonaws.com/tracings/S77_age7_trial1.png","5"
"","2222","image-button-response","22","null","74112","689b8a7a4faa850af7a40460","689b953f46b208ac2c41e53f","55bd8669fdf99b5bfc7d4cfc","3","S9_age4_trial3.png","false","false","https://kisumu-drawings.s3-us-west-1.amazonaws.com/tracings/S9_age4_trial3.png","5"
"","1464","image-button-response","23","null","76085","689b8a7a4faa850af7a40460","689b953f46b208ac2c41e53f","55bd8669fdf99b5bfc7d4cfc","5","S116_age9_trial5.png","false","false","https://kisumu-drawings.s3-us-west-1.amazonaws.com/tracings/S116_age9_trial5.png","5"
"","1474","image-button-response","24","null","78068","689b8a7a4faa850af7a40460","689b953f46b208ac2c41e53f","55bd8669fdf99b5bfc7d4cfc","1","S7_age4_trial1.png","false","false","https://kisumu-drawings.s3-us-west-1.amazonaws.com/tracings/S7_age4_trial1.png","5"
"","1411","image-button-response","25","null","79989","689b8a7a4faa850af7a40460","689b953f46b208ac2c41e53f","55bd8669fdf99b5bfc7d4cfc","1","S55_age6_trial1.png","false","false","https://kisumu-drawings.s3-us-west-1.amazonaws.com/tracings/S55_age6_trial1.png","5"
"","1494","image-button-response","26","null","81992","689b8a7a4faa850af7a40460","689b953f46b208ac2c41e53f","55bd8669fdf99b5bfc7d4cfc","1","S60_age6_trial1.png","false","false","https://kisumu-drawings.s3-us-west-1.amazonaws.com/tracings/S60_age6_trial1.png","5"
"","1829","image-button-response","27","null","84330","689b8a7a4faa850af7a40460","689b953f46b208ac2c41e53f","55bd8669fdf99b5bfc7d4cfc","4","S97_age8_trial4.png","false","false","https://kisumu-drawings.s3-us-west-1.amazonaws.com/tracings/S97_age8_trial4.png","4"
"","1467","image-button-response","28","null","86307","689b8a7a4faa850af7a40460","689b953f46b208ac2c41e53f","55bd8669fdf99b5bfc7d4cfc","4","S35_age5_trial4.png","false","false","https://kisumu-drawings.s3-us-west-1.amazonaws.com/tracings/S35_age5_trial4.png","4"
"","1490","image-button-response","29","null","88306","689b8a7a4faa850af7a40460","689b953f46b208ac2c41e53f","55bd8669fdf99b5bfc7d4cfc","2","S114_age9_trial2.png","false","false","https://kisumu-drawings.s3-us-west-1.amazonaws.com/tracings/S114_age9_trial2.png","5"
"","1958","image-button-response","30","null","90774","689b8a7a4faa850af7a40460","689b953f46b208ac2c41e53f","55bd8669fdf99b5bfc7d4cfc","2","","true","false","stimuli/catch_trials/catch_trial.png","1"
"","1822","image-button-response","31","null","93108","689b8a7a4faa850af7a40460","689b953f46b208ac2c41e53f","55bd8669fdf99b5bfc7d4cfc","2","S7_age4_trial2.png","false","false","https://kisumu-drawings.s3-us-west-1.amazonaws.com/tracings/S7_age4_trial2.png","5"
"","1441","image-button-response","32","null","95059","689b8a7a4faa850af7a40460","689b953f46b208ac2c41e53f","55bd8669fdf99b5bfc7d4cfc","2","S57_age6_trial2.png","false","false","https://kisumu-drawings.s3-us-west-1.amazonaws.com/tracings/S57_age6_trial2.png","5"
"","1882","image-button-response","33","null","97451","689b8a7a4faa850af7a40460","689b953f46b208ac2c41e53f","55bd8669fdf99b5bfc7d4cfc","4","S116_age9_trial4.png","false","false","https://kisumu-drawings.s3-us-west-1.amazonaws.com/tracings/S116_age9_trial4.png","5"
"","2138","image-button-response","34","null","100099","689b8a7a4faa850af7a40460","689b953f46b208ac2c41e53f","55bd8669fdf99b5bfc7d4cfc","4","S8_age4_trial4.png","false","false","https://kisumu-drawings.s3-us-west-1.amazonaws.com/tracings/S8_age4_trial4.png","4"
"","1444","image-button-response","35","null","102051","689b8a7a4faa850af7a40460","689b953f46b208ac2c41e53f","55bd8669fdf99b5bfc7d4cfc","2","S79_age7_trial2.png","false","false","https://kisumu-drawings.s3-us-west-1.amazonaws.com/tracings/S79_age7_trial2.png","5"
"","1331","image-button-response","36","null","103892","689b8a7a4faa850af7a40460","689b953f46b208ac2c41e53f","55bd8669fdf99b5bfc7d4cfc","2","S60_age6_trial2.png","false","false","https://kisumu-drawings.s3-us-west-1.amazonaws.com/tracings/S60_age6_trial2.png","5"
"","1433","image-button-response","37","null","105835","689b8a7a4faa850af7a40460","689b953f46b208ac2c41e53f","55bd8669fdf99b5bfc7d4cfc","3","S77_age7_trial3.png","false","false","https://kisumu-drawings.s3-us-west-1.amazonaws.com/tracings/S77_age7_trial3.png","5"
"","1648","image-button-response","38","null","107991","689b8a7a4faa850af7a40460","689b953f46b208ac2c41e53f","55bd8669fdf99b5bfc7d4cfc","3","S35_age5_trial3.png","false","false","https://kisumu-drawings.s3-us-west-1.amazonaws.com/tracings/S35_age5_trial3.png","4"
"","1748","image-button-response","39","null","110248","689b8a7a4faa850af7a40460","689b953f46b208ac2c41e53f","55bd8669fdf99b5bfc7d4cfc","1","S39_age5_trial1.png","false","false","https://kisumu-drawings.s3-us-west-1.amazonaws.com/tracings/S39_age5_trial1.png","4"
"","1855","image-button-response","40","null","112612","689b8a7a4faa850af7a40460","689b953f46b208ac2c41e53f","55bd8669fdf99b5bfc7d4cfc","2","S38_age5_trial2.png","false","false","https://kisumu-drawings.s3-us-west-1.amazonaws.com/tracings/S38_age5_trial2.png","4"
"","1596","image-button-response","41","null","114716","689b8a7a4faa850af7a40460","689b953f46b208ac2c41e53f","55bd8669fdf99b5bfc7d4cfc","5","S77_age7_trial5.png","false","false","https://kisumu-drawings.s3-us-west-1.amazonaws.com/tracings/S77_age7_trial5.png","5"
"","1666","image-button-response","42","null","116893","689b8a7a4faa850af7a40460","689b953f46b208ac2c41e53f","55bd8669fdf99b5bfc7d4cfc","5","S97_age8_trial5.png","false","false","https://kisumu-drawings.s3-us-west-1.amazonaws.com/tracings/S97_age8_trial5.png","4"
"","1390","image-button-response","43","null","118792","689b8a7a4faa850af7a40460","689b953f46b208ac2c41e53f","55bd8669fdf99b5bfc7d4cfc","1","S95_age8_trial1.png","false","false","https://kisumu-drawings.s3-us-west-1.amazonaws.com/tracings/S95_age8_trial1.png","5"
"","1421","image-button-response","44","null","120723","689b8a7a4faa850af7a40460","689b953f46b208ac2c41e53f","55bd8669fdf99b5bfc7d4cfc","5","S54_age6_trial5.png","false","false","https://kisumu-drawings.s3-us-west-1.amazonaws.com/tracings/S54_age6_trial5.png","5"
"","1572","image-button-response","45","null","122803","689b8a7a4faa850af7a40460","689b953f46b208ac2c41e53f","55bd8669fdf99b5bfc7d4cfc","2","S98_age8_trial2.png","false","false","https://kisumu-drawings.s3-us-west-1.amazonaws.com/tracings/S98_age8_trial2.png","5"
"","1841","image-button-response","46","null","125153","689b8a7a4faa850af7a40460","689b953f46b208ac2c41e53f","55bd8669fdf99b5bfc7d4cfc","4","S38_age5_trial4.png","false","false","https://kisumu-drawings.s3-us-west-1.amazonaws.com/tracings/S38_age5_trial4.png","4"
"","1284","image-button-response","47","null","126947","689b8a7a4faa850af7a40460","689b953f46b208ac2c41e53f","55bd8669fdf99b5bfc7d4cfc","2","S116_age9_trial2.png","false","false","https://kisumu-drawings.s3-us-west-1.amazonaws.com/tracings/S116_age9_trial2.png","5"
"","1819","image-button-response","48","null","129273","689b8a7a4faa850af7a40460","689b953f46b208ac2c41e53f","55bd8669fdf99b5bfc7d4cfc","3","S115_age9_trial3.png","false","false","https://kisumu-drawings.s3-us-west-1.amazonaws.com/tracings/S115_age9_trial3.png","5"
"","1367","image-button-response","49","null","131150","689b8a7a4faa850af7a40460","689b953f46b208ac2c41e53f","55bd8669fdf99b5bfc7d4cfc","1","S79_age7_trial1.png","false","false","https://kisumu-drawings.s3-us-west-1.amazonaws.com/tracings/S79_age7_trial1.png","5"
"","2395","image-button-response","50","null","134053","689b8a7a4faa850af7a40460","689b953f46b208ac2c41e53f","55bd8669fdf99b5bfc7d4cfc","5","S98_age8_trial5.png","false","false","https://kisumu-drawings.s3-us-west-1.amazonaws.com/tracings/S98_age8_trial5.png","5"
"","1679","image-button-response","51","null","136243","689b8a7a4faa850af7a40460","689b953f46b208ac2c41e53f","55bd8669fdf99b5bfc7d4cfc","2","S97_age8_trial2.png","false","false","https://kisumu-drawings.s3-us-west-1.amazonaws.com/tracings/S97_age8_trial2.png","4"
"","2519","image-button-response","52","null","139271","689b8a7a4faa850af7a40460","689b953f46b208ac2c41e53f","55bd8669fdf99b5bfc7d4cfc","3","S98_age8_trial3.png","false","false","https://kisumu-drawings.s3-us-west-1.amazonaws.com/tracings/S98_age8_trial3.png","5"
"","1564","image-button-response","53","null","141345","689b8a7a4faa850af7a40460","689b953f46b208ac2c41e53f","55bd8669fdf99b5bfc7d4cfc","3","S60_age6_trial3.png","false","false","https://kisumu-drawings.s3-us-west-1.amazonaws.com/tracings/S60_age6_trial3.png","5"
"","1704","image-button-response","54","null","143558","689b8a7a4faa850af7a40460","689b953f46b208ac2c41e53f","55bd8669fdf99b5bfc7d4cfc","5","S78_age7_trial5.png","false","false","https://kisumu-drawings.s3-us-west-1.amazonaws.com/tracings/S78_age7_trial5.png","5"
"","1843","image-button-response","55","null","145911","689b8a7a4faa850af7a40460","689b953f46b208ac2c41e53f","55bd8669fdf99b5bfc7d4cfc","2","S8_age4_trial2.png","false","false","https://kisumu-drawings.s3-us-west-1.amazonaws.com/tracings/S8_age4_trial2.png","4"
"","2192","image-button-response","56","null","148612","689b8a7a4faa850af7a40460","689b953f46b208ac2c41e53f","55bd8669fdf99b5bfc7d4cfc","4","S80_age7_trial4.png","false","false","https://kisumu-drawings.s3-us-west-1.amazonaws.com/tracings/S80_age7_trial4.png","5"
"","1970","image-button-response","57","null","151093","689b8a7a4faa850af7a40460","689b953f46b208ac2c41e53f","55bd8669fdf99b5bfc7d4cfc","3","S8_age4_trial3.png","false","false","https://kisumu-drawings.s3-us-west-1.amazonaws.com/tracings/S8_age4_trial3.png","4"
"","1530","image-button-response","58","null","153132","689b8a7a4faa850af7a40460","689b953f46b208ac2c41e53f","55bd8669fdf99b5bfc7d4cfc","4","S98_age8_trial4.png","false","false","https://kisumu-drawings.s3-us-west-1.amazonaws.com/tracings/S98_age8_trial4.png","5"
"","1375","image-button-response","59","null","155016","689b8a7a4faa850af7a40460","689b953f46b208ac2c41e53f","55bd8669fdf99b5bfc7d4cfc","5","S37_age5_trial5.png","false","false","https://kisumu-drawings.s3-us-west-1.amazonaws.com/tracings/S37_age5_trial5.png","5"
"","1432","image-button-response","60","null","156957","689b8a7a4faa850af7a40460","689b953f46b208ac2c41e53f","55bd8669fdf99b5bfc7d4cfc","3","S116_age9_trial3.png","false","false","https://kisumu-drawings.s3-us-west-1.amazonaws.com/tracings/S116_age9_trial3.png","5"
"","1506","image-button-response","61","null","158972","689b8a7a4faa850af7a40460","689b953f46b208ac2c41e53f","55bd8669fdf99b5bfc7d4cfc","4","S118_age9_trial4.png","false","false","https://kisumu-drawings.s3-us-west-1.amazonaws.com/tracings/S118_age9_trial4.png","5"
