view_history,rt,trial_type,trial_index,plugin_version,time_elapsed,study_id,session_id,participant_id,tracing_type,tracing_id,catch_trial,prep_trial,stimulus,response
"[{""page_index"":0,""viewing_time"":13723},{""page_index"":1,""viewing_time"":21051},{""page_index"":2,""viewing_time"":9852},{""page_index"":3,""viewing_time"":7984},{""page_index"":4,""viewing_time"":18338}]",70949,instructions,0,null,70957,689b8a7a4faa850af7a40460,689bb3e54a8950ba1a69ff98,58d4c4c287b2420001263b6a,,,,,,
,2790,image-button-response,1,null,74757,689b8a7a4faa850af7a40460,689bb3e54a8950ba1a69ff98,58d4c4c287b2420001263b6a,2,,TRUE,FALSE,stimuli/catch_trials/catch_trial.png,1
,5944,image-button-response,2,null,81205,689b8a7a4faa850af7a40460,689bb3e54a8950ba1a69ff98,58d4c4c287b2420001263b6a,4,S9_age4_trial4.png,FALSE,FALSE,https://kisumu-drawings.s3-us-west-1.amazonaws.com/tracings/S9_age4_trial4.png,4
,5915,image-button-response,3,null,87636,689b8a7a4faa850af7a40460,689bb3e54a8950ba1a69ff98,58d4c4c287b2420001263b6a,3,S118_age9_trial3.png,FALSE,FALSE,https://kisumu-drawings.s3-us-west-1.amazonaws.com/tracings/S118_age9_trial3.png,5
,2269,image-button-response,4,null,90410,689b8a7a4faa850af7a40460,689bb3e54a8950ba1a69ff98,58d4c4c287b2420001263b6a,4,S58_age6_trial4.png,FALSE,FALSE,https://kisumu-drawings.s3-us-west-1.amazonaws.com/tracings/S58_age6_trial4.png,5
,2180,image-button-response,5,null,93094,689b8a7a4faa850af7a40460,689bb3e54a8950ba1a69ff98,58d4c4c287b2420001263b6a,3,S93_age8_trial3.png,FALSE,FALSE,https://kisumu-drawings.s3-us-west-1.amazonaws.com/tracings/S93_age8_trial3.png,5
,3107,image-button-response,6,null,96716,689b8a7a4faa850af7a40460,689bb3e54a8950ba1a69ff98,58d4c4c287b2420001263b6a,3,S36_age5_trial3.png,FALSE,FALSE,https://kisumu-drawings.s3-us-west-1.amazonaws.com/tracings/S36_age5_trial3.png,5
,2578,image-button-response,7,null,99804,689b8a7a4faa850af7a40460,689bb3e54a8950ba1a69ff98,58d4c4c287b2420001263b6a,5,S40_age5_trial5.png,FALSE,FALSE,https://kisumu-drawings.s3-us-west-1.amazonaws.com/tracings/S40_age5_trial5.png,5
,2935,image-button-response,8,null,103246,689b8a7a4faa850af7a40460,689bb3e54a8950ba1a69ff98,58d4c4c287b2420001263b6a,2,S6_age4_trial2.png,FALSE,FALSE,https://kisumu-drawings.s3-us-west-1.amazonaws.com/tracings/S6_age4_trial2.png,5
,10178,image-button-response,9,null,113937,689b8a7a4faa850af7a40460,689bb3e54a8950ba1a69ff98,58d4c4c287b2420001263b6a,1,S54_age6_trial1.png,FALSE,FALSE,https://kisumu-drawings.s3-us-west-1.amazonaws.com/tracings/S54_age6_trial1.png,4
,2060,image-button-response,10,null,116500,689b8a7a4faa850af7a40460,689bb3e54a8950ba1a69ff98,58d4c4c287b2420001263b6a,2,S60_age6_trial2.png,FALSE,FALSE,https://kisumu-drawings.s3-us-west-1.amazonaws.com/tracings/S60_age6_trial2.png,5
,1376,image-button-response,11,null,118382,689b8a7a4faa850af7a40460,689bb3e54a8950ba1a69ff98,58d4c4c287b2420001263b6a,5,S58_age6_trial5.png,FALSE,FALSE,https://kisumu-drawings.s3-us-west-1.amazonaws.com/tracings/S58_age6_trial5.png,5
,4307,image-button-response,12,null,123202,689b8a7a4faa850af7a40460,689bb3e54a8950ba1a69ff98,58d4c4c287b2420001263b6a,4,S56_age6_trial4.png,FALSE,FALSE,https://kisumu-drawings.s3-us-west-1.amazonaws.com/tracings/S56_age6_trial4.png,5
,8794,image-button-response,13,null,132506,689b8a7a4faa850af7a40460,689bb3e54a8950ba1a69ff98,58d4c4c287b2420001263b6a,5,S9_age4_trial5.png,FALSE,FALSE,https://kisumu-drawings.s3-us-west-1.amazonaws.com/tracings/S9_age4_trial5.png,2
,5610,image-button-response,14,null,138624,689b8a7a4faa850af7a40460,689bb3e54a8950ba1a69ff98,58d4c4c287b2420001263b6a,1,S116_age9_trial1.png,FALSE,FALSE,https://kisumu-drawings.s3-us-west-1.amazonaws.com/tracings/S116_age9_trial1.png,4
,7413,image-button-response,15,null,146548,689b8a7a4faa850af7a40460,689bb3e54a8950ba1a69ff98,58d4c4c287b2420001263b6a,4,S76_age7_trial4.png,FALSE,FALSE,https://kisumu-drawings.s3-us-west-1.amazonaws.com/tracings/S76_age7_trial4.png,4
,4075,image-button-response,16,null,151130,689b8a7a4faa850af7a40460,689bb3e54a8950ba1a69ff98,58d4c4c287b2420001263b6a,2,S59_age6_trial2.png,FALSE,FALSE,https://kisumu-drawings.s3-us-west-1.amazonaws.com/tracings/S59_age6_trial2.png,4
,10696,image-button-response,17,null,162330,689b8a7a4faa850af7a40460,689bb3e54a8950ba1a69ff98,58d4c4c287b2420001263b6a,3,S57_age6_trial3.png,FALSE,FALSE,https://kisumu-drawings.s3-us-west-1.amazonaws.com/tracings/S57_age6_trial3.png,4
,2635,image-button-response,18,null,165470,689b8a7a4faa850af7a40460,689bb3e54a8950ba1a69ff98,58d4c4c287b2420001263b6a,1,S40_age5_trial1.png,FALSE,FALSE,https://kisumu-drawings.s3-us-west-1.amazonaws.com/tracings/S40_age5_trial1.png,5
,2195,image-button-response,19,null,168178,689b8a7a4faa850af7a40460,689bb3e54a8950ba1a69ff98,58d4c4c287b2420001263b6a,4,S93_age8_trial4.png,FALSE,FALSE,https://kisumu-drawings.s3-us-west-1.amazonaws.com/tracings/S93_age8_trial4.png,5
,2715,image-button-response,20,null,171408,689b8a7a4faa850af7a40460,689bb3e54a8950ba1a69ff98,58d4c4c287b2420001263b6a,1,S120_age9_trial1.png,FALSE,FALSE,https://kisumu-drawings.s3-us-west-1.amazonaws.com/tracings/S120_age9_trial1.png,4
,6856,image-button-response,21,null,178770,689b8a7a4faa850af7a40460,689bb3e54a8950ba1a69ff98,58d4c4c287b2420001263b6a,3,S92_age8_trial3.png,FALSE,FALSE,https://kisumu-drawings.s3-us-west-1.amazonaws.com/tracings/S92_age8_trial3.png,4
,3929,image-button-response,22,null,183202,689b8a7a4faa850af7a40460,689bb3e54a8950ba1a69ff98,58d4c4c287b2420001263b6a,5,S118_age9_trial5.png,FALSE,FALSE,https://kisumu-drawings.s3-us-west-1.amazonaws.com/tracings/S118_age9_trial5.png,4
,3217,image-button-response,23,null,186928,689b8a7a4faa850af7a40460,689bb3e54a8950ba1a69ff98,58d4c4c287b2420001263b6a,4,S80_age7_trial4.png,FALSE,FALSE,https://kisumu-drawings.s3-us-west-1.amazonaws.com/tracings/S80_age7_trial4.png,4
,4791,image-button-response,24,null,192236,689b8a7a4faa850af7a40460,689bb3e54a8950ba1a69ff98,58d4c4c287b2420001263b6a,3,S9_age4_trial3.png,FALSE,FALSE,https://kisumu-drawings.s3-us-west-1.amazonaws.com/tracings/S9_age4_trial3.png,4
,3335,image-button-response,25,null,196082,689b8a7a4faa850af7a40460,689bb3e54a8950ba1a69ff98,58d4c4c287b2420001263b6a,3,S7_age4_trial3.png,FALSE,FALSE,https://kisumu-drawings.s3-us-west-1.amazonaws.com/tracings/S7_age4_trial3.png,4
,2900,image-button-response,26,null,199486,689b8a7a4faa850af7a40460,689bb3e54a8950ba1a69ff98,58d4c4c287b2420001263b6a,5,S79_age7_trial5.png,FALSE,FALSE,https://kisumu-drawings.s3-us-west-1.amazonaws.com/tracings/S79_age7_trial5.png,5
,2677,image-button-response,27,null,202672,689b8a7a4faa850af7a40460,689bb3e54a8950ba1a69ff98,58d4c4c287b2420001263b6a,3,S114_age9_trial3.png,FALSE,FALSE,https://kisumu-drawings.s3-us-west-1.amazonaws.com/tracings/S114_age9_trial3.png,5
,3016,image-button-response,28,null,206202,689b8a7a4faa850af7a40460,689bb3e54a8950ba1a69ff98,58d4c4c287b2420001263b6a,2,S38_age5_trial2.png,FALSE,FALSE,https://kisumu-drawings.s3-us-west-1.amazonaws.com/tracings/S38_age5_trial2.png,4
,2368,image-button-response,29,null,209074,689b8a7a4faa850af7a40460,689bb3e54a8950ba1a69ff98,58d4c4c287b2420001263b6a,4,S115_age9_trial4.png,FALSE,FALSE,https://kisumu-drawings.s3-us-west-1.amazonaws.com/tracings/S115_age9_trial4.png,5
,1580,image-button-response,30,null,211166,689b8a7a4faa850af7a40460,689bb3e54a8950ba1a69ff98,58d4c4c287b2420001263b6a,3,S60_age6_trial3.png,FALSE,FALSE,https://kisumu-drawings.s3-us-west-1.amazonaws.com/tracings/S60_age6_trial3.png,5
,1431,image-button-response,31,null,213100,689b8a7a4faa850af7a40460,689bb3e54a8950ba1a69ff98,58d4c4c287b2420001263b6a,1,S73_age7_trial1.png,FALSE,FALSE,https://kisumu-drawings.s3-us-west-1.amazonaws.com/tracings/S73_age7_trial1.png,5
,3840,image-button-response,32,null,217447,689b8a7a4faa850af7a40460,689bb3e54a8950ba1a69ff98,58d4c4c287b2420001263b6a,5,S3_age4_trial5.png,FALSE,FALSE,https://kisumu-drawings.s3-us-west-1.amazonaws.com/tracings/S3_age4_trial5.png,2
,2889,image-button-response,33,null,220844,689b8a7a4faa850af7a40460,689bb3e54a8950ba1a69ff98,58d4c4c287b2420001263b6a,3,S80_age7_trial3.png,FALSE,FALSE,https://kisumu-drawings.s3-us-west-1.amazonaws.com/tracings/S80_age7_trial3.png,4
,2264,image-button-response,34,null,223626,689b8a7a4faa850af7a40460,689bb3e54a8950ba1a69ff98,58d4c4c287b2420001263b6a,2,S36_age5_trial2.png,FALSE,FALSE,https://kisumu-drawings.s3-us-west-1.amazonaws.com/tracings/S36_age5_trial2.png,5
,1358,image-button-response,35,null,225500,689b8a7a4faa850af7a40460,689bb3e54a8950ba1a69ff98,58d4c4c287b2420001263b6a,1,S98_age8_trial1.png,FALSE,FALSE,https://kisumu-drawings.s3-us-west-1.amazonaws.com/tracings/S98_age8_trial1.png,5
,4773,image-button-response,36,null,230778,689b8a7a4faa850af7a40460,689bb3e54a8950ba1a69ff98,58d4c4c287b2420001263b6a,5,S76_age7_trial5.png,FALSE,FALSE,https://kisumu-drawings.s3-us-west-1.amazonaws.com/tracings/S76_age7_trial5.png,4
,1707,image-button-response,37,null,232998,689b8a7a4faa850af7a40460,689bb3e54a8950ba1a69ff98,58d4c4c287b2420001263b6a,2,S96_age8_trial2.png,FALSE,FALSE,https://kisumu-drawings.s3-us-west-1.amazonaws.com/tracings/S96_age8_trial2.png,5
,1475,image-button-response,38,null,234984,689b8a7a4faa850af7a40460,689bb3e54a8950ba1a69ff98,58d4c4c287b2420001263b6a,1,S57_age6_trial1.png,FALSE,FALSE,https://kisumu-drawings.s3-us-west-1.amazonaws.com/tracings/S57_age6_trial1.png,5
,1846,image-button-response,39,null,237346,689b8a7a4faa850af7a40460,689bb3e54a8950ba1a69ff98,58d4c4c287b2420001263b6a,1,S80_age7_trial1.png,FALSE,FALSE,https://kisumu-drawings.s3-us-west-1.amazonaws.com/tracings/S80_age7_trial1.png,4
,7546,image-button-response,40,null,245404,689b8a7a4faa850af7a40460,689bb3e54a8950ba1a69ff98,58d4c4c287b2420001263b6a,5,S97_age8_trial5.png,FALSE,FALSE,https://kisumu-drawings.s3-us-west-1.amazonaws.com/tracings/S97_age8_trial5.png,2
,3014,image-button-response,41,null,248928,689b8a7a4faa850af7a40460,689bb3e54a8950ba1a69ff98,58d4c4c287b2420001263b6a,2,S76_age7_trial2.png,FALSE,FALSE,https://kisumu-drawings.s3-us-west-1.amazonaws.com/tracings/S76_age7_trial2.png,4
,3823,image-button-response,42,null,253253,689b8a7a4faa850af7a40460,689bb3e54a8950ba1a69ff98,58d4c4c287b2420001263b6a,4,S7_age4_trial4.png,FALSE,FALSE,https://kisumu-drawings.s3-us-west-1.amazonaws.com/tracings/S7_age4_trial4.png,4
,5751,image-button-response,43,null,259522,689b8a7a4faa850af7a40460,689bb3e54a8950ba1a69ff98,58d4c4c287b2420001263b6a,5,S54_age6_trial5.png,FALSE,FALSE,https://kisumu-drawings.s3-us-west-1.amazonaws.com/tracings/S54_age6_trial5.png,4
,4973,image-button-response,44,null,265009,689b8a7a4faa850af7a40460,689bb3e54a8950ba1a69ff98,58d4c4c287b2420001263b6a,5,S38_age5_trial5.png,FALSE,FALSE,https://kisumu-drawings.s3-us-west-1.amazonaws.com/tracings/S38_age5_trial5.png,4
,2219,image-button-response,45,null,267731,689b8a7a4faa850af7a40460,689bb3e54a8950ba1a69ff98,58d4c4c287b2420001263b6a,5,S98_age8_trial5.png,FALSE,FALSE,https://kisumu-drawings.s3-us-west-1.amazonaws.com/tracings/S98_age8_trial5.png,4
,5081,image-button-response,46,null,273323,689b8a7a4faa850af7a40460,689bb3e54a8950ba1a69ff98,58d4c4c287b2420001263b6a,3,S33_age5_trial3.png,FALSE,FALSE,https://kisumu-drawings.s3-us-west-1.amazonaws.com/tracings/S33_age5_trial3.png,2
,3526,image-button-response,47,null,277357,689b8a7a4faa850af7a40460,689bb3e54a8950ba1a69ff98,58d4c4c287b2420001263b6a,2,S7_age4_trial2.png,FALSE,FALSE,https://kisumu-drawings.s3-us-west-1.amazonaws.com/tracings/S7_age4_trial2.png,4
,2619,image-button-response,48,null,280483,689b8a7a4faa850af7a40460,689bb3e54a8950ba1a69ff98,58d4c4c287b2420001263b6a,3,S76_age7_trial3.png,FALSE,FALSE,https://kisumu-drawings.s3-us-west-1.amazonaws.com/tracings/S76_age7_trial3.png,4
,3182,image-button-response,49,null,284171,689b8a7a4faa850af7a40460,689bb3e54a8950ba1a69ff98,58d4c4c287b2420001263b6a,5,S115_age9_trial5.png,FALSE,FALSE,https://kisumu-drawings.s3-us-west-1.amazonaws.com/tracings/S115_age9_trial5.png,5
,5315,image-button-response,50,null,289989,689b8a7a4faa850af7a40460,689bb3e54a8950ba1a69ff98,58d4c4c287b2420001263b6a,1,S9_age4_trial1.png,FALSE,FALSE,https://kisumu-drawings.s3-us-west-1.amazonaws.com/tracings/S9_age4_trial1.png,4
,2197,image-button-response,51,null,292703,689b8a7a4faa850af7a40460,689bb3e54a8950ba1a69ff98,58d4c4c287b2420001263b6a,2,S98_age8_trial2.png,FALSE,FALSE,https://kisumu-drawings.s3-us-west-1.amazonaws.com/tracings/S98_age8_trial2.png,5
,5304,image-button-response,52,null,298513,689b8a7a4faa850af7a40460,689bb3e54a8950ba1a69ff98,58d4c4c287b2420001263b6a,4,S116_age9_trial4.png,FALSE,FALSE,https://kisumu-drawings.s3-us-west-1.amazonaws.com/tracings/S116_age9_trial4.png,4
,7343,image-button-response,53,null,306371,689b8a7a4faa850af7a40460,689bb3e54a8950ba1a69ff98,58d4c4c287b2420001263b6a,1,S8_age4_trial1.png,FALSE,FALSE,https://kisumu-drawings.s3-us-west-1.amazonaws.com/tracings/S8_age4_trial1.png,4
,2146,image-button-response,54,null,309031,689b8a7a4faa850af7a40460,689bb3e54a8950ba1a69ff98,58d4c4c287b2420001263b6a,2,S117_age9_trial2.png,FALSE,FALSE,https://kisumu-drawings.s3-us-west-1.amazonaws.com/tracings/S117_age9_trial2.png,5
,3382,image-button-response,55,null,312929,689b8a7a4faa850af7a40460,689bb3e54a8950ba1a69ff98,58d4c4c287b2420001263b6a,4,S97_age8_trial4.png,FALSE,FALSE,https://kisumu-drawings.s3-us-west-1.amazonaws.com/tracings/S97_age8_trial4.png,2
,3048,image-button-response,56,null,316483,689b8a7a4faa850af7a40460,689bb3e54a8950ba1a69ff98,58d4c4c287b2420001263b6a,1,S33_age5_trial1.png,FALSE,FALSE,https://kisumu-drawings.s3-us-west-1.amazonaws.com/tracings/S33_age5_trial1.png,2
,3018,image-button-response,57,null,320015,689b8a7a4faa850af7a40460,689bb3e54a8950ba1a69ff98,58d4c4c287b2420001263b6a,2,S120_age9_trial2.png,FALSE,FALSE,https://kisumu-drawings.s3-us-west-1.amazonaws.com/tracings/S120_age9_trial2.png,5
,2854,image-button-response,58,null,323373,689b8a7a4faa850af7a40460,689bb3e54a8950ba1a69ff98,58d4c4c287b2420001263b6a,4,S36_age5_trial4.png,FALSE,FALSE,https://kisumu-drawings.s3-us-west-1.amazonaws.com/tracings/S36_age5_trial4.png,4
,2050,image-button-response,59,null,325930,689b8a7a4faa850af7a40460,689bb3e54a8950ba1a69ff98,58d4c4c287b2420001263b6a,1,S96_age8_trial1.png,FALSE,FALSE,https://kisumu-drawings.s3-us-west-1.amazonaws.com/tracings/S96_age8_trial1.png,5
,2429,image-button-response,60,null,328869,689b8a7a4faa850af7a40460,689bb3e54a8950ba1a69ff98,58d4c4c287b2420001263b6a,4,S37_age5_trial4.png,FALSE,FALSE,https://kisumu-drawings.s3-us-west-1.amazonaws.com/tracings/S37_age5_trial4.png,4
,2546,image-button-response,61,null,331927,689b8a7a4faa850af7a40460,689bb3e54a8950ba1a69ff98,58d4c4c287b2420001263b6a,2,S80_age7_trial2.png,FALSE,FALSE,https://kisumu-drawings.s3-us-west-1.amazonaws.com/tracings/S80_age7_trial2.png,5
