"view_history","rt","trial_type","trial_index","plugin_version","time_elapsed","study_id","session_id","participant_id","tracing_type","tracing_id","catch_trial","prep_trial","stimulus","response"
"[{""page_index"":0,""viewing_time"":33590},{""page_index"":1,""viewing_time"":6616},{""page_index"":2,""viewing_time"":6316},{""page_index"":3,""viewing_time"":2547},{""page_index"":4,""viewing_time"":4882}]","53951","instructions","0","null","53958","689b8a7a4faa850af7a40460","689bc2a290fa909e31b4496f","5c22f28d70d93a0001201738","","","","","",""
"","5767","image-button-response","1","null","60745","689b8a7a4faa850af7a40460","689bc2a290fa909e31b4496f","5c22f28d70d93a0001201738","4","S58_age6_trial4.png","false","false","https://kisumu-drawings.s3-us-west-1.amazonaws.com/tracings/S58_age6_trial4.png","4"
"","10043","image-button-response","2","null","71306","689b8a7a4faa850af7a40460","689bc2a290fa909e31b4496f","5c22f28d70d93a0001201738","2","S36_age5_trial2.png","false","false","https://kisumu-drawings.s3-us-west-1.amazonaws.com/tracings/S36_age5_trial2.png","4"
"","13973","image-button-response","3","null","85788","689b8a7a4faa850af7a40460","689bc2a290fa909e31b4496f","5c22f28d70d93a0001201738","1","S39_age5_trial1.png","false","false","https://kisumu-drawings.s3-us-west-1.amazonaws.com/tracings/S39_age5_trial1.png","3"
"","6411","image-button-response","4","null","92710","689b8a7a4faa850af7a40460","689bc2a290fa909e31b4496f","5c22f28d70d93a0001201738","2","S77_age7_trial2.png","false","false","https://kisumu-drawings.s3-us-west-1.amazonaws.com/tracings/S77_age7_trial2.png","4"
"","4083","image-button-response","5","null","97300","689b8a7a4faa850af7a40460","689bc2a290fa909e31b4496f","5c22f28d70d93a0001201738","2","S57_age6_trial2.png","false","false","https://kisumu-drawings.s3-us-west-1.amazonaws.com/tracings/S57_age6_trial2.png","4"
"","9101","image-button-response","6","null","106916","689b8a7a4faa850af7a40460","689bc2a290fa909e31b4496f","5c22f28d70d93a0001201738","4","S37_age5_trial4.png","false","false","https://kisumu-drawings.s3-us-west-1.amazonaws.com/tracings/S37_age5_trial4.png","4"
"","8945","image-button-response","7","null","116378","689b8a7a4faa850af7a40460","689bc2a290fa909e31b4496f","5c22f28d70d93a0001201738","4","S5_age4_trial4.png","false","false","https://kisumu-drawings.s3-us-west-1.amazonaws.com/tracings/S5_age4_trial4.png","2"
"","10403","image-button-response","8","null","127289","689b8a7a4faa850af7a40460","689bc2a290fa909e31b4496f","5c22f28d70d93a0001201738","4","S4_age4_trial4.png","false","false","https://kisumu-drawings.s3-us-west-1.amazonaws.com/tracings/S4_age4_trial4.png","3"
"","11395","image-button-response","9","null","139196","689b8a7a4faa850af7a40460","689bc2a290fa909e31b4496f","5c22f28d70d93a0001201738","3","S40_age5_trial3.png","false","false","https://kisumu-drawings.s3-us-west-1.amazonaws.com/tracings/S40_age5_trial3.png","4"
"","2811","image-button-response","10","null","142511","689b8a7a4faa850af7a40460","689bc2a290fa909e31b4496f","5c22f28d70d93a0001201738","2","S95_age8_trial2.png","false","false","https://kisumu-drawings.s3-us-west-1.amazonaws.com/tracings/S95_age8_trial2.png","4"
"","3614","image-button-response","11","null","146628","689b8a7a4faa850af7a40460","689bc2a290fa909e31b4496f","5c22f28d70d93a0001201738","1","S8_age4_trial1.png","false","false","https://kisumu-drawings.s3-us-west-1.amazonaws.com/tracings/S8_age4_trial1.png","2"
"","5331","image-button-response","12","null","152467","689b8a7a4faa850af7a40460","689bc2a290fa909e31b4496f","5c22f28d70d93a0001201738","4","S76_age7_trial4.png","false","false","https://kisumu-drawings.s3-us-west-1.amazonaws.com/tracings/S76_age7_trial4.png","2"
"","3981","image-button-response","13","null","156964","689b8a7a4faa850af7a40460","689bc2a290fa909e31b4496f","5c22f28d70d93a0001201738","4","S39_age5_trial4.png","false","false","https://kisumu-drawings.s3-us-west-1.amazonaws.com/tracings/S39_age5_trial4.png","1"
"","3471","image-button-response","14","null","160953","689b8a7a4faa850af7a40460","689bc2a290fa909e31b4496f","5c22f28d70d93a0001201738","3","S113_age9_trial3.png","false","false","https://kisumu-drawings.s3-us-west-1.amazonaws.com/tracings/S113_age9_trial3.png","4"
"","16710","image-button-response","15","null","178179","689b8a7a4faa850af7a40460","689bc2a290fa909e31b4496f","5c22f28d70d93a0001201738","5","S97_age8_trial5.png","false","false","https://kisumu-drawings.s3-us-west-1.amazonaws.com/tracings/S97_age8_trial5.png","3"
"","3753","image-button-response","16","null","182441","689b8a7a4faa850af7a40460","689bc2a290fa909e31b4496f","5c22f28d70d93a0001201738","2","S94_age8_trial2.png","false","false","https://kisumu-drawings.s3-us-west-1.amazonaws.com/tracings/S94_age8_trial2.png","4"
"","16770","image-button-response","17","null","199723","689b8a7a4faa850af7a40460","689bc2a290fa909e31b4496f","5c22f28d70d93a0001201738","1","S35_age5_trial1.png","false","false","https://kisumu-drawings.s3-us-west-1.amazonaws.com/tracings/S35_age5_trial1.png","1"
"","6127","image-button-response","18","null","206366","689b8a7a4faa850af7a40460","689bc2a290fa909e31b4496f","5c22f28d70d93a0001201738","3","S95_age8_trial3.png","false","false","https://kisumu-drawings.s3-us-west-1.amazonaws.com/tracings/S95_age8_trial3.png","4"
"","2711","image-button-response","19","null","209583","689b8a7a4faa850af7a40460","689bc2a290fa909e31b4496f","5c22f28d70d93a0001201738","5","S119_age9_trial5.png","false","false","https://kisumu-drawings.s3-us-west-1.amazonaws.com/tracings/S119_age9_trial5.png","4"
"","5676","image-button-response","20","null","215785","689b8a7a4faa850af7a40460","689bc2a290fa909e31b4496f","5c22f28d70d93a0001201738","4","S116_age9_trial4.png","false","false","https://kisumu-drawings.s3-us-west-1.amazonaws.com/tracings/S116_age9_trial4.png","4"
"","3696","image-button-response","21","null","219986","689b8a7a4faa850af7a40460","689bc2a290fa909e31b4496f","5c22f28d70d93a0001201738","5","S115_age9_trial5.png","false","false","https://kisumu-drawings.s3-us-west-1.amazonaws.com/tracings/S115_age9_trial5.png","4"
"","2318","image-button-response","22","null","222822","689b8a7a4faa850af7a40460","689bc2a290fa909e31b4496f","5c22f28d70d93a0001201738","2","","true","false","stimuli/catch_trials/catch_trial.png","1"
"","8303","image-button-response","23","null","231641","689b8a7a4faa850af7a40460","689bc2a290fa909e31b4496f","5c22f28d70d93a0001201738","5","S38_age5_trial5.png","false","false","https://kisumu-drawings.s3-us-west-1.amazonaws.com/tracings/S38_age5_trial5.png","3"
"","7452","image-button-response","24","null","239608","689b8a7a4faa850af7a40460","689bc2a290fa909e31b4496f","5c22f28d70d93a0001201738","3","S92_age8_trial3.png","false","false","https://kisumu-drawings.s3-us-west-1.amazonaws.com/tracings/S92_age8_trial3.png","4"
"","4164","image-button-response","25","null","244287","689b8a7a4faa850af7a40460","689bc2a290fa909e31b4496f","5c22f28d70d93a0001201738","1","S79_age7_trial1.png","false","false","https://kisumu-drawings.s3-us-west-1.amazonaws.com/tracings/S79_age7_trial1.png","4"
"","4845","image-button-response","26","null","249634","689b8a7a4faa850af7a40460","689bc2a290fa909e31b4496f","5c22f28d70d93a0001201738","3","S120_age9_trial3.png","false","false","https://kisumu-drawings.s3-us-west-1.amazonaws.com/tracings/S120_age9_trial3.png","4"
"","4871","image-button-response","27","null","255014","689b8a7a4faa850af7a40460","689bc2a290fa909e31b4496f","5c22f28d70d93a0001201738","5","S55_age6_trial5.png","false","false","https://kisumu-drawings.s3-us-west-1.amazonaws.com/tracings/S55_age6_trial5.png","4"
"","3342","image-button-response","28","null","258871","689b8a7a4faa850af7a40460","689bc2a290fa909e31b4496f","5c22f28d70d93a0001201738","1","S115_age9_trial1.png","false","false","https://kisumu-drawings.s3-us-west-1.amazonaws.com/tracings/S115_age9_trial1.png","4"
"","3575","image-button-response","29","null","262963","689b8a7a4faa850af7a40460","689bc2a290fa909e31b4496f","5c22f28d70d93a0001201738","3","S58_age6_trial3.png","false","false","https://kisumu-drawings.s3-us-west-1.amazonaws.com/tracings/S58_age6_trial3.png","4"
"","5718","image-button-response","30","null","269187","689b8a7a4faa850af7a40460","689bc2a290fa909e31b4496f","5c22f28d70d93a0001201738","2","S78_age7_trial2.png","false","false","https://kisumu-drawings.s3-us-west-1.amazonaws.com/tracings/S78_age7_trial2.png","5"
"","3229","image-button-response","31","null","272929","689b8a7a4faa850af7a40460","689bc2a290fa909e31b4496f","5c22f28d70d93a0001201738","3","S77_age7_trial3.png","false","false","https://kisumu-drawings.s3-us-west-1.amazonaws.com/tracings/S77_age7_trial3.png","4"
"","1865","image-button-response","32","null","275301","689b8a7a4faa850af7a40460","689bc2a290fa909e31b4496f","5c22f28d70d93a0001201738","2","S7_age4_trial2.png","false","false","https://kisumu-drawings.s3-us-west-1.amazonaws.com/tracings/S7_age4_trial2.png","4"
"","2708","image-button-response","33","null","278517","689b8a7a4faa850af7a40460","689bc2a290fa909e31b4496f","5c22f28d70d93a0001201738","2","S59_age6_trial2.png","false","false","https://kisumu-drawings.s3-us-west-1.amazonaws.com/tracings/S59_age6_trial2.png","3"
"","11655","image-button-response","34","null","290682","689b8a7a4faa850af7a40460","689bc2a290fa909e31b4496f","5c22f28d70d93a0001201738","5","S39_age5_trial5.png","false","false","https://kisumu-drawings.s3-us-west-1.amazonaws.com/tracings/S39_age5_trial5.png","2"
"","9378","image-button-response","35","null","300567","689b8a7a4faa850af7a40460","689bc2a290fa909e31b4496f","5c22f28d70d93a0001201738","3","S76_age7_trial3.png","false","false","https://kisumu-drawings.s3-us-west-1.amazonaws.com/tracings/S76_age7_trial3.png","4"
"","2790","image-button-response","36","null","303859","689b8a7a4faa850af7a40460","689bc2a290fa909e31b4496f","5c22f28d70d93a0001201738","1","S117_age9_trial1.png","false","false","https://kisumu-drawings.s3-us-west-1.amazonaws.com/tracings/S117_age9_trial1.png","4"
"","9242","image-button-response","37","null","313610","689b8a7a4faa850af7a40460","689bc2a290fa909e31b4496f","5c22f28d70d93a0001201738","5","S74_age7_trial5.png","false","false","https://kisumu-drawings.s3-us-west-1.amazonaws.com/tracings/S74_age7_trial5.png","3"
"","3487","image-button-response","38","null","317614","689b8a7a4faa850af7a40460","689bc2a290fa909e31b4496f","5c22f28d70d93a0001201738","2","S38_age5_trial2.png","false","false","https://kisumu-drawings.s3-us-west-1.amazonaws.com/tracings/S38_age5_trial2.png","3"
"","1969","image-button-response","39","null","320089","689b8a7a4faa850af7a40460","689bc2a290fa909e31b4496f","5c22f28d70d93a0001201738","2","S113_age9_trial2.png","false","false","https://kisumu-drawings.s3-us-west-1.amazonaws.com/tracings/S113_age9_trial2.png","4"
"","1569","image-button-response","40","null","322175","689b8a7a4faa850af7a40460","689bc2a290fa909e31b4496f","5c22f28d70d93a0001201738","1","S78_age7_trial1.png","false","false","https://kisumu-drawings.s3-us-west-1.amazonaws.com/tracings/S78_age7_trial1.png","4"
"","4547","image-button-response","41","null","327239","689b8a7a4faa850af7a40460","689bc2a290fa909e31b4496f","5c22f28d70d93a0001201738","5","S94_age8_trial5.png","false","false","https://kisumu-drawings.s3-us-west-1.amazonaws.com/tracings/S94_age8_trial5.png","5"
"","5829","image-button-response","42","null","333582","689b8a7a4faa850af7a40460","689bc2a290fa909e31b4496f","5c22f28d70d93a0001201738","1","S55_age6_trial1.png","false","false","https://kisumu-drawings.s3-us-west-1.amazonaws.com/tracings/S55_age6_trial1.png","3"
"","41857","image-button-response","43","null","375951","689b8a7a4faa850af7a40460","689bc2a290fa909e31b4496f","5c22f28d70d93a0001201738","5","S79_age7_trial5.png","false","false","https://kisumu-drawings.s3-us-west-1.amazonaws.com/tracings/S79_age7_trial5.png","4"
"","4904","image-button-response","44","null","381358","689b8a7a4faa850af7a40460","689bc2a290fa909e31b4496f","5c22f28d70d93a0001201738","2","S4_age4_trial2.png","false","false","https://kisumu-drawings.s3-us-west-1.amazonaws.com/tracings/S4_age4_trial2.png","3"
"","8721","image-button-response","45","null","390591","689b8a7a4faa850af7a40460","689bc2a290fa909e31b4496f","5c22f28d70d93a0001201738","4","S92_age8_trial4.png","false","false","https://kisumu-drawings.s3-us-west-1.amazonaws.com/tracings/S92_age8_trial4.png","5"
"","3886","image-button-response","46","null","394984","689b8a7a4faa850af7a40460","689bc2a290fa909e31b4496f","5c22f28d70d93a0001201738","1","S99_age8_trial1.png","false","false","https://kisumu-drawings.s3-us-west-1.amazonaws.com/tracings/S99_age8_trial1.png","1"
"","4857","image-button-response","47","null","400354","689b8a7a4faa850af7a40460","689bc2a290fa909e31b4496f","5c22f28d70d93a0001201738","5","S7_age4_trial5.png","false","false","https://kisumu-drawings.s3-us-west-1.amazonaws.com/tracings/S7_age4_trial5.png","4"
"","2333","image-button-response","48","null","403190","689b8a7a4faa850af7a40460","689bc2a290fa909e31b4496f","5c22f28d70d93a0001201738","5","S58_age6_trial5.png","false","false","https://kisumu-drawings.s3-us-west-1.amazonaws.com/tracings/S58_age6_trial5.png","5"
"","2130","image-button-response","49","null","405823","689b8a7a4faa850af7a40460","689bc2a290fa909e31b4496f","5c22f28d70d93a0001201738","3","S54_age6_trial3.png","false","false","https://kisumu-drawings.s3-us-west-1.amazonaws.com/tracings/S54_age6_trial3.png","4"
"","3962","image-button-response","50","null","410299","689b8a7a4faa850af7a40460","689bc2a290fa909e31b4496f","5c22f28d70d93a0001201738","1","S96_age8_trial1.png","false","false","https://kisumu-drawings.s3-us-west-1.amazonaws.com/tracings/S96_age8_trial1.png","5"
"","5283","image-button-response","51","null","416086","689b8a7a4faa850af7a40460","689bc2a290fa909e31b4496f","5c22f28d70d93a0001201738","4","S97_age8_trial4.png","false","false","https://kisumu-drawings.s3-us-west-1.amazonaws.com/tracings/S97_age8_trial4.png","2"
"","2560","image-button-response","52","null","419158","689b8a7a4faa850af7a40460","689bc2a290fa909e31b4496f","5c22f28d70d93a0001201738","2","S116_age9_trial2.png","false","false","https://kisumu-drawings.s3-us-west-1.amazonaws.com/tracings/S116_age9_trial2.png","4"
"","2564","image-button-response","53","null","422225","689b8a7a4faa850af7a40460","689bc2a290fa909e31b4496f","5c22f28d70d93a0001201738","4","S114_age9_trial4.png","false","false","https://kisumu-drawings.s3-us-west-1.amazonaws.com/tracings/S114_age9_trial4.png","5"
"","2550","image-button-response","54","null","425278","689b8a7a4faa850af7a40460","689bc2a290fa909e31b4496f","5c22f28d70d93a0001201738","3","S9_age4_trial3.png","false","false","https://kisumu-drawings.s3-us-west-1.amazonaws.com/tracings/S9_age4_trial3.png","2"
"","2470","image-button-response","55","null","428263","689b8a7a4faa850af7a40460","689bc2a290fa909e31b4496f","5c22f28d70d93a0001201738","3","S36_age5_trial3.png","false","false","https://kisumu-drawings.s3-us-west-1.amazonaws.com/tracings/S36_age5_trial3.png","4"
"","6511","image-button-response","56","null","435292","689b8a7a4faa850af7a40460","689bc2a290fa909e31b4496f","5c22f28d70d93a0001201738","1","S57_age6_trial1.png","false","false","https://kisumu-drawings.s3-us-west-1.amazonaws.com/tracings/S57_age6_trial1.png","3"
"","3108","image-button-response","57","null","438905","689b8a7a4faa850af7a40460","689bc2a290fa909e31b4496f","5c22f28d70d93a0001201738","4","S57_age6_trial4.png","false","false","https://kisumu-drawings.s3-us-west-1.amazonaws.com/tracings/S57_age6_trial4.png","4"
"","1811","image-button-response","58","null","441223","689b8a7a4faa850af7a40460","689bc2a290fa909e31b4496f","5c22f28d70d93a0001201738","3","S3_age4_trial3.png","false","false","https://kisumu-drawings.s3-us-west-1.amazonaws.com/tracings/S3_age4_trial3.png","3"
"","3931","image-button-response","59","null","445663","689b8a7a4faa850af7a40460","689bc2a290fa909e31b4496f","5c22f28d70d93a0001201738","4","S79_age7_trial4.png","false","false","https://kisumu-drawings.s3-us-west-1.amazonaws.com/tracings/S79_age7_trial4.png","4"
"","4435","image-button-response","60","null","450614","689b8a7a4faa850af7a40460","689bc2a290fa909e31b4496f","5c22f28d70d93a0001201738","5","S8_age4_trial5.png","false","false","https://kisumu-drawings.s3-us-west-1.amazonaws.com/tracings/S8_age4_trial5.png","2"
"","2451","image-button-response","61","null","453585","689b8a7a4faa850af7a40460","689bc2a290fa909e31b4496f","5c22f28d70d93a0001201738","1","S5_age4_trial1.png","false","false","https://kisumu-drawings.s3-us-west-1.amazonaws.com/tracings/S5_age4_trial1.png","2"
