"view_history","rt","trial_type","trial_index","plugin_version","time_elapsed","study_id","session_id","participant_id","tracing_type","tracing_id","catch_trial","prep_trial","stimulus","response"
"[{""page_index"":0,""viewing_time"":9784},{""page_index"":1,""viewing_time"":9364},{""page_index"":2,""viewing_time"":3222},{""page_index"":3,""viewing_time"":3912},{""page_index"":4,""viewing_time"":9464}]","35746","instructions","0","null","35790","689b8a7a4faa850af7a40460","689be0eba4b6657160afe02b","5e2ac2aa0038f21089a533a4","","","","","",""
"","8114","image-button-response","1","null","44912","689b8a7a4faa850af7a40460","689be0eba4b6657160afe02b","5e2ac2aa0038f21089a533a4","3","S79_age7_trial3.png","false","false","https://kisumu-drawings.s3-us-west-1.amazonaws.com/tracings/S79_age7_trial3.png","4"
"","9371","image-button-response","2","null","54794","689b8a7a4faa850af7a40460","689be0eba4b6657160afe02b","5e2ac2aa0038f21089a533a4","4","S97_age8_trial4.png","false","false","https://kisumu-drawings.s3-us-west-1.amazonaws.com/tracings/S97_age8_trial4.png","2"
"","4957","image-button-response","3","null","60258","689b8a7a4faa850af7a40460","689be0eba4b6657160afe02b","5e2ac2aa0038f21089a533a4","5","S94_age8_trial5.png","false","false","https://kisumu-drawings.s3-us-west-1.amazonaws.com/tracings/S94_age8_trial5.png","5"
"","4383","image-button-response","4","null","65152","689b8a7a4faa850af7a40460","689be0eba4b6657160afe02b","5e2ac2aa0038f21089a533a4","4","S39_age5_trial4.png","false","false","https://kisumu-drawings.s3-us-west-1.amazonaws.com/tracings/S39_age5_trial4.png","2"
"","4703","image-button-response","5","null","70360","689b8a7a4faa850af7a40460","689be0eba4b6657160afe02b","5e2ac2aa0038f21089a533a4","5","S56_age6_trial5.png","false","false","https://kisumu-drawings.s3-us-west-1.amazonaws.com/tracings/S56_age6_trial5.png","4"
"","5044","image-button-response","6","null","75908","689b8a7a4faa850af7a40460","689be0eba4b6657160afe02b","5e2ac2aa0038f21089a533a4","2","S91_age8_trial2.png","false","false","https://kisumu-drawings.s3-us-west-1.amazonaws.com/tracings/S91_age8_trial2.png","5"
"","6623","image-button-response","7","null","83038","689b8a7a4faa850af7a40460","689be0eba4b6657160afe02b","5e2ac2aa0038f21089a533a4","2","S78_age7_trial2.png","false","false","https://kisumu-drawings.s3-us-west-1.amazonaws.com/tracings/S78_age7_trial2.png","4"
"","3024","image-button-response","8","null","86580","689b8a7a4faa850af7a40460","689be0eba4b6657160afe02b","5e2ac2aa0038f21089a533a4","2","S52_age6_trial2.png","false","false","https://kisumu-drawings.s3-us-west-1.amazonaws.com/tracings/S52_age6_trial2.png","4"
"","3454","image-button-response","9","null","90537","689b8a7a4faa850af7a40460","689be0eba4b6657160afe02b","5e2ac2aa0038f21089a533a4","3","S60_age6_trial3.png","false","false","https://kisumu-drawings.s3-us-west-1.amazonaws.com/tracings/S60_age6_trial3.png","4"
"","3452","image-button-response","10","null","94501","689b8a7a4faa850af7a40460","689be0eba4b6657160afe02b","5e2ac2aa0038f21089a533a4","5","S5_age4_trial5.png","false","false","https://kisumu-drawings.s3-us-west-1.amazonaws.com/tracings/S5_age4_trial5.png","2"
"","6987","image-button-response","11","null","102003","689b8a7a4faa850af7a40460","689be0eba4b6657160afe02b","5e2ac2aa0038f21089a533a4","3","S97_age8_trial3.png","false","false","https://kisumu-drawings.s3-us-west-1.amazonaws.com/tracings/S97_age8_trial3.png","3"
"","4724","image-button-response","12","null","107231","689b8a7a4faa850af7a40460","689be0eba4b6657160afe02b","5e2ac2aa0038f21089a533a4","3","S96_age8_trial3.png","false","false","https://kisumu-drawings.s3-us-west-1.amazonaws.com/tracings/S96_age8_trial3.png","5"
"","7149","image-button-response","13","null","114889","689b8a7a4faa850af7a40460","689be0eba4b6657160afe02b","5e2ac2aa0038f21089a533a4","5","S74_age7_trial5.png","false","false","https://kisumu-drawings.s3-us-west-1.amazonaws.com/tracings/S74_age7_trial5.png","3"
"","4003","image-button-response","14","null","119395","689b8a7a4faa850af7a40460","689be0eba4b6657160afe02b","5e2ac2aa0038f21089a533a4","2","S119_age9_trial2.png","false","false","https://kisumu-drawings.s3-us-west-1.amazonaws.com/tracings/S119_age9_trial2.png","5"
"","2455","image-button-response","15","null","122367","689b8a7a4faa850af7a40460","689be0eba4b6657160afe02b","5e2ac2aa0038f21089a533a4","3","S40_age5_trial3.png","false","false","https://kisumu-drawings.s3-us-west-1.amazonaws.com/tracings/S40_age5_trial3.png","4"
"","5030","image-button-response","16","null","127911","689b8a7a4faa850af7a40460","689be0eba4b6657160afe02b","5e2ac2aa0038f21089a533a4","1","S79_age7_trial1.png","false","false","https://kisumu-drawings.s3-us-west-1.amazonaws.com/tracings/S79_age7_trial1.png","5"
"","3843","image-button-response","17","null","132271","689b8a7a4faa850af7a40460","689be0eba4b6657160afe02b","5e2ac2aa0038f21089a533a4","4","S59_age6_trial4.png","false","false","https://kisumu-drawings.s3-us-west-1.amazonaws.com/tracings/S59_age6_trial4.png","2"
"","4814","image-button-response","18","null","137593","689b8a7a4faa850af7a40460","689be0eba4b6657160afe02b","5e2ac2aa0038f21089a533a4","1","S98_age8_trial1.png","false","false","https://kisumu-drawings.s3-us-west-1.amazonaws.com/tracings/S98_age8_trial1.png","5"
"","3285","image-button-response","19","null","141395","689b8a7a4faa850af7a40460","689be0eba4b6657160afe02b","5e2ac2aa0038f21089a533a4","4","S56_age6_trial4.png","false","false","https://kisumu-drawings.s3-us-west-1.amazonaws.com/tracings/S56_age6_trial4.png","5"
"","4301","image-button-response","20","null","146199","689b8a7a4faa850af7a40460","689be0eba4b6657160afe02b","5e2ac2aa0038f21089a533a4","4","S5_age4_trial4.png","false","false","https://kisumu-drawings.s3-us-west-1.amazonaws.com/tracings/S5_age4_trial4.png","2"
"","2797","image-button-response","21","null","149509","689b8a7a4faa850af7a40460","689be0eba4b6657160afe02b","5e2ac2aa0038f21089a533a4","1","S120_age9_trial1.png","false","false","https://kisumu-drawings.s3-us-west-1.amazonaws.com/tracings/S120_age9_trial1.png","5"
"","2348","image-button-response","22","null","152371","689b8a7a4faa850af7a40460","689be0eba4b6657160afe02b","5e2ac2aa0038f21089a533a4","5","S38_age5_trial5.png","false","false","https://kisumu-drawings.s3-us-west-1.amazonaws.com/tracings/S38_age5_trial5.png","4"
"","2277","image-button-response","23","null","155153","689b8a7a4faa850af7a40460","689be0eba4b6657160afe02b","5e2ac2aa0038f21089a533a4","5","S113_age9_trial5.png","false","false","https://kisumu-drawings.s3-us-west-1.amazonaws.com/tracings/S113_age9_trial5.png","5"
"","4183","image-button-response","24","null","159853","689b8a7a4faa850af7a40460","689be0eba4b6657160afe02b","5e2ac2aa0038f21089a533a4","3","S118_age9_trial3.png","false","false","https://kisumu-drawings.s3-us-west-1.amazonaws.com/tracings/S118_age9_trial3.png","4"
"","4300","image-button-response","25","null","164657","689b8a7a4faa850af7a40460","689be0eba4b6657160afe02b","5e2ac2aa0038f21089a533a4","2","S99_age8_trial2.png","false","false","https://kisumu-drawings.s3-us-west-1.amazonaws.com/tracings/S99_age8_trial2.png","4"
"","7588","image-button-response","26","null","172749","689b8a7a4faa850af7a40460","689be0eba4b6657160afe02b","5e2ac2aa0038f21089a533a4","4","S73_age7_trial4.png","false","false","https://kisumu-drawings.s3-us-west-1.amazonaws.com/tracings/S73_age7_trial4.png","4"
"","2612","image-button-response","27","null","175869","689b8a7a4faa850af7a40460","689be0eba4b6657160afe02b","5e2ac2aa0038f21089a533a4","1","S35_age5_trial1.png","false","false","https://kisumu-drawings.s3-us-west-1.amazonaws.com/tracings/S35_age5_trial1.png","4"
"","2800","image-button-response","28","null","179185","689b8a7a4faa850af7a40460","689be0eba4b6657160afe02b","5e2ac2aa0038f21089a533a4","2","","true","false","stimuli/catch_trials/catch_trial.png","1"
"","6106","image-button-response","29","null","185793","689b8a7a4faa850af7a40460","689be0eba4b6657160afe02b","5e2ac2aa0038f21089a533a4","3","S80_age7_trial3.png","false","false","https://kisumu-drawings.s3-us-west-1.amazonaws.com/tracings/S80_age7_trial3.png","3"
"","6670","image-button-response","30","null","192979","689b8a7a4faa850af7a40460","689be0eba4b6657160afe02b","5e2ac2aa0038f21089a533a4","1","S7_age4_trial1.png","false","false","https://kisumu-drawings.s3-us-west-1.amazonaws.com/tracings/S7_age4_trial1.png","3"
"","3673","image-button-response","31","null","197163","689b8a7a4faa850af7a40460","689be0eba4b6657160afe02b","5e2ac2aa0038f21089a533a4","2","S79_age7_trial2.png","false","false","https://kisumu-drawings.s3-us-west-1.amazonaws.com/tracings/S79_age7_trial2.png","4"
"","8922","image-button-response","32","null","206599","689b8a7a4faa850af7a40460","689be0eba4b6657160afe02b","5e2ac2aa0038f21089a533a4","5","S76_age7_trial5.png","false","false","https://kisumu-drawings.s3-us-west-1.amazonaws.com/tracings/S76_age7_trial5.png","2"
"","6718","image-button-response","33","null","213821","689b8a7a4faa850af7a40460","689be0eba4b6657160afe02b","5e2ac2aa0038f21089a533a4","2","S115_age9_trial2.png","false","false","https://kisumu-drawings.s3-us-west-1.amazonaws.com/tracings/S115_age9_trial2.png","5"
"","5271","image-button-response","34","null","219599","689b8a7a4faa850af7a40460","689be0eba4b6657160afe02b","5e2ac2aa0038f21089a533a4","2","S59_age6_trial2.png","false","false","https://kisumu-drawings.s3-us-west-1.amazonaws.com/tracings/S59_age6_trial2.png","3"
"","2019","image-button-response","35","null","222123","689b8a7a4faa850af7a40460","689be0eba4b6657160afe02b","5e2ac2aa0038f21089a533a4","3","S3_age4_trial3.png","false","false","https://kisumu-drawings.s3-us-west-1.amazonaws.com/tracings/S3_age4_trial3.png","2"
"","2376","image-button-response","36","null","225003","689b8a7a4faa850af7a40460","689be0eba4b6657160afe02b","5e2ac2aa0038f21089a533a4","2","S8_age4_trial2.png","false","false","https://kisumu-drawings.s3-us-west-1.amazonaws.com/tracings/S8_age4_trial2.png","2"
"","3032","image-button-response","37","null","228539","689b8a7a4faa850af7a40460","689be0eba4b6657160afe02b","5e2ac2aa0038f21089a533a4","2","S35_age5_trial2.png","false","false","https://kisumu-drawings.s3-us-west-1.amazonaws.com/tracings/S35_age5_trial2.png","4"
"","2113","image-button-response","38","null","231163","689b8a7a4faa850af7a40460","689be0eba4b6657160afe02b","5e2ac2aa0038f21089a533a4","5","S3_age4_trial5.png","false","false","https://kisumu-drawings.s3-us-west-1.amazonaws.com/tracings/S3_age4_trial5.png","2"
"","2920","image-button-response","39","null","234597","689b8a7a4faa850af7a40460","689be0eba4b6657160afe02b","5e2ac2aa0038f21089a533a4","3","S119_age9_trial3.png","false","false","https://kisumu-drawings.s3-us-west-1.amazonaws.com/tracings/S119_age9_trial3.png","4"
"","3478","image-button-response","40","null","238587","689b8a7a4faa850af7a40460","689be0eba4b6657160afe02b","5e2ac2aa0038f21089a533a4","1","S97_age8_trial1.png","false","false","https://kisumu-drawings.s3-us-west-1.amazonaws.com/tracings/S97_age8_trial1.png","5"
"","2849","image-button-response","41","null","241939","689b8a7a4faa850af7a40460","689be0eba4b6657160afe02b","5e2ac2aa0038f21089a533a4","1","S118_age9_trial1.png","false","false","https://kisumu-drawings.s3-us-west-1.amazonaws.com/tracings/S118_age9_trial1.png","5"
"","2425","image-button-response","42","null","244867","689b8a7a4faa850af7a40460","689be0eba4b6657160afe02b","5e2ac2aa0038f21089a533a4","3","S8_age4_trial3.png","false","false","https://kisumu-drawings.s3-us-west-1.amazonaws.com/tracings/S8_age4_trial3.png","2"
"","2172","image-button-response","43","null","247541","689b8a7a4faa850af7a40460","689be0eba4b6657160afe02b","5e2ac2aa0038f21089a533a4","3","S28_age5_trial3.png","false","false","https://kisumu-drawings.s3-us-west-1.amazonaws.com/tracings/S28_age5_trial3.png","4"
"","3062","image-button-response","44","null","251117","689b8a7a4faa850af7a40460","689be0eba4b6657160afe02b","5e2ac2aa0038f21089a533a4","1","S4_age4_trial1.png","false","false","https://kisumu-drawings.s3-us-west-1.amazonaws.com/tracings/S4_age4_trial1.png","3"
"","3083","image-button-response","45","null","254709","689b8a7a4faa850af7a40460","689be0eba4b6657160afe02b","5e2ac2aa0038f21089a533a4","1","S60_age6_trial1.png","false","false","https://kisumu-drawings.s3-us-west-1.amazonaws.com/tracings/S60_age6_trial1.png","5"
"","4667","image-button-response","46","null","259879","689b8a7a4faa850af7a40460","689be0eba4b6657160afe02b","5e2ac2aa0038f21089a533a4","5","S59_age6_trial5.png","false","false","https://kisumu-drawings.s3-us-west-1.amazonaws.com/tracings/S59_age6_trial5.png","2"
"","2279","image-button-response","47","null","262661","689b8a7a4faa850af7a40460","689be0eba4b6657160afe02b","5e2ac2aa0038f21089a533a4","4","S76_age7_trial4.png","false","false","https://kisumu-drawings.s3-us-west-1.amazonaws.com/tracings/S76_age7_trial4.png","2"
"","2829","image-button-response","48","null","265995","689b8a7a4faa850af7a40460","689be0eba4b6657160afe02b","5e2ac2aa0038f21089a533a4","2","S36_age5_trial2.png","false","false","https://kisumu-drawings.s3-us-west-1.amazonaws.com/tracings/S36_age5_trial2.png","5"
"","2162","image-button-response","49","null","268664","689b8a7a4faa850af7a40460","689be0eba4b6657160afe02b","5e2ac2aa0038f21089a533a4","4","S116_age9_trial4.png","false","false","https://kisumu-drawings.s3-us-west-1.amazonaws.com/tracings/S116_age9_trial4.png","5"
"","3010","image-button-response","50","null","272179","689b8a7a4faa850af7a40460","689be0eba4b6657160afe02b","5e2ac2aa0038f21089a533a4","4","S9_age4_trial4.png","false","false","https://kisumu-drawings.s3-us-west-1.amazonaws.com/tracings/S9_age4_trial4.png","2"
"","4348","image-button-response","51","null","277045","689b8a7a4faa850af7a40460","689be0eba4b6657160afe02b","5e2ac2aa0038f21089a533a4","4","S109_age9_trial4.png","false","false","https://kisumu-drawings.s3-us-west-1.amazonaws.com/tracings/S109_age9_trial4.png","5"
"","2336","image-button-response","52","null","279893","689b8a7a4faa850af7a40460","689be0eba4b6657160afe02b","5e2ac2aa0038f21089a533a4","3","S58_age6_trial3.png","false","false","https://kisumu-drawings.s3-us-west-1.amazonaws.com/tracings/S58_age6_trial3.png","5"
"","3633","image-button-response","53","null","284041","689b8a7a4faa850af7a40460","689be0eba4b6657160afe02b","5e2ac2aa0038f21089a533a4","5","S93_age8_trial5.png","false","false","https://kisumu-drawings.s3-us-west-1.amazonaws.com/tracings/S93_age8_trial5.png","5"
"","3214","image-button-response","54","null","287760","689b8a7a4faa850af7a40460","689be0eba4b6657160afe02b","5e2ac2aa0038f21089a533a4","4","S34_age5_trial4.png","false","false","https://kisumu-drawings.s3-us-west-1.amazonaws.com/tracings/S34_age5_trial4.png","2"
"","3170","image-button-response","55","null","291433","689b8a7a4faa850af7a40460","689be0eba4b6657160afe02b","5e2ac2aa0038f21089a533a4","5","S119_age9_trial5.png","false","false","https://kisumu-drawings.s3-us-west-1.amazonaws.com/tracings/S119_age9_trial5.png","5"
"","3144","image-button-response","56","null","295083","689b8a7a4faa850af7a40460","689be0eba4b6657160afe02b","5e2ac2aa0038f21089a533a4","5","S35_age5_trial5.png","false","false","https://kisumu-drawings.s3-us-west-1.amazonaws.com/tracings/S35_age5_trial5.png","4"
"","2217","image-button-response","57","null","297811","689b8a7a4faa850af7a40460","689be0eba4b6657160afe02b","5e2ac2aa0038f21089a533a4","1","S54_age6_trial1.png","false","false","https://kisumu-drawings.s3-us-west-1.amazonaws.com/tracings/S54_age6_trial1.png","4"
"","4193","image-button-response","58","null","302509","689b8a7a4faa850af7a40460","689be0eba4b6657160afe02b","5e2ac2aa0038f21089a533a4","1","S75_age7_trial1.png","false","false","https://kisumu-drawings.s3-us-west-1.amazonaws.com/tracings/S75_age7_trial1.png","4"
"","2290","image-button-response","59","null","305307","689b8a7a4faa850af7a40460","689be0eba4b6657160afe02b","5e2ac2aa0038f21089a533a4","4","S96_age8_trial4.png","false","false","https://kisumu-drawings.s3-us-west-1.amazonaws.com/tracings/S96_age8_trial4.png","5"
"","2798","image-button-response","60","null","308616","689b8a7a4faa850af7a40460","689be0eba4b6657160afe02b","5e2ac2aa0038f21089a533a4","1","S40_age5_trial1.png","false","false","https://kisumu-drawings.s3-us-west-1.amazonaws.com/tracings/S40_age5_trial1.png","4"
"","2395","image-button-response","61","null","311523","689b8a7a4faa850af7a40460","689be0eba4b6657160afe02b","5e2ac2aa0038f21089a533a4","2","S5_age4_trial2.png","false","false","https://kisumu-drawings.s3-us-west-1.amazonaws.com/tracings/S5_age4_trial2.png","2"
