"view_history","rt","trial_type","trial_index","plugin_version","time_elapsed","study_id","session_id","participant_id","tracing_type","tracing_id","catch_trial","prep_trial","stimulus","response"
"[{""page_index"":0,""viewing_time"":29982},{""page_index"":1,""viewing_time"":7134},{""page_index"":2,""viewing_time"":3510},{""page_index"":3,""viewing_time"":2141},{""page_index"":4,""viewing_time"":5154}]","47921","instructions","0","null","47926","689b8a7a4faa850af7a40460","689bb01cb1407741d29976eb","5f8cbc5c355ea745e6cef2ca","","","","","",""
"","4509","image-button-response","1","null","53446","689b8a7a4faa850af7a40460","689bb01cb1407741d29976eb","5f8cbc5c355ea745e6cef2ca","4","S38_age5_trial4.png","false","false","https://kisumu-drawings.s3-us-west-1.amazonaws.com/tracings/S38_age5_trial4.png","5"
"","1602","image-button-response","2","null","55549","689b8a7a4faa850af7a40460","689bb01cb1407741d29976eb","5f8cbc5c355ea745e6cef2ca","5","S114_age9_trial5.png","false","false","https://kisumu-drawings.s3-us-west-1.amazonaws.com/tracings/S114_age9_trial5.png","5"
"","2346","image-button-response","3","null","58399","689b8a7a4faa850af7a40460","689bb01cb1407741d29976eb","5f8cbc5c355ea745e6cef2ca","5","S39_age5_trial5.png","false","false","https://kisumu-drawings.s3-us-west-1.amazonaws.com/tracings/S39_age5_trial5.png","2"
"","1651","image-button-response","4","null","60554","689b8a7a4faa850af7a40460","689bb01cb1407741d29976eb","5f8cbc5c355ea745e6cef2ca","1","S119_age9_trial1.png","false","false","https://kisumu-drawings.s3-us-west-1.amazonaws.com/tracings/S119_age9_trial1.png","5"
"","1577","image-button-response","5","null","62633","689b8a7a4faa850af7a40460","689bb01cb1407741d29976eb","5f8cbc5c355ea745e6cef2ca","2","S8_age4_trial2.png","false","false","https://kisumu-drawings.s3-us-west-1.amazonaws.com/tracings/S8_age4_trial2.png","3"
"","1575","image-button-response","6","null","64708","689b8a7a4faa850af7a40460","689bb01cb1407741d29976eb","5f8cbc5c355ea745e6cef2ca","3","S96_age8_trial3.png","false","false","https://kisumu-drawings.s3-us-west-1.amazonaws.com/tracings/S96_age8_trial3.png","5"
"","2001","image-button-response","7","null","67213","689b8a7a4faa850af7a40460","689bb01cb1407741d29976eb","5f8cbc5c355ea745e6cef2ca","2","S75_age7_trial2.png","false","false","https://kisumu-drawings.s3-us-west-1.amazonaws.com/tracings/S75_age7_trial2.png","4"
"","1205","image-button-response","8","null","68930","689b8a7a4faa850af7a40460","689bb01cb1407741d29976eb","5f8cbc5c355ea745e6cef2ca","4","S60_age6_trial4.png","false","false","https://kisumu-drawings.s3-us-west-1.amazonaws.com/tracings/S60_age6_trial4.png","5"
"","1676","image-button-response","9","null","71107","689b8a7a4faa850af7a40460","689bb01cb1407741d29976eb","5f8cbc5c355ea745e6cef2ca","3","S56_age6_trial3.png","false","false","https://kisumu-drawings.s3-us-west-1.amazonaws.com/tracings/S56_age6_trial3.png","3"
"","2544","image-button-response","10","null","74160","689b8a7a4faa850af7a40460","689bb01cb1407741d29976eb","5f8cbc5c355ea745e6cef2ca","2","S34_age5_trial2.png","false","false","https://kisumu-drawings.s3-us-west-1.amazonaws.com/tracings/S34_age5_trial2.png","3"
"","1951","image-button-response","11","null","76612","689b8a7a4faa850af7a40460","689bb01cb1407741d29976eb","5f8cbc5c355ea745e6cef2ca","5","S75_age7_trial5.png","false","false","https://kisumu-drawings.s3-us-west-1.amazonaws.com/tracings/S75_age7_trial5.png","4"
"","1911","image-button-response","12","null","79024","689b8a7a4faa850af7a40460","689bb01cb1407741d29976eb","5f8cbc5c355ea745e6cef2ca","3","S117_age9_trial3.png","false","false","https://kisumu-drawings.s3-us-west-1.amazonaws.com/tracings/S117_age9_trial3.png","5"
"","2331","image-button-response","13","null","81857","689b8a7a4faa850af7a40460","689bb01cb1407741d29976eb","5f8cbc5c355ea745e6cef2ca","5","S117_age9_trial5.png","false","false","https://kisumu-drawings.s3-us-west-1.amazonaws.com/tracings/S117_age9_trial5.png","5"
"","2937","image-button-response","14","null","85297","689b8a7a4faa850af7a40460","689bb01cb1407741d29976eb","5f8cbc5c355ea745e6cef2ca","4","S34_age5_trial4.png","false","false","https://kisumu-drawings.s3-us-west-1.amazonaws.com/tracings/S34_age5_trial4.png","3"
"","1427","image-button-response","15","null","87227","689b8a7a4faa850af7a40460","689bb01cb1407741d29976eb","5f8cbc5c355ea745e6cef2ca","4","S95_age8_trial4.png","false","false","https://kisumu-drawings.s3-us-west-1.amazonaws.com/tracings/S95_age8_trial4.png","5"
"","1886","image-button-response","16","null","89614","689b8a7a4faa850af7a40460","689bb01cb1407741d29976eb","5f8cbc5c355ea745e6cef2ca","2","S55_age6_trial2.png","false","false","https://kisumu-drawings.s3-us-west-1.amazonaws.com/tracings/S55_age6_trial2.png","4"
"","1322","image-button-response","17","null","91450","689b8a7a4faa850af7a40460","689bb01cb1407741d29976eb","5f8cbc5c355ea745e6cef2ca","3","S78_age7_trial3.png","false","false","https://kisumu-drawings.s3-us-west-1.amazonaws.com/tracings/S78_age7_trial3.png","5"
"","1320","image-button-response","18","null","93272","689b8a7a4faa850af7a40460","689bb01cb1407741d29976eb","5f8cbc5c355ea745e6cef2ca","1","S58_age6_trial1.png","false","false","https://kisumu-drawings.s3-us-west-1.amazonaws.com/tracings/S58_age6_trial1.png","5"
"","1152","image-button-response","19","null","94937","689b8a7a4faa850af7a40460","689bb01cb1407741d29976eb","5f8cbc5c355ea745e6cef2ca","4","S114_age9_trial4.png","false","false","https://kisumu-drawings.s3-us-west-1.amazonaws.com/tracings/S114_age9_trial4.png","5"
"","2481","image-button-response","20","null","97922","689b8a7a4faa850af7a40460","689bb01cb1407741d29976eb","5f8cbc5c355ea745e6cef2ca","4","S79_age7_trial4.png","false","false","https://kisumu-drawings.s3-us-west-1.amazonaws.com/tracings/S79_age7_trial4.png","5"
"","2226","image-button-response","21","null","100659","689b8a7a4faa850af7a40460","689bb01cb1407741d29976eb","5f8cbc5c355ea745e6cef2ca","2","S4_age4_trial2.png","false","false","https://kisumu-drawings.s3-us-west-1.amazonaws.com/tracings/S4_age4_trial2.png","3"
"","1621","image-button-response","22","null","102781","689b8a7a4faa850af7a40460","689bb01cb1407741d29976eb","5f8cbc5c355ea745e6cef2ca","3","S98_age8_trial3.png","false","false","https://kisumu-drawings.s3-us-west-1.amazonaws.com/tracings/S98_age8_trial3.png","5"
"","1512","image-button-response","23","null","104793","689b8a7a4faa850af7a40460","689bb01cb1407741d29976eb","5f8cbc5c355ea745e6cef2ca","2","S95_age8_trial2.png","false","false","https://kisumu-drawings.s3-us-west-1.amazonaws.com/tracings/S95_age8_trial2.png","5"
"","1533","image-button-response","24","null","106829","689b8a7a4faa850af7a40460","689bb01cb1407741d29976eb","5f8cbc5c355ea745e6cef2ca","2","S114_age9_trial2.png","false","false","https://kisumu-drawings.s3-us-west-1.amazonaws.com/tracings/S114_age9_trial2.png","5"
"","1150","image-button-response","25","null","108480","689b8a7a4faa850af7a40460","689bb01cb1407741d29976eb","5f8cbc5c355ea745e6cef2ca","1","S95_age8_trial1.png","false","false","https://kisumu-drawings.s3-us-west-1.amazonaws.com/tracings/S95_age8_trial1.png","5"
"","1955","image-button-response","26","null","110936","689b8a7a4faa850af7a40460","689bb01cb1407741d29976eb","5f8cbc5c355ea745e6cef2ca","5","S99_age8_trial5.png","false","false","https://kisumu-drawings.s3-us-west-1.amazonaws.com/tracings/S99_age8_trial5.png","4"
"","1465","image-button-response","27","null","112905","689b8a7a4faa850af7a40460","689bb01cb1407741d29976eb","5f8cbc5c355ea745e6cef2ca","3","S55_age6_trial3.png","false","false","https://kisumu-drawings.s3-us-west-1.amazonaws.com/tracings/S55_age6_trial3.png","4"
"","1266","image-button-response","28","null","114682","689b8a7a4faa850af7a40460","689bb01cb1407741d29976eb","5f8cbc5c355ea745e6cef2ca","1","S56_age6_trial1.png","false","false","https://kisumu-drawings.s3-us-west-1.amazonaws.com/tracings/S56_age6_trial1.png","5"
"","2286","image-button-response","29","null","117468","689b8a7a4faa850af7a40460","689bb01cb1407741d29976eb","5f8cbc5c355ea745e6cef2ca","5","S53_age6_trial5.png","false","false","https://kisumu-drawings.s3-us-west-1.amazonaws.com/tracings/S53_age6_trial5.png","3"
"","2468","image-button-response","30","null","120436","689b8a7a4faa850af7a40460","689bb01cb1407741d29976eb","5f8cbc5c355ea745e6cef2ca","3","S119_age9_trial3.png","false","false","https://kisumu-drawings.s3-us-west-1.amazonaws.com/tracings/S119_age9_trial3.png","4"
"","1692","image-button-response","31","null","122632","689b8a7a4faa850af7a40460","689bb01cb1407741d29976eb","5f8cbc5c355ea745e6cef2ca","3","S39_age5_trial3.png","false","false","https://kisumu-drawings.s3-us-west-1.amazonaws.com/tracings/S39_age5_trial3.png","2"
"","3640","image-button-response","32","null","126780","689b8a7a4faa850af7a40460","689bb01cb1407741d29976eb","5f8cbc5c355ea745e6cef2ca","4","S2_age4_trial4.png","false","false","https://kisumu-drawings.s3-us-west-1.amazonaws.com/tracings/S2_age4_trial4.png","2"
"","1774","image-button-response","33","null","129060","689b8a7a4faa850af7a40460","689bb01cb1407741d29976eb","5f8cbc5c355ea745e6cef2ca","5","S96_age8_trial5.png","false","false","https://kisumu-drawings.s3-us-west-1.amazonaws.com/tracings/S96_age8_trial5.png","5"
"","1408","image-button-response","34","null","130979","689b8a7a4faa850af7a40460","689bb01cb1407741d29976eb","5f8cbc5c355ea745e6cef2ca","2","S33_age5_trial2.png","false","false","https://kisumu-drawings.s3-us-west-1.amazonaws.com/tracings/S33_age5_trial2.png","2"
"","1753","image-button-response","35","null","133234","689b8a7a4faa850af7a40460","689bb01cb1407741d29976eb","5f8cbc5c355ea745e6cef2ca","1","S7_age4_trial1.png","false","false","https://kisumu-drawings.s3-us-west-1.amazonaws.com/tracings/S7_age4_trial1.png","3"
"","1782","image-button-response","36","null","135528","689b8a7a4faa850af7a40460","689bb01cb1407741d29976eb","5f8cbc5c355ea745e6cef2ca","1","S35_age5_trial1.png","false","false","https://kisumu-drawings.s3-us-west-1.amazonaws.com/tracings/S35_age5_trial1.png","5"
"","1467","image-button-response","37","null","137505","689b8a7a4faa850af7a40460","689bb01cb1407741d29976eb","5f8cbc5c355ea745e6cef2ca","1","S118_age9_trial1.png","false","false","https://kisumu-drawings.s3-us-west-1.amazonaws.com/tracings/S118_age9_trial1.png","5"
"","1559","image-button-response","38","null","139566","689b8a7a4faa850af7a40460","689bb01cb1407741d29976eb","5f8cbc5c355ea745e6cef2ca","4","S54_age6_trial4.png","false","false","https://kisumu-drawings.s3-us-west-1.amazonaws.com/tracings/S54_age6_trial4.png","5"
"","1875","image-button-response","39","null","141945","689b8a7a4faa850af7a40460","689bb01cb1407741d29976eb","5f8cbc5c355ea745e6cef2ca","2","S94_age8_trial2.png","false","false","https://kisumu-drawings.s3-us-west-1.amazonaws.com/tracings/S94_age8_trial2.png","5"
"","1225","image-button-response","40","null","143682","689b8a7a4faa850af7a40460","689bb01cb1407741d29976eb","5f8cbc5c355ea745e6cef2ca","1","S76_age7_trial1.png","false","false","https://kisumu-drawings.s3-us-west-1.amazonaws.com/tracings/S76_age7_trial1.png","5"
"","1447","image-button-response","41","null","145636","689b8a7a4faa850af7a40460","689bb01cb1407741d29976eb","5f8cbc5c355ea745e6cef2ca","1","S94_age8_trial1.png","false","false","https://kisumu-drawings.s3-us-west-1.amazonaws.com/tracings/S94_age8_trial1.png","5"
"","1465","image-button-response","42","null","147602","689b8a7a4faa850af7a40460","689bb01cb1407741d29976eb","5f8cbc5c355ea745e6cef2ca","2","S57_age6_trial2.png","false","false","https://kisumu-drawings.s3-us-west-1.amazonaws.com/tracings/S57_age6_trial2.png","5"
"","998","image-button-response","43","null","149113","689b8a7a4faa850af7a40460","689bb01cb1407741d29976eb","5f8cbc5c355ea745e6cef2ca","1","S75_age7_trial1.png","false","false","https://kisumu-drawings.s3-us-west-1.amazonaws.com/tracings/S75_age7_trial1.png","5"
"","2116","image-button-response","44","null","151731","689b8a7a4faa850af7a40460","689bb01cb1407741d29976eb","5f8cbc5c355ea745e6cef2ca","2","","true","false","stimuli/catch_trials/catch_trial.png","1"
"","2774","image-button-response","45","null","155009","689b8a7a4faa850af7a40460","689bb01cb1407741d29976eb","5f8cbc5c355ea745e6cef2ca","3","S35_age5_trial3.png","false","false","https://kisumu-drawings.s3-us-west-1.amazonaws.com/tracings/S35_age5_trial3.png","3"
"","2015","image-button-response","46","null","157525","689b8a7a4faa850af7a40460","689bb01cb1407741d29976eb","5f8cbc5c355ea745e6cef2ca","4","S77_age7_trial4.png","false","false","https://kisumu-drawings.s3-us-west-1.amazonaws.com/tracings/S77_age7_trial4.png","4"
"","2885","image-button-response","47","null","160918","689b8a7a4faa850af7a40460","689bb01cb1407741d29976eb","5f8cbc5c355ea745e6cef2ca","5","S80_age7_trial5.png","false","false","https://kisumu-drawings.s3-us-west-1.amazonaws.com/tracings/S80_age7_trial5.png","4"
"","1628","image-button-response","48","null","163048","689b8a7a4faa850af7a40460","689bb01cb1407741d29976eb","5f8cbc5c355ea745e6cef2ca","1","S6_age4_trial1.png","false","false","https://kisumu-drawings.s3-us-west-1.amazonaws.com/tracings/S6_age4_trial1.png","2"
"","3220","image-button-response","49","null","166770","689b8a7a4faa850af7a40460","689bb01cb1407741d29976eb","5f8cbc5c355ea745e6cef2ca","5","S4_age4_trial5.png","false","false","https://kisumu-drawings.s3-us-west-1.amazonaws.com/tracings/S4_age4_trial5.png","2"
"","1762","image-button-response","50","null","169047","689b8a7a4faa850af7a40460","689bb01cb1407741d29976eb","5f8cbc5c355ea745e6cef2ca","2","S77_age7_trial2.png","false","false","https://kisumu-drawings.s3-us-west-1.amazonaws.com/tracings/S77_age7_trial2.png","3"
"","1780","image-button-response","51","null","171329","689b8a7a4faa850af7a40460","689bb01cb1407741d29976eb","5f8cbc5c355ea745e6cef2ca","4","S117_age9_trial4.png","false","false","https://kisumu-drawings.s3-us-west-1.amazonaws.com/tracings/S117_age9_trial4.png","5"
"","1626","image-button-response","52","null","173456","689b8a7a4faa850af7a40460","689bb01cb1407741d29976eb","5f8cbc5c355ea745e6cef2ca","4","S98_age8_trial4.png","false","false","https://kisumu-drawings.s3-us-west-1.amazonaws.com/tracings/S98_age8_trial4.png","4"
"","3422","image-button-response","53","null","177380","689b8a7a4faa850af7a40460","689bb01cb1407741d29976eb","5f8cbc5c355ea745e6cef2ca","5","S35_age5_trial5.png","false","false","https://kisumu-drawings.s3-us-west-1.amazonaws.com/tracings/S35_age5_trial5.png","3"
"","2124","image-button-response","54","null","180006","689b8a7a4faa850af7a40460","689bb01cb1407741d29976eb","5f8cbc5c355ea745e6cef2ca","1","S38_age5_trial1.png","false","false","https://kisumu-drawings.s3-us-west-1.amazonaws.com/tracings/S38_age5_trial1.png","4"
"","2108","image-button-response","55","null","182617","689b8a7a4faa850af7a40460","689bb01cb1407741d29976eb","5f8cbc5c355ea745e6cef2ca","5","S5_age4_trial5.png","false","false","https://kisumu-drawings.s3-us-west-1.amazonaws.com/tracings/S5_age4_trial5.png","2"
"","1447","image-button-response","56","null","184564","689b8a7a4faa850af7a40460","689bb01cb1407741d29976eb","5f8cbc5c355ea745e6cef2ca","2","S116_age9_trial2.png","false","false","https://kisumu-drawings.s3-us-west-1.amazonaws.com/tracings/S116_age9_trial2.png","3"
"","2443","image-button-response","57","null","187510","689b8a7a4faa850af7a40460","689bb01cb1407741d29976eb","5f8cbc5c355ea745e6cef2ca","4","S8_age4_trial4.png","false","false","https://kisumu-drawings.s3-us-west-1.amazonaws.com/tracings/S8_age4_trial4.png","2"
"","2254","image-button-response","58","null","190266","689b8a7a4faa850af7a40460","689bb01cb1407741d29976eb","5f8cbc5c355ea745e6cef2ca","3","S6_age4_trial3.png","false","false","https://kisumu-drawings.s3-us-west-1.amazonaws.com/tracings/S6_age4_trial3.png","2"
"","2075","image-button-response","59","null","192852","689b8a7a4faa850af7a40460","689bb01cb1407741d29976eb","5f8cbc5c355ea745e6cef2ca","3","S3_age4_trial3.png","false","false","https://kisumu-drawings.s3-us-west-1.amazonaws.com/tracings/S3_age4_trial3.png","2"
"","1915","image-button-response","60","null","195275","689b8a7a4faa850af7a40460","689bb01cb1407741d29976eb","5f8cbc5c355ea745e6cef2ca","5","S59_age6_trial5.png","false","false","https://kisumu-drawings.s3-us-west-1.amazonaws.com/tracings/S59_age6_trial5.png","2"
"","1800","image-button-response","61","null","197577","689b8a7a4faa850af7a40460","689bb01cb1407741d29976eb","5f8cbc5c355ea745e6cef2ca","3","S77_age7_trial3.png","false","false","https://kisumu-drawings.s3-us-west-1.amazonaws.com/tracings/S77_age7_trial3.png","4"
