"view_history","rt","trial_type","trial_index","plugin_version","time_elapsed","study_id","session_id","participant_id","tracing_type","tracing_id","catch_trial","prep_trial","stimulus","response"
"[{""page_index"":0,""viewing_time"":6852},{""page_index"":1,""viewing_time"":13300},{""page_index"":2,""viewing_time"":7925},{""page_index"":3,""viewing_time"":3592},{""page_index"":4,""viewing_time"":9321}]","40990","instructions","0","null","40998","689b8a7a4faa850af7a40460","689b90ea3f2655a1474ba7f1","608437f0b139060610c9f0c1","","","","","",""
"","14658","image-button-response","1","null","56662","689b8a7a4faa850af7a40460","689b90ea3f2655a1474ba7f1","608437f0b139060610c9f0c1","3","S119_age9_trial3.png","false","false","https://kisumu-drawings.s3-us-west-1.amazonaws.com/tracings/S119_age9_trial3.png","5"
"","5444","image-button-response","2","null","62618","689b8a7a4faa850af7a40460","689b90ea3f2655a1474ba7f1","608437f0b139060610c9f0c1","1","S35_age5_trial1.png","false","false","https://kisumu-drawings.s3-us-west-1.amazonaws.com/tracings/S35_age5_trial1.png","5"
"","2609","image-button-response","3","null","65743","689b8a7a4faa850af7a40460","689b90ea3f2655a1474ba7f1","608437f0b139060610c9f0c1","3","S60_age6_trial3.png","false","false","https://kisumu-drawings.s3-us-west-1.amazonaws.com/tracings/S60_age6_trial3.png","4"
"","2651","image-button-response","4","null","68897","689b8a7a4faa850af7a40460","689b90ea3f2655a1474ba7f1","608437f0b139060610c9f0c1","1","S76_age7_trial1.png","false","false","https://kisumu-drawings.s3-us-west-1.amazonaws.com/tracings/S76_age7_trial1.png","5"
"","4546","image-button-response","5","null","73957","689b8a7a4faa850af7a40460","689b90ea3f2655a1474ba7f1","608437f0b139060610c9f0c1","5","S60_age6_trial5.png","false","false","https://kisumu-drawings.s3-us-west-1.amazonaws.com/tracings/S60_age6_trial5.png","5"
"","1238","image-button-response","6","null","75699","689b8a7a4faa850af7a40460","689b90ea3f2655a1474ba7f1","608437f0b139060610c9f0c1","2","S57_age6_trial2.png","false","false","https://kisumu-drawings.s3-us-west-1.amazonaws.com/tracings/S57_age6_trial2.png","5"
"","1936","image-button-response","7","null","78145","689b8a7a4faa850af7a40460","689b90ea3f2655a1474ba7f1","608437f0b139060610c9f0c1","3","S74_age7_trial3.png","false","false","https://kisumu-drawings.s3-us-west-1.amazonaws.com/tracings/S74_age7_trial3.png","4"
"","1483","image-button-response","8","null","80132","689b8a7a4faa850af7a40460","689b90ea3f2655a1474ba7f1","608437f0b139060610c9f0c1","2","S6_age4_trial2.png","false","false","https://kisumu-drawings.s3-us-west-1.amazonaws.com/tracings/S6_age4_trial2.png","4"
"","2686","image-button-response","9","null","83324","689b8a7a4faa850af7a40460","689b90ea3f2655a1474ba7f1","608437f0b139060610c9f0c1","4","S119_age9_trial4.png","false","false","https://kisumu-drawings.s3-us-west-1.amazonaws.com/tracings/S119_age9_trial4.png","5"
"","1664","image-button-response","10","null","85494","689b8a7a4faa850af7a40460","689b90ea3f2655a1474ba7f1","608437f0b139060610c9f0c1","4","S33_age5_trial4.png","false","false","https://kisumu-drawings.s3-us-west-1.amazonaws.com/tracings/S33_age5_trial4.png","3"
"","1797","image-button-response","11","null","87806","689b8a7a4faa850af7a40460","689b90ea3f2655a1474ba7f1","608437f0b139060610c9f0c1","4","S60_age6_trial4.png","false","false","https://kisumu-drawings.s3-us-west-1.amazonaws.com/tracings/S60_age6_trial4.png","5"
"","1589","image-button-response","12","null","89896","689b8a7a4faa850af7a40460","689b90ea3f2655a1474ba7f1","608437f0b139060610c9f0c1","5","S96_age8_trial5.png","false","false","https://kisumu-drawings.s3-us-west-1.amazonaws.com/tracings/S96_age8_trial5.png","5"
"","1268","image-button-response","13","null","91675","689b8a7a4faa850af7a40460","689b90ea3f2655a1474ba7f1","608437f0b139060610c9f0c1","5","S40_age5_trial5.png","false","false","https://kisumu-drawings.s3-us-west-1.amazonaws.com/tracings/S40_age5_trial5.png","5"
"","2066","image-button-response","14","null","94251","689b8a7a4faa850af7a40460","689b90ea3f2655a1474ba7f1","608437f0b139060610c9f0c1","5","S118_age9_trial5.png","false","false","https://kisumu-drawings.s3-us-west-1.amazonaws.com/tracings/S118_age9_trial5.png","3"
"","2187","image-button-response","15","null","96947","689b8a7a4faa850af7a40460","689b90ea3f2655a1474ba7f1","608437f0b139060610c9f0c1","1","S34_age5_trial1.png","false","false","https://kisumu-drawings.s3-us-west-1.amazonaws.com/tracings/S34_age5_trial1.png","3"
"","3719","image-button-response","16","null","101176","689b8a7a4faa850af7a40460","689b90ea3f2655a1474ba7f1","608437f0b139060610c9f0c1","4","S96_age8_trial4.png","false","false","https://kisumu-drawings.s3-us-west-1.amazonaws.com/tracings/S96_age8_trial4.png","5"
"","2227","image-button-response","17","null","103911","689b8a7a4faa850af7a40460","689b90ea3f2655a1474ba7f1","608437f0b139060610c9f0c1","4","S2_age4_trial4.png","false","false","https://kisumu-drawings.s3-us-west-1.amazonaws.com/tracings/S2_age4_trial4.png","2"
"","1978","image-button-response","18","null","106406","689b8a7a4faa850af7a40460","689b90ea3f2655a1474ba7f1","608437f0b139060610c9f0c1","5","S35_age5_trial5.png","false","false","https://kisumu-drawings.s3-us-west-1.amazonaws.com/tracings/S35_age5_trial5.png","3"
"","1492","image-button-response","19","null","108412","689b8a7a4faa850af7a40460","689b90ea3f2655a1474ba7f1","608437f0b139060610c9f0c1","3","S97_age8_trial3.png","false","false","https://kisumu-drawings.s3-us-west-1.amazonaws.com/tracings/S97_age8_trial3.png","2"
"","2013","image-button-response","20","null","110930","689b8a7a4faa850af7a40460","689b90ea3f2655a1474ba7f1","608437f0b139060610c9f0c1","5","S78_age7_trial5.png","false","false","https://kisumu-drawings.s3-us-west-1.amazonaws.com/tracings/S78_age7_trial5.png","3"
"","1777","image-button-response","21","null","113210","689b8a7a4faa850af7a40460","689b90ea3f2655a1474ba7f1","608437f0b139060610c9f0c1","4","S95_age8_trial4.png","false","false","https://kisumu-drawings.s3-us-west-1.amazonaws.com/tracings/S95_age8_trial4.png","4"
"","34231","image-button-response","22","null","147956","689b8a7a4faa850af7a40460","689b90ea3f2655a1474ba7f1","608437f0b139060610c9f0c1","5","S95_age8_trial5.png","false","false","https://kisumu-drawings.s3-us-west-1.amazonaws.com/tracings/S95_age8_trial5.png","5"
"","8742","image-button-response","23","null","157208","689b8a7a4faa850af7a40460","689b90ea3f2655a1474ba7f1","608437f0b139060610c9f0c1","5","S5_age4_trial5.png","false","false","https://kisumu-drawings.s3-us-west-1.amazonaws.com/tracings/S5_age4_trial5.png","4"
"","6242","image-button-response","24","null","163963","689b8a7a4faa850af7a40460","689b90ea3f2655a1474ba7f1","608437f0b139060610c9f0c1","2","S5_age4_trial2.png","false","false","https://kisumu-drawings.s3-us-west-1.amazonaws.com/tracings/S5_age4_trial2.png","3"
"","11062","image-button-response","25","null","175528","689b8a7a4faa850af7a40460","689b90ea3f2655a1474ba7f1","608437f0b139060610c9f0c1","2","S40_age5_trial2.png","false","false","https://kisumu-drawings.s3-us-west-1.amazonaws.com/tracings/S40_age5_trial2.png","4"
"","5825","image-button-response","26","null","181866","689b8a7a4faa850af7a40460","689b90ea3f2655a1474ba7f1","608437f0b139060610c9f0c1","1","S6_age4_trial1.png","false","false","https://kisumu-drawings.s3-us-west-1.amazonaws.com/tracings/S6_age4_trial1.png","1"
"","2729","image-button-response","27","null","185110","689b8a7a4faa850af7a40460","689b90ea3f2655a1474ba7f1","608437f0b139060610c9f0c1","1","S57_age6_trial1.png","false","false","https://kisumu-drawings.s3-us-west-1.amazonaws.com/tracings/S57_age6_trial1.png","2"
"","3859","image-button-response","28","null","189482","689b8a7a4faa850af7a40460","689b90ea3f2655a1474ba7f1","608437f0b139060610c9f0c1","2","S119_age9_trial2.png","false","false","https://kisumu-drawings.s3-us-west-1.amazonaws.com/tracings/S119_age9_trial2.png","2"
"","2504","image-button-response","29","null","192490","689b8a7a4faa850af7a40460","689b90ea3f2655a1474ba7f1","608437f0b139060610c9f0c1","3","S5_age4_trial3.png","false","false","https://kisumu-drawings.s3-us-west-1.amazonaws.com/tracings/S5_age4_trial3.png","1"
"","2130","image-button-response","30","null","195129","689b8a7a4faa850af7a40460","689b90ea3f2655a1474ba7f1","608437f0b139060610c9f0c1","3","S57_age6_trial3.png","false","false","https://kisumu-drawings.s3-us-west-1.amazonaws.com/tracings/S57_age6_trial3.png","1"
"","2133","image-button-response","31","null","197765","689b8a7a4faa850af7a40460","689b90ea3f2655a1474ba7f1","608437f0b139060610c9f0c1","2","S75_age7_trial2.png","false","false","https://kisumu-drawings.s3-us-west-1.amazonaws.com/tracings/S75_age7_trial2.png","2"
"","2072","image-button-response","32","null","200352","689b8a7a4faa850af7a40460","689b90ea3f2655a1474ba7f1","608437f0b139060610c9f0c1","1","S96_age8_trial1.png","false","false","https://kisumu-drawings.s3-us-west-1.amazonaws.com/tracings/S96_age8_trial1.png","2"
"","1581","image-button-response","33","null","202440","689b8a7a4faa850af7a40460","689b90ea3f2655a1474ba7f1","608437f0b139060610c9f0c1","5","S75_age7_trial5.png","false","false","https://kisumu-drawings.s3-us-west-1.amazonaws.com/tracings/S75_age7_trial5.png","3"
"","3638","image-button-response","34","null","206584","689b8a7a4faa850af7a40460","689b90ea3f2655a1474ba7f1","608437f0b139060610c9f0c1","4","S57_age6_trial4.png","false","false","https://kisumu-drawings.s3-us-west-1.amazonaws.com/tracings/S57_age6_trial4.png","2"
"","1583","image-button-response","35","null","208680","689b8a7a4faa850af7a40460","689b90ea3f2655a1474ba7f1","608437f0b139060610c9f0c1","5","S56_age6_trial5.png","false","false","https://kisumu-drawings.s3-us-west-1.amazonaws.com/tracings/S56_age6_trial5.png","2"
"","1907","image-button-response","36","null","211102","689b8a7a4faa850af7a40460","689b90ea3f2655a1474ba7f1","608437f0b139060610c9f0c1","1","S118_age9_trial1.png","false","false","https://kisumu-drawings.s3-us-west-1.amazonaws.com/tracings/S118_age9_trial1.png","2"
"","1547","image-button-response","37","null","213153","689b8a7a4faa850af7a40460","689b90ea3f2655a1474ba7f1","608437f0b139060610c9f0c1","3","S33_age5_trial3.png","false","false","https://kisumu-drawings.s3-us-west-1.amazonaws.com/tracings/S33_age5_trial3.png","1"
"","2471","image-button-response","38","null","216127","689b8a7a4faa850af7a40460","689b90ea3f2655a1474ba7f1","608437f0b139060610c9f0c1","1","S97_age8_trial1.png","false","false","https://kisumu-drawings.s3-us-west-1.amazonaws.com/tracings/S97_age8_trial1.png","4"
"","2743","image-button-response","39","null","219384","689b8a7a4faa850af7a40460","689b90ea3f2655a1474ba7f1","608437f0b139060610c9f0c1","2","","true","false","stimuli/catch_trials/catch_trial.png","1"
"","2374","image-button-response","40","null","222263","689b8a7a4faa850af7a40460","689b90ea3f2655a1474ba7f1","608437f0b139060610c9f0c1","3","S34_age5_trial3.png","false","false","https://kisumu-drawings.s3-us-west-1.amazonaws.com/tracings/S34_age5_trial3.png","2"
"","1314","image-button-response","41","null","224082","689b8a7a4faa850af7a40460","689b90ea3f2655a1474ba7f1","608437f0b139060610c9f0c1","3","S6_age4_trial3.png","false","false","https://kisumu-drawings.s3-us-west-1.amazonaws.com/tracings/S6_age4_trial3.png","2"
"","1177","image-button-response","42","null","225766","689b8a7a4faa850af7a40460","689b90ea3f2655a1474ba7f1","608437f0b139060610c9f0c1","4","S34_age5_trial4.png","false","false","https://kisumu-drawings.s3-us-west-1.amazonaws.com/tracings/S34_age5_trial4.png","2"
"","1324","image-button-response","43","null","227595","689b8a7a4faa850af7a40460","689b90ea3f2655a1474ba7f1","608437f0b139060610c9f0c1","3","S120_age9_trial3.png","false","false","https://kisumu-drawings.s3-us-west-1.amazonaws.com/tracings/S120_age9_trial3.png","2"
"","1743","image-button-response","44","null","229847","689b8a7a4faa850af7a40460","689b90ea3f2655a1474ba7f1","608437f0b139060610c9f0c1","2","S96_age8_trial2.png","false","false","https://kisumu-drawings.s3-us-west-1.amazonaws.com/tracings/S96_age8_trial2.png","3"
"","1424","image-button-response","45","null","231787","689b8a7a4faa850af7a40460","689b90ea3f2655a1474ba7f1","608437f0b139060610c9f0c1","2","S97_age8_trial2.png","false","false","https://kisumu-drawings.s3-us-west-1.amazonaws.com/tracings/S97_age8_trial2.png","1"
"","1690","image-button-response","46","null","233990","689b8a7a4faa850af7a40460","689b90ea3f2655a1474ba7f1","608437f0b139060610c9f0c1","1","S75_age7_trial1.png","false","false","https://kisumu-drawings.s3-us-west-1.amazonaws.com/tracings/S75_age7_trial1.png","2"
"","1263","image-button-response","47","null","235768","689b8a7a4faa850af7a40460","689b90ea3f2655a1474ba7f1","608437f0b139060610c9f0c1","2","S35_age5_trial2.png","false","false","https://kisumu-drawings.s3-us-west-1.amazonaws.com/tracings/S35_age5_trial2.png","2"
"","1574","image-button-response","48","null","237858","689b8a7a4faa850af7a40460","689b90ea3f2655a1474ba7f1","608437f0b139060610c9f0c1","4","S5_age4_trial4.png","false","false","https://kisumu-drawings.s3-us-west-1.amazonaws.com/tracings/S5_age4_trial4.png","1"
"","1501","image-button-response","49","null","239869","689b8a7a4faa850af7a40460","689b90ea3f2655a1474ba7f1","608437f0b139060610c9f0c1","2","S118_age9_trial2.png","false","false","https://kisumu-drawings.s3-us-west-1.amazonaws.com/tracings/S118_age9_trial2.png","2"
"","1985","image-button-response","50","null","242369","689b8a7a4faa850af7a40460","689b90ea3f2655a1474ba7f1","608437f0b139060610c9f0c1","1","S5_age4_trial1.png","false","false","https://kisumu-drawings.s3-us-west-1.amazonaws.com/tracings/S5_age4_trial1.png","1"
"","1676","image-button-response","51","null","244549","689b8a7a4faa850af7a40460","689b90ea3f2655a1474ba7f1","608437f0b139060610c9f0c1","5","S6_age4_trial5.png","false","false","https://kisumu-drawings.s3-us-west-1.amazonaws.com/tracings/S6_age4_trial5.png","1"
"","1328","image-button-response","52","null","246383","689b8a7a4faa850af7a40460","689b90ea3f2655a1474ba7f1","608437f0b139060610c9f0c1","2","S76_age7_trial2.png","false","false","https://kisumu-drawings.s3-us-west-1.amazonaws.com/tracings/S76_age7_trial2.png","1"
"","1797","image-button-response","53","null","248688","689b8a7a4faa850af7a40460","689b90ea3f2655a1474ba7f1","608437f0b139060610c9f0c1","2","S58_age6_trial2.png","false","false","https://kisumu-drawings.s3-us-west-1.amazonaws.com/tracings/S58_age6_trial2.png","2"
"","1450","image-button-response","54","null","250652","689b8a7a4faa850af7a40460","689b90ea3f2655a1474ba7f1","608437f0b139060610c9f0c1","1","S56_age6_trial1.png","false","false","https://kisumu-drawings.s3-us-west-1.amazonaws.com/tracings/S56_age6_trial1.png","2"
"","1408","image-button-response","55","null","252566","689b8a7a4faa850af7a40460","689b90ea3f2655a1474ba7f1","608437f0b139060610c9f0c1","4","S80_age7_trial4.png","false","false","https://kisumu-drawings.s3-us-west-1.amazonaws.com/tracings/S80_age7_trial4.png","1"
"","1391","image-button-response","56","null","254462","689b8a7a4faa850af7a40460","689b90ea3f2655a1474ba7f1","608437f0b139060610c9f0c1","3","S75_age7_trial3.png","false","false","https://kisumu-drawings.s3-us-west-1.amazonaws.com/tracings/S75_age7_trial3.png","2"
"","1889","image-button-response","57","null","256862","689b8a7a4faa850af7a40460","689b90ea3f2655a1474ba7f1","608437f0b139060610c9f0c1","3","S96_age8_trial3.png","false","false","https://kisumu-drawings.s3-us-west-1.amazonaws.com/tracings/S96_age8_trial3.png","3"
"","3095","image-button-response","58","null","260462","689b8a7a4faa850af7a40460","689b90ea3f2655a1474ba7f1","608437f0b139060610c9f0c1","4","S120_age9_trial4.png","false","false","https://kisumu-drawings.s3-us-west-1.amazonaws.com/tracings/S120_age9_trial4.png","3"
"","1401","image-button-response","59","null","262372","689b8a7a4faa850af7a40460","689b90ea3f2655a1474ba7f1","608437f0b139060610c9f0c1","1","S119_age9_trial1.png","false","false","https://kisumu-drawings.s3-us-west-1.amazonaws.com/tracings/S119_age9_trial1.png","2"
"","1422","image-button-response","60","null","264309","689b8a7a4faa850af7a40460","689b90ea3f2655a1474ba7f1","608437f0b139060610c9f0c1","4","S75_age7_trial4.png","false","false","https://kisumu-drawings.s3-us-west-1.amazonaws.com/tracings/S75_age7_trial4.png","2"
"","1316","image-button-response","61","null","266134","689b8a7a4faa850af7a40460","689b90ea3f2655a1474ba7f1","608437f0b139060610c9f0c1","5","S119_age9_trial5.png","false","false","https://kisumu-drawings.s3-us-west-1.amazonaws.com/tracings/S119_age9_trial5.png","2"
