"view_history","rt","trial_type","trial_index","plugin_version","time_elapsed","study_id","session_id","participant_id","tracing_type","tracing_id","catch_trial","prep_trial","stimulus","response"
"[{""page_index"":0,""viewing_time"":5320},{""page_index"":1,""viewing_time"":3098},{""page_index"":2,""viewing_time"":6348},{""page_index"":3,""viewing_time"":6288},{""page_index"":4,""viewing_time"":10492}]","31546","instructions","0","null","31568","689b8a7a4faa850af7a40460","689badea93269c2a2d5061bc","60ca4cfb5c287146cad0695a","","","","","",""
"","9976","image-button-response","1","null","42556","689b8a7a4faa850af7a40460","689badea93269c2a2d5061bc","60ca4cfb5c287146cad0695a","2","S59_age6_trial2.png","false","false","https://kisumu-drawings.s3-us-west-1.amazonaws.com/tracings/S59_age6_trial2.png","4"
"","5230","image-button-response","2","null","48292","689b8a7a4faa850af7a40460","689badea93269c2a2d5061bc","60ca4cfb5c287146cad0695a","4","S40_age5_trial4.png","false","false","https://kisumu-drawings.s3-us-west-1.amazonaws.com/tracings/S40_age5_trial4.png","4"
"","6314","image-button-response","3","null","55112","689b8a7a4faa850af7a40460","689badea93269c2a2d5061bc","60ca4cfb5c287146cad0695a","5","S57_age6_trial5.png","false","false","https://kisumu-drawings.s3-us-west-1.amazonaws.com/tracings/S57_age6_trial5.png","5"
"","4481","image-button-response","4","null","60098","689b8a7a4faa850af7a40460","689badea93269c2a2d5061bc","60ca4cfb5c287146cad0695a","5","S34_age5_trial5.png","false","false","https://kisumu-drawings.s3-us-west-1.amazonaws.com/tracings/S34_age5_trial5.png","4"
"","3727","image-button-response","5","null","64331","689b8a7a4faa850af7a40460","689badea93269c2a2d5061bc","60ca4cfb5c287146cad0695a","3","S38_age5_trial3.png","false","false","https://kisumu-drawings.s3-us-west-1.amazonaws.com/tracings/S38_age5_trial3.png","4"
"","3727","image-button-response","6","null","68563","689b8a7a4faa850af7a40460","689badea93269c2a2d5061bc","60ca4cfb5c287146cad0695a","5","S94_age8_trial5.png","false","false","https://kisumu-drawings.s3-us-west-1.amazonaws.com/tracings/S94_age8_trial5.png","5"
"","4277","image-button-response","7","null","73346","689b8a7a4faa850af7a40460","689badea93269c2a2d5061bc","60ca4cfb5c287146cad0695a","5","S7_age4_trial5.png","false","false","https://kisumu-drawings.s3-us-west-1.amazonaws.com/tracings/S7_age4_trial5.png","4"
"","3386","image-button-response","8","null","77239","689b8a7a4faa850af7a40460","689badea93269c2a2d5061bc","60ca4cfb5c287146cad0695a","4","S58_age6_trial4.png","false","false","https://kisumu-drawings.s3-us-west-1.amazonaws.com/tracings/S58_age6_trial4.png","5"
"","2974","image-button-response","9","null","80719","689b8a7a4faa850af7a40460","689badea93269c2a2d5061bc","60ca4cfb5c287146cad0695a","2","S96_age8_trial2.png","false","false","https://kisumu-drawings.s3-us-west-1.amazonaws.com/tracings/S96_age8_trial2.png","5"
"","7417","image-button-response","10","null","88641","689b8a7a4faa850af7a40460","689badea93269c2a2d5061bc","60ca4cfb5c287146cad0695a","2","S3_age4_trial2.png","false","false","https://kisumu-drawings.s3-us-west-1.amazonaws.com/tracings/S3_age4_trial2.png","2"
"","5039","image-button-response","11","null","94186","689b8a7a4faa850af7a40460","689badea93269c2a2d5061bc","60ca4cfb5c287146cad0695a","3","S40_age5_trial3.png","false","false","https://kisumu-drawings.s3-us-west-1.amazonaws.com/tracings/S40_age5_trial3.png","4"
"","4161","image-button-response","12","null","98850","689b8a7a4faa850af7a40460","689badea93269c2a2d5061bc","60ca4cfb5c287146cad0695a","4","S78_age7_trial4.png","false","false","https://kisumu-drawings.s3-us-west-1.amazonaws.com/tracings/S78_age7_trial4.png","5"
"","3587","image-button-response","13","null","102942","689b8a7a4faa850af7a40460","689badea93269c2a2d5061bc","60ca4cfb5c287146cad0695a","3","S116_age9_trial3.png","false","false","https://kisumu-drawings.s3-us-west-1.amazonaws.com/tracings/S116_age9_trial3.png","5"
"","4099","image-button-response","14","null","107546","689b8a7a4faa850af7a40460","689badea93269c2a2d5061bc","60ca4cfb5c287146cad0695a","1","S55_age6_trial1.png","false","false","https://kisumu-drawings.s3-us-west-1.amazonaws.com/tracings/S55_age6_trial1.png","4"
"","2721","image-button-response","15","null","110771","689b8a7a4faa850af7a40460","689badea93269c2a2d5061bc","60ca4cfb5c287146cad0695a","1","S96_age8_trial1.png","false","false","https://kisumu-drawings.s3-us-west-1.amazonaws.com/tracings/S96_age8_trial1.png","5"
"","4341","image-button-response","16","null","115617","689b8a7a4faa850af7a40460","689badea93269c2a2d5061bc","60ca4cfb5c287146cad0695a","4","S97_age8_trial4.png","false","false","https://kisumu-drawings.s3-us-west-1.amazonaws.com/tracings/S97_age8_trial4.png","3"
"","4030","image-button-response","17","null","120151","689b8a7a4faa850af7a40460","689badea93269c2a2d5061bc","60ca4cfb5c287146cad0695a","4","S39_age5_trial4.png","false","false","https://kisumu-drawings.s3-us-west-1.amazonaws.com/tracings/S39_age5_trial4.png","2"
"","3759","image-button-response","18","null","124414","689b8a7a4faa850af7a40460","689badea93269c2a2d5061bc","60ca4cfb5c287146cad0695a","2","S99_age8_trial2.png","false","false","https://kisumu-drawings.s3-us-west-1.amazonaws.com/tracings/S99_age8_trial2.png","5"
"","3337","image-button-response","19","null","128256","689b8a7a4faa850af7a40460","689badea93269c2a2d5061bc","60ca4cfb5c287146cad0695a","2","S6_age4_trial2.png","false","false","https://kisumu-drawings.s3-us-west-1.amazonaws.com/tracings/S6_age4_trial2.png","4"
"","3913","image-button-response","20","null","132688","689b8a7a4faa850af7a40460","689badea93269c2a2d5061bc","60ca4cfb5c287146cad0695a","4","S117_age9_trial4.png","false","false","https://kisumu-drawings.s3-us-west-1.amazonaws.com/tracings/S117_age9_trial4.png","5"
"","3519","image-button-response","21","null","136711","689b8a7a4faa850af7a40460","689badea93269c2a2d5061bc","60ca4cfb5c287146cad0695a","2","S117_age9_trial2.png","false","false","https://kisumu-drawings.s3-us-west-1.amazonaws.com/tracings/S117_age9_trial2.png","5"
"","6976","image-button-response","22","null","144192","689b8a7a4faa850af7a40460","689badea93269c2a2d5061bc","60ca4cfb5c287146cad0695a","3","S7_age4_trial3.png","false","false","https://kisumu-drawings.s3-us-west-1.amazonaws.com/tracings/S7_age4_trial3.png","4"
"","3102","image-button-response","23","null","147800","689b8a7a4faa850af7a40460","689badea93269c2a2d5061bc","60ca4cfb5c287146cad0695a","3","S95_age8_trial3.png","false","false","https://kisumu-drawings.s3-us-west-1.amazonaws.com/tracings/S95_age8_trial3.png","5"
"","4431","image-button-response","24","null","152736","689b8a7a4faa850af7a40460","689badea93269c2a2d5061bc","60ca4cfb5c287146cad0695a","1","S9_age4_trial1.png","false","false","https://kisumu-drawings.s3-us-west-1.amazonaws.com/tracings/S9_age4_trial1.png","3"
"","3424","image-button-response","25","null","156666","689b8a7a4faa850af7a40460","689badea93269c2a2d5061bc","60ca4cfb5c287146cad0695a","1","S119_age9_trial1.png","false","false","https://kisumu-drawings.s3-us-west-1.amazonaws.com/tracings/S119_age9_trial1.png","5"
"","7948","image-button-response","26","null","165118","689b8a7a4faa850af7a40460","689badea93269c2a2d5061bc","60ca4cfb5c287146cad0695a","2","","true","false","stimuli/catch_trials/catch_trial.png","1"
"","4189","image-button-response","27","null","169811","689b8a7a4faa850af7a40460","689badea93269c2a2d5061bc","60ca4cfb5c287146cad0695a","1","S8_age4_trial1.png","false","false","https://kisumu-drawings.s3-us-west-1.amazonaws.com/tracings/S8_age4_trial1.png","3"
"","13274","image-button-response","28","null","183589","689b8a7a4faa850af7a40460","689badea93269c2a2d5061bc","60ca4cfb5c287146cad0695a","3","S76_age7_trial3.png","false","false","https://kisumu-drawings.s3-us-west-1.amazonaws.com/tracings/S76_age7_trial3.png","4"
"","5804","image-button-response","29","null","189898","689b8a7a4faa850af7a40460","689badea93269c2a2d5061bc","60ca4cfb5c287146cad0695a","3","S120_age9_trial3.png","false","false","https://kisumu-drawings.s3-us-west-1.amazonaws.com/tracings/S120_age9_trial3.png","4"
"","4016","image-button-response","30","null","194419","689b8a7a4faa850af7a40460","689badea93269c2a2d5061bc","60ca4cfb5c287146cad0695a","1","S79_age7_trial1.png","false","false","https://kisumu-drawings.s3-us-west-1.amazonaws.com/tracings/S79_age7_trial1.png","5"
"","5794","image-button-response","31","null","200717","689b8a7a4faa850af7a40460","689badea93269c2a2d5061bc","60ca4cfb5c287146cad0695a","5","S118_age9_trial5.png","false","false","https://kisumu-drawings.s3-us-west-1.amazonaws.com/tracings/S118_age9_trial5.png","4"
"","2893","image-button-response","32","null","204115","689b8a7a4faa850af7a40460","689badea93269c2a2d5061bc","60ca4cfb5c287146cad0695a","1","S40_age5_trial1.png","false","false","https://kisumu-drawings.s3-us-west-1.amazonaws.com/tracings/S40_age5_trial1.png","5"
"","3695","image-button-response","33","null","208316","689b8a7a4faa850af7a40460","689badea93269c2a2d5061bc","60ca4cfb5c287146cad0695a","4","S119_age9_trial4.png","false","false","https://kisumu-drawings.s3-us-west-1.amazonaws.com/tracings/S119_age9_trial4.png","5"
"","4278","image-button-response","34","null","213099","689b8a7a4faa850af7a40460","689badea93269c2a2d5061bc","60ca4cfb5c287146cad0695a","5","S80_age7_trial5.png","false","false","https://kisumu-drawings.s3-us-west-1.amazonaws.com/tracings/S80_age7_trial5.png","5"
"","3216","image-button-response","35","null","216819","689b8a7a4faa850af7a40460","689badea93269c2a2d5061bc","60ca4cfb5c287146cad0695a","5","S3_age4_trial5.png","false","false","https://kisumu-drawings.s3-us-west-1.amazonaws.com/tracings/S3_age4_trial5.png","2"
"","3386","image-button-response","36","null","220710","689b8a7a4faa850af7a40460","689badea93269c2a2d5061bc","60ca4cfb5c287146cad0695a","3","S5_age4_trial3.png","false","false","https://kisumu-drawings.s3-us-west-1.amazonaws.com/tracings/S5_age4_trial3.png","3"
"","4600","image-button-response","37","null","225815","689b8a7a4faa850af7a40460","689badea93269c2a2d5061bc","60ca4cfb5c287146cad0695a","3","S54_age6_trial3.png","false","false","https://kisumu-drawings.s3-us-west-1.amazonaws.com/tracings/S54_age6_trial3.png","4"
"","4247","image-button-response","38","null","230567","689b8a7a4faa850af7a40460","689badea93269c2a2d5061bc","60ca4cfb5c287146cad0695a","5","S119_age9_trial5.png","false","false","https://kisumu-drawings.s3-us-west-1.amazonaws.com/tracings/S119_age9_trial5.png","5"
"","8129","image-button-response","39","null","239200","689b8a7a4faa850af7a40460","689badea93269c2a2d5061bc","60ca4cfb5c287146cad0695a","1","S99_age8_trial1.png","false","false","https://kisumu-drawings.s3-us-west-1.amazonaws.com/tracings/S99_age8_trial1.png","4"
"","4840","image-button-response","40","null","244544","689b8a7a4faa850af7a40460","689badea93269c2a2d5061bc","60ca4cfb5c287146cad0695a","2","S34_age5_trial2.png","false","false","https://kisumu-drawings.s3-us-west-1.amazonaws.com/tracings/S34_age5_trial2.png","3"
"","6143","image-button-response","41","null","251194","689b8a7a4faa850af7a40460","689badea93269c2a2d5061bc","60ca4cfb5c287146cad0695a","5","S35_age5_trial5.png","false","false","https://kisumu-drawings.s3-us-west-1.amazonaws.com/tracings/S35_age5_trial5.png","3"
"","3975","image-button-response","42","null","255674","689b8a7a4faa850af7a40460","689badea93269c2a2d5061bc","60ca4cfb5c287146cad0695a","1","S39_age5_trial1.png","false","false","https://kisumu-drawings.s3-us-west-1.amazonaws.com/tracings/S39_age5_trial1.png","2"
"","4080","image-button-response","43","null","260258","689b8a7a4faa850af7a40460","689badea93269c2a2d5061bc","60ca4cfb5c287146cad0695a","3","S58_age6_trial3.png","false","false","https://kisumu-drawings.s3-us-west-1.amazonaws.com/tracings/S58_age6_trial3.png","5"
"","5332","image-button-response","44","null","266095","689b8a7a4faa850af7a40460","689badea93269c2a2d5061bc","60ca4cfb5c287146cad0695a","2","S118_age9_trial2.png","false","false","https://kisumu-drawings.s3-us-west-1.amazonaws.com/tracings/S118_age9_trial2.png","5"
"","4028","image-button-response","45","null","270627","689b8a7a4faa850af7a40460","689badea93269c2a2d5061bc","60ca4cfb5c287146cad0695a","4","S75_age7_trial4.png","false","false","https://kisumu-drawings.s3-us-west-1.amazonaws.com/tracings/S75_age7_trial4.png","3"
"","5415","image-button-response","46","null","276545","689b8a7a4faa850af7a40460","689badea93269c2a2d5061bc","60ca4cfb5c287146cad0695a","1","S57_age6_trial1.png","false","false","https://kisumu-drawings.s3-us-west-1.amazonaws.com/tracings/S57_age6_trial1.png","5"
"","6728","image-button-response","47","null","283776","689b8a7a4faa850af7a40460","689badea93269c2a2d5061bc","60ca4cfb5c287146cad0695a","4","S6_age4_trial4.png","false","false","https://kisumu-drawings.s3-us-west-1.amazonaws.com/tracings/S6_age4_trial4.png","1"
"","4049","image-button-response","48","null","288328","689b8a7a4faa850af7a40460","689badea93269c2a2d5061bc","60ca4cfb5c287146cad0695a","1","S78_age7_trial1.png","false","false","https://kisumu-drawings.s3-us-west-1.amazonaws.com/tracings/S78_age7_trial1.png","5"
"","4523","image-button-response","49","null","293355","689b8a7a4faa850af7a40460","689badea93269c2a2d5061bc","60ca4cfb5c287146cad0695a","2","S79_age7_trial2.png","false","false","https://kisumu-drawings.s3-us-west-1.amazonaws.com/tracings/S79_age7_trial2.png","5"
"","10947","image-button-response","50","null","304806","689b8a7a4faa850af7a40460","689badea93269c2a2d5061bc","60ca4cfb5c287146cad0695a","4","S3_age4_trial4.png","false","false","https://kisumu-drawings.s3-us-west-1.amazonaws.com/tracings/S3_age4_trial4.png","2"
"","8540","image-button-response","51","null","313851","689b8a7a4faa850af7a40460","689badea93269c2a2d5061bc","60ca4cfb5c287146cad0695a","5","S55_age6_trial5.png","false","false","https://kisumu-drawings.s3-us-west-1.amazonaws.com/tracings/S55_age6_trial5.png","4"
"","8593","image-button-response","52","null","322947","689b8a7a4faa850af7a40460","689badea93269c2a2d5061bc","60ca4cfb5c287146cad0695a","2","S78_age7_trial2.png","false","false","https://kisumu-drawings.s3-us-west-1.amazonaws.com/tracings/S78_age7_trial2.png","5"
"","6162","image-button-response","53","null","329613","689b8a7a4faa850af7a40460","689badea93269c2a2d5061bc","60ca4cfb5c287146cad0695a","5","S95_age8_trial5.png","false","false","https://kisumu-drawings.s3-us-west-1.amazonaws.com/tracings/S95_age8_trial5.png","5"
"","4160","image-button-response","54","null","334277","689b8a7a4faa850af7a40460","689badea93269c2a2d5061bc","60ca4cfb5c287146cad0695a","5","S74_age7_trial5.png","false","false","https://kisumu-drawings.s3-us-west-1.amazonaws.com/tracings/S74_age7_trial5.png","4"
"","2294","image-button-response","55","null","337075","689b8a7a4faa850af7a40460","689badea93269c2a2d5061bc","60ca4cfb5c287146cad0695a","1","S115_age9_trial1.png","false","false","https://kisumu-drawings.s3-us-west-1.amazonaws.com/tracings/S115_age9_trial1.png","5"
"","3468","image-button-response","56","null","341047","689b8a7a4faa850af7a40460","689badea93269c2a2d5061bc","60ca4cfb5c287146cad0695a","4","S57_age6_trial4.png","false","false","https://kisumu-drawings.s3-us-west-1.amazonaws.com/tracings/S57_age6_trial4.png","5"
"","4626","image-button-response","57","null","346179","689b8a7a4faa850af7a40460","689badea93269c2a2d5061bc","60ca4cfb5c287146cad0695a","2","S56_age6_trial2.png","false","false","https://kisumu-drawings.s3-us-west-1.amazonaws.com/tracings/S56_age6_trial2.png","4"
"","2947","image-button-response","58","null","349632","689b8a7a4faa850af7a40460","689badea93269c2a2d5061bc","60ca4cfb5c287146cad0695a","3","S93_age8_trial3.png","false","false","https://kisumu-drawings.s3-us-west-1.amazonaws.com/tracings/S93_age8_trial3.png","5"
"","5349","image-button-response","59","null","355485","689b8a7a4faa850af7a40460","689badea93269c2a2d5061bc","60ca4cfb5c287146cad0695a","3","S80_age7_trial3.png","false","false","https://kisumu-drawings.s3-us-west-1.amazonaws.com/tracings/S80_age7_trial3.png","4"
"","4920","image-button-response","60","null","360910","689b8a7a4faa850af7a40460","689badea93269c2a2d5061bc","60ca4cfb5c287146cad0695a","2","S35_age5_trial2.png","false","false","https://kisumu-drawings.s3-us-west-1.amazonaws.com/tracings/S35_age5_trial2.png","5"
"","5654","image-button-response","61","null","367068","689b8a7a4faa850af7a40460","689badea93269c2a2d5061bc","60ca4cfb5c287146cad0695a","4","S94_age8_trial4.png","false","false","https://kisumu-drawings.s3-us-west-1.amazonaws.com/tracings/S94_age8_trial4.png","5"
