"view_history","rt","trial_type","trial_index","plugin_version","time_elapsed","study_id","session_id","participant_id","tracing_type","tracing_id","catch_trial","prep_trial","stimulus","response"
"[{""page_index"":0,""viewing_time"":6724},{""page_index"":1,""viewing_time"":5854},{""page_index"":2,""viewing_time"":7744},{""page_index"":3,""viewing_time"":2475},{""page_index"":4,""viewing_time"":11470}]","34267","instructions","0","null","34274","689b8a7a4faa850af7a40460","689bbf6a6c7df5ce7c9417f7","6143af8721d1445864c4f6c8","","","","","",""
"","5516","image-button-response","1","null","40794","689b8a7a4faa850af7a40460","689bbf6a6c7df5ce7c9417f7","6143af8721d1445864c4f6c8","3","S60_age6_trial3.png","false","false","https://kisumu-drawings.s3-us-west-1.amazonaws.com/tracings/S60_age6_trial3.png","1"
"","1759","image-button-response","2","null","43072","689b8a7a4faa850af7a40460","689bbf6a6c7df5ce7c9417f7","6143af8721d1445864c4f6c8","4","S39_age5_trial4.png","false","false","https://kisumu-drawings.s3-us-west-1.amazonaws.com/tracings/S39_age5_trial4.png","1"
"","3358","image-button-response","3","null","46937","689b8a7a4faa850af7a40460","689bbf6a6c7df5ce7c9417f7","6143af8721d1445864c4f6c8","4","S56_age6_trial4.png","false","false","https://kisumu-drawings.s3-us-west-1.amazonaws.com/tracings/S56_age6_trial4.png","3"
"","10802","image-button-response","4","null","58233","689b8a7a4faa850af7a40460","689bbf6a6c7df5ce7c9417f7","6143af8721d1445864c4f6c8","1","S54_age6_trial1.png","false","false","https://kisumu-drawings.s3-us-west-1.amazonaws.com/tracings/S54_age6_trial1.png","3"
"","1257","image-button-response","5","null","60006","689b8a7a4faa850af7a40460","689bbf6a6c7df5ce7c9417f7","6143af8721d1445864c4f6c8","1","S7_age4_trial1.png","false","false","https://kisumu-drawings.s3-us-west-1.amazonaws.com/tracings/S7_age4_trial1.png","3"
"","1990","image-button-response","6","null","62499","689b8a7a4faa850af7a40460","689bbf6a6c7df5ce7c9417f7","6143af8721d1445864c4f6c8","3","S93_age8_trial3.png","false","false","https://kisumu-drawings.s3-us-west-1.amazonaws.com/tracings/S93_age8_trial3.png","2"
"","1760","image-button-response","7","null","64764","689b8a7a4faa850af7a40460","689bbf6a6c7df5ce7c9417f7","6143af8721d1445864c4f6c8","2","S98_age8_trial2.png","false","false","https://kisumu-drawings.s3-us-west-1.amazonaws.com/tracings/S98_age8_trial2.png","3"
"","4418","image-button-response","8","null","69694","689b8a7a4faa850af7a40460","689bbf6a6c7df5ce7c9417f7","6143af8721d1445864c4f6c8","4","S75_age7_trial4.png","false","false","https://kisumu-drawings.s3-us-west-1.amazonaws.com/tracings/S75_age7_trial4.png","2"
"","1016","image-button-response","9","null","71211","689b8a7a4faa850af7a40460","689bbf6a6c7df5ce7c9417f7","6143af8721d1445864c4f6c8","3","S4_age4_trial3.png","false","false","https://kisumu-drawings.s3-us-west-1.amazonaws.com/tracings/S4_age4_trial3.png","2"
"","829","image-button-response","10","null","72548","689b8a7a4faa850af7a40460","689bbf6a6c7df5ce7c9417f7","6143af8721d1445864c4f6c8","4","S5_age4_trial4.png","false","false","https://kisumu-drawings.s3-us-west-1.amazonaws.com/tracings/S5_age4_trial4.png","2"
"","1496","image-button-response","11","null","74552","689b8a7a4faa850af7a40460","689bbf6a6c7df5ce7c9417f7","6143af8721d1445864c4f6c8","5","S94_age8_trial5.png","false","false","https://kisumu-drawings.s3-us-west-1.amazonaws.com/tracings/S94_age8_trial5.png","2"
"","2387","image-button-response","12","null","77445","689b8a7a4faa850af7a40460","689bbf6a6c7df5ce7c9417f7","6143af8721d1445864c4f6c8","1","S80_age7_trial1.png","false","false","https://kisumu-drawings.s3-us-west-1.amazonaws.com/tracings/S80_age7_trial1.png","2"
"","6870","image-button-response","13","null","84826","689b8a7a4faa850af7a40460","689bbf6a6c7df5ce7c9417f7","6143af8721d1445864c4f6c8","1","S6_age4_trial1.png","false","false","https://kisumu-drawings.s3-us-west-1.amazonaws.com/tracings/S6_age4_trial1.png","2"
"","1879","image-button-response","14","null","87218","689b8a7a4faa850af7a40460","689bbf6a6c7df5ce7c9417f7","6143af8721d1445864c4f6c8","3","S34_age5_trial3.png","false","false","https://kisumu-drawings.s3-us-west-1.amazonaws.com/tracings/S34_age5_trial3.png","3"
"","4303","image-button-response","15","null","92032","689b8a7a4faa850af7a40460","689bbf6a6c7df5ce7c9417f7","6143af8721d1445864c4f6c8","2","S120_age9_trial2.png","false","false","https://kisumu-drawings.s3-us-west-1.amazonaws.com/tracings/S120_age9_trial2.png","2"
"","2307","image-button-response","16","null","94845","689b8a7a4faa850af7a40460","689bbf6a6c7df5ce7c9417f7","6143af8721d1445864c4f6c8","2","S4_age4_trial2.png","false","false","https://kisumu-drawings.s3-us-west-1.amazonaws.com/tracings/S4_age4_trial2.png","1"
"","1742","image-button-response","17","null","97101","689b8a7a4faa850af7a40460","689bbf6a6c7df5ce7c9417f7","6143af8721d1445864c4f6c8","5","S55_age6_trial5.png","false","false","https://kisumu-drawings.s3-us-west-1.amazonaws.com/tracings/S55_age6_trial5.png","1"
"","1236","image-button-response","18","null","98842","689b8a7a4faa850af7a40460","689bbf6a6c7df5ce7c9417f7","6143af8721d1445864c4f6c8","3","S56_age6_trial3.png","false","false","https://kisumu-drawings.s3-us-west-1.amazonaws.com/tracings/S56_age6_trial3.png","1"
"","3875","image-button-response","19","null","103228","689b8a7a4faa850af7a40460","689bbf6a6c7df5ce7c9417f7","6143af8721d1445864c4f6c8","4","S60_age6_trial4.png","false","false","https://kisumu-drawings.s3-us-west-1.amazonaws.com/tracings/S60_age6_trial4.png","3"
"","779","image-button-response","20","null","104523","689b8a7a4faa850af7a40460","689bbf6a6c7df5ce7c9417f7","6143af8721d1445864c4f6c8","1","S33_age5_trial1.png","false","false","https://kisumu-drawings.s3-us-west-1.amazonaws.com/tracings/S33_age5_trial1.png","3"
"","1332","image-button-response","21","null","106357","689b8a7a4faa850af7a40460","689bbf6a6c7df5ce7c9417f7","6143af8721d1445864c4f6c8","5","S3_age4_trial5.png","false","false","https://kisumu-drawings.s3-us-west-1.amazonaws.com/tracings/S3_age4_trial5.png","1"
"","2508","image-button-response","22","null","109381","689b8a7a4faa850af7a40460","689bbf6a6c7df5ce7c9417f7","6143af8721d1445864c4f6c8","4","S4_age4_trial4.png","false","false","https://kisumu-drawings.s3-us-west-1.amazonaws.com/tracings/S4_age4_trial4.png","2"
"","856","image-button-response","23","null","110748","689b8a7a4faa850af7a40460","689bbf6a6c7df5ce7c9417f7","6143af8721d1445864c4f6c8","5","S9_age4_trial5.png","false","false","https://kisumu-drawings.s3-us-west-1.amazonaws.com/tracings/S9_age4_trial5.png","2"
"","1681","image-button-response","24","null","112939","689b8a7a4faa850af7a40460","689bbf6a6c7df5ce7c9417f7","6143af8721d1445864c4f6c8","3","S73_age7_trial3.png","false","false","https://kisumu-drawings.s3-us-west-1.amazonaws.com/tracings/S73_age7_trial3.png","1"
"","1397","image-button-response","25","null","114845","689b8a7a4faa850af7a40460","689bbf6a6c7df5ce7c9417f7","6143af8721d1445864c4f6c8","1","S78_age7_trial1.png","false","false","https://kisumu-drawings.s3-us-west-1.amazonaws.com/tracings/S78_age7_trial1.png","3"
"","652","image-button-response","26","null","116006","689b8a7a4faa850af7a40460","689bbf6a6c7df5ce7c9417f7","6143af8721d1445864c4f6c8","2","S8_age4_trial2.png","false","false","https://kisumu-drawings.s3-us-west-1.amazonaws.com/tracings/S8_age4_trial2.png","3"
"","1985","image-button-response","27","null","118487","689b8a7a4faa850af7a40460","689bbf6a6c7df5ce7c9417f7","6143af8721d1445864c4f6c8","5","S58_age6_trial5.png","false","false","https://kisumu-drawings.s3-us-west-1.amazonaws.com/tracings/S58_age6_trial5.png","3"
"","1460","image-button-response","28","null","120464","689b8a7a4faa850af7a40460","689bbf6a6c7df5ce7c9417f7","6143af8721d1445864c4f6c8","3","S94_age8_trial3.png","false","false","https://kisumu-drawings.s3-us-west-1.amazonaws.com/tracings/S94_age8_trial3.png","3"
"","1739","image-button-response","29","null","122704","689b8a7a4faa850af7a40460","689bbf6a6c7df5ce7c9417f7","6143af8721d1445864c4f6c8","5","S117_age9_trial5.png","false","false","https://kisumu-drawings.s3-us-west-1.amazonaws.com/tracings/S117_age9_trial5.png","3"
"","2905","image-button-response","30","null","126119","689b8a7a4faa850af7a40460","689bbf6a6c7df5ce7c9417f7","6143af8721d1445864c4f6c8","5","S76_age7_trial5.png","false","false","https://kisumu-drawings.s3-us-west-1.amazonaws.com/tracings/S76_age7_trial5.png","2"
"","1981","image-button-response","31","null","128604","689b8a7a4faa850af7a40460","689bbf6a6c7df5ce7c9417f7","6143af8721d1445864c4f6c8","3","S119_age9_trial3.png","false","false","https://kisumu-drawings.s3-us-west-1.amazonaws.com/tracings/S119_age9_trial3.png","1"
"","928","image-button-response","32","null","130046","689b8a7a4faa850af7a40460","689bbf6a6c7df5ce7c9417f7","6143af8721d1445864c4f6c8","2","S55_age6_trial2.png","false","false","https://kisumu-drawings.s3-us-west-1.amazonaws.com/tracings/S55_age6_trial2.png","1"
"","1564","image-button-response","33","null","132117","689b8a7a4faa850af7a40460","689bbf6a6c7df5ce7c9417f7","6143af8721d1445864c4f6c8","3","S75_age7_trial3.png","false","false","https://kisumu-drawings.s3-us-west-1.amazonaws.com/tracings/S75_age7_trial3.png","2"
"","24580","image-button-response","34","null","157207","689b8a7a4faa850af7a40460","689bbf6a6c7df5ce7c9417f7","6143af8721d1445864c4f6c8","3","S40_age5_trial3.png","false","false","https://kisumu-drawings.s3-us-west-1.amazonaws.com/tracings/S40_age5_trial3.png","3"
"","1484","image-button-response","35","null","159206","689b8a7a4faa850af7a40460","689bbf6a6c7df5ce7c9417f7","6143af8721d1445864c4f6c8","4","S37_age5_trial4.png","false","false","https://kisumu-drawings.s3-us-west-1.amazonaws.com/tracings/S37_age5_trial4.png","3"
"","2542","image-button-response","36","null","162263","689b8a7a4faa850af7a40460","689bbf6a6c7df5ce7c9417f7","6143af8721d1445864c4f6c8","1","S95_age8_trial1.png","false","false","https://kisumu-drawings.s3-us-west-1.amazonaws.com/tracings/S95_age8_trial1.png","3"
"","3971","image-button-response","37","null","166738","689b8a7a4faa850af7a40460","689bbf6a6c7df5ce7c9417f7","6143af8721d1445864c4f6c8","2","S38_age5_trial2.png","false","false","https://kisumu-drawings.s3-us-west-1.amazonaws.com/tracings/S38_age5_trial2.png","2"
"","1388","image-button-response","38","null","168627","689b8a7a4faa850af7a40460","689bbf6a6c7df5ce7c9417f7","6143af8721d1445864c4f6c8","3","S5_age4_trial3.png","false","false","https://kisumu-drawings.s3-us-west-1.amazonaws.com/tracings/S5_age4_trial3.png","2"
"","827","image-button-response","39","null","169962","689b8a7a4faa850af7a40460","689bbf6a6c7df5ce7c9417f7","6143af8721d1445864c4f6c8","5","S40_age5_trial5.png","false","false","https://kisumu-drawings.s3-us-west-1.amazonaws.com/tracings/S40_age5_trial5.png","2"
"","2687","image-button-response","40","null","173163","689b8a7a4faa850af7a40460","689bbf6a6c7df5ce7c9417f7","6143af8721d1445864c4f6c8","1","S120_age9_trial1.png","false","false","https://kisumu-drawings.s3-us-west-1.amazonaws.com/tracings/S120_age9_trial1.png","3"
"","1018","image-button-response","41","null","174697","689b8a7a4faa850af7a40460","689bbf6a6c7df5ce7c9417f7","6143af8721d1445864c4f6c8","1","S118_age9_trial1.png","false","false","https://kisumu-drawings.s3-us-west-1.amazonaws.com/tracings/S118_age9_trial1.png","3"
"","4767","image-button-response","42","null","179967","689b8a7a4faa850af7a40460","689bbf6a6c7df5ce7c9417f7","6143af8721d1445864c4f6c8","2","","true","false","stimuli/catch_trials/catch_trial.png","3"
"","1286","image-button-response","43","null","181768","689b8a7a4faa850af7a40460","689bbf6a6c7df5ce7c9417f7","6143af8721d1445864c4f6c8","2","S78_age7_trial2.png","false","false","https://kisumu-drawings.s3-us-west-1.amazonaws.com/tracings/S78_age7_trial2.png","3"
"","2375","image-button-response","44","null","184656","689b8a7a4faa850af7a40460","689bbf6a6c7df5ce7c9417f7","6143af8721d1445864c4f6c8","1","S98_age8_trial1.png","false","false","https://kisumu-drawings.s3-us-west-1.amazonaws.com/tracings/S98_age8_trial1.png","3"
"","675","image-button-response","45","null","185835","689b8a7a4faa850af7a40460","689bbf6a6c7df5ce7c9417f7","6143af8721d1445864c4f6c8","2","S40_age5_trial2.png","false","false","https://kisumu-drawings.s3-us-west-1.amazonaws.com/tracings/S40_age5_trial2.png","3"
"","21343","image-button-response","46","null","207694","689b8a7a4faa850af7a40460","689bbf6a6c7df5ce7c9417f7","6143af8721d1445864c4f6c8","5","S79_age7_trial5.png","false","false","https://kisumu-drawings.s3-us-west-1.amazonaws.com/tracings/S79_age7_trial5.png","2"
"","2850","image-button-response","47","null","211045","689b8a7a4faa850af7a40460","689bbf6a6c7df5ce7c9417f7","6143af8721d1445864c4f6c8","5","S114_age9_trial5.png","false","false","https://kisumu-drawings.s3-us-west-1.amazonaws.com/tracings/S114_age9_trial5.png","4"
"","2297","image-button-response","48","null","213845","689b8a7a4faa850af7a40460","689bbf6a6c7df5ce7c9417f7","6143af8721d1445864c4f6c8","2","S79_age7_trial2.png","false","false","https://kisumu-drawings.s3-us-west-1.amazonaws.com/tracings/S79_age7_trial2.png","3"
"","545","image-button-response","49","null","214896","689b8a7a4faa850af7a40460","689bbf6a6c7df5ce7c9417f7","6143af8721d1445864c4f6c8","4","S98_age8_trial4.png","false","false","https://kisumu-drawings.s3-us-west-1.amazonaws.com/tracings/S98_age8_trial4.png","3"
"","1092","image-button-response","50","null","216494","689b8a7a4faa850af7a40460","689bbf6a6c7df5ce7c9417f7","6143af8721d1445864c4f6c8","5","S93_age8_trial5.png","false","false","https://kisumu-drawings.s3-us-west-1.amazonaws.com/tracings/S93_age8_trial5.png","3"
"","4162","image-button-response","51","null","221160","689b8a7a4faa850af7a40460","689bbf6a6c7df5ce7c9417f7","6143af8721d1445864c4f6c8","4","S96_age8_trial4.png","false","false","https://kisumu-drawings.s3-us-west-1.amazonaws.com/tracings/S96_age8_trial4.png","4"
"","1510","image-button-response","52","null","223180","689b8a7a4faa850af7a40460","689bbf6a6c7df5ce7c9417f7","6143af8721d1445864c4f6c8","1","S56_age6_trial1.png","false","false","https://kisumu-drawings.s3-us-west-1.amazonaws.com/tracings/S56_age6_trial1.png","2"
"","1586","image-button-response","53","null","225267","689b8a7a4faa850af7a40460","689bbf6a6c7df5ce7c9417f7","6143af8721d1445864c4f6c8","2","S99_age8_trial2.png","false","false","https://kisumu-drawings.s3-us-west-1.amazonaws.com/tracings/S99_age8_trial2.png","1"
"","1530","image-button-response","54","null","227311","689b8a7a4faa850af7a40460","689bbf6a6c7df5ce7c9417f7","6143af8721d1445864c4f6c8","4","S116_age9_trial4.png","false","false","https://kisumu-drawings.s3-us-west-1.amazonaws.com/tracings/S116_age9_trial4.png","1"
"","888","image-button-response","55","null","228705","689b8a7a4faa850af7a40460","689bbf6a6c7df5ce7c9417f7","6143af8721d1445864c4f6c8","2","S57_age6_trial2.png","false","false","https://kisumu-drawings.s3-us-west-1.amazonaws.com/tracings/S57_age6_trial2.png","1"
"","1612","image-button-response","56","null","230825","689b8a7a4faa850af7a40460","689bbf6a6c7df5ce7c9417f7","6143af8721d1445864c4f6c8","1","S34_age5_trial1.png","false","false","https://kisumu-drawings.s3-us-west-1.amazonaws.com/tracings/S34_age5_trial1.png","2"
"","2093","image-button-response","57","null","233426","689b8a7a4faa850af7a40460","689bbf6a6c7df5ce7c9417f7","6143af8721d1445864c4f6c8","2","S117_age9_trial2.png","false","false","https://kisumu-drawings.s3-us-west-1.amazonaws.com/tracings/S117_age9_trial2.png","3"
"","1178","image-button-response","58","null","235115","689b8a7a4faa850af7a40460","689bbf6a6c7df5ce7c9417f7","6143af8721d1445864c4f6c8","4","S78_age7_trial4.png","false","false","https://kisumu-drawings.s3-us-west-1.amazonaws.com/tracings/S78_age7_trial4.png","3"
"","726","image-button-response","59","null","236356","689b8a7a4faa850af7a40460","689bbf6a6c7df5ce7c9417f7","6143af8721d1445864c4f6c8","3","S120_age9_trial3.png","false","false","https://kisumu-drawings.s3-us-west-1.amazonaws.com/tracings/S120_age9_trial3.png","3"
"","691","image-button-response","60","null","237555","689b8a7a4faa850af7a40460","689bbf6a6c7df5ce7c9417f7","6143af8721d1445864c4f6c8","4","S114_age9_trial4.png","false","false","https://kisumu-drawings.s3-us-west-1.amazonaws.com/tracings/S114_age9_trial4.png","3"
"","1868","image-button-response","61","null","239930","689b8a7a4faa850af7a40460","689bbf6a6c7df5ce7c9417f7","6143af8721d1445864c4f6c8","5","S33_age5_trial5.png","false","false","https://kisumu-drawings.s3-us-west-1.amazonaws.com/tracings/S33_age5_trial5.png","2"
