"view_history","rt","trial_type","trial_index","plugin_version","time_elapsed","study_id","session_id","participant_id","tracing_type","tracing_id","catch_trial","prep_trial","stimulus","response"
"[{""page_index"":0,""viewing_time"":15938},{""page_index"":1,""viewing_time"":8448},{""page_index"":2,""viewing_time"":8742},{""page_index"":3,""viewing_time"":6054},{""page_index"":4,""viewing_time"":9886}]","49068","instructions","0","null","49085","689b8a7a4faa850af7a40460","689ba183a649ae6db34e0b10","6272b9dfc470a51d5fa0e6ea","","","","","",""
"","11608","image-button-response","1","null","61703","689b8a7a4faa850af7a40460","689ba183a649ae6db34e0b10","6272b9dfc470a51d5fa0e6ea","1","S117_age9_trial1.png","false","false","https://kisumu-drawings.s3-us-west-1.amazonaws.com/tracings/S117_age9_trial1.png","4"
"","10861","image-button-response","2","null","73068","689b8a7a4faa850af7a40460","689ba183a649ae6db34e0b10","6272b9dfc470a51d5fa0e6ea","3","S57_age6_trial3.png","false","false","https://kisumu-drawings.s3-us-west-1.amazonaws.com/tracings/S57_age6_trial3.png","2"
"","7187","image-button-response","3","null","80770","689b8a7a4faa850af7a40460","689ba183a649ae6db34e0b10","6272b9dfc470a51d5fa0e6ea","5","S94_age8_trial5.png","false","false","https://kisumu-drawings.s3-us-west-1.amazonaws.com/tracings/S94_age8_trial5.png","4"
"","5971","image-button-response","4","null","87250","689b8a7a4faa850af7a40460","689ba183a649ae6db34e0b10","6272b9dfc470a51d5fa0e6ea","4","S98_age8_trial4.png","false","false","https://kisumu-drawings.s3-us-west-1.amazonaws.com/tracings/S98_age8_trial4.png","3"
"","4675","image-button-response","5","null","92438","689b8a7a4faa850af7a40460","689ba183a649ae6db34e0b10","6272b9dfc470a51d5fa0e6ea","4","S114_age9_trial4.png","false","false","https://kisumu-drawings.s3-us-west-1.amazonaws.com/tracings/S114_age9_trial4.png","4"
"","3037","image-button-response","6","null","95994","689b8a7a4faa850af7a40460","689ba183a649ae6db34e0b10","6272b9dfc470a51d5fa0e6ea","5","S34_age5_trial5.png","false","false","https://kisumu-drawings.s3-us-west-1.amazonaws.com/tracings/S34_age5_trial5.png","2"
"","3499","image-button-response","7","null","100010","689b8a7a4faa850af7a40460","689ba183a649ae6db34e0b10","6272b9dfc470a51d5fa0e6ea","5","S57_age6_trial5.png","false","false","https://kisumu-drawings.s3-us-west-1.amazonaws.com/tracings/S57_age6_trial5.png","3"
"","8520","image-button-response","8","null","109046","689b8a7a4faa850af7a40460","689ba183a649ae6db34e0b10","6272b9dfc470a51d5fa0e6ea","3","S5_age4_trial3.png","false","false","https://kisumu-drawings.s3-us-west-1.amazonaws.com/tracings/S5_age4_trial3.png","2"
"","4485","image-button-response","9","null","114046","689b8a7a4faa850af7a40460","689ba183a649ae6db34e0b10","6272b9dfc470a51d5fa0e6ea","2","S95_age8_trial2.png","false","false","https://kisumu-drawings.s3-us-west-1.amazonaws.com/tracings/S95_age8_trial2.png","4"
"","11021","image-button-response","10","null","125576","689b8a7a4faa850af7a40460","689ba183a649ae6db34e0b10","6272b9dfc470a51d5fa0e6ea","5","S53_age6_trial5.png","false","false","https://kisumu-drawings.s3-us-west-1.amazonaws.com/tracings/S53_age6_trial5.png","3"
"","3444","image-button-response","11","null","129524","689b8a7a4faa850af7a40460","689ba183a649ae6db34e0b10","6272b9dfc470a51d5fa0e6ea","1","S118_age9_trial1.png","false","false","https://kisumu-drawings.s3-us-west-1.amazonaws.com/tracings/S118_age9_trial1.png","4"
"","5399","image-button-response","12","null","135434","689b8a7a4faa850af7a40460","689ba183a649ae6db34e0b10","6272b9dfc470a51d5fa0e6ea","2","S5_age4_trial2.png","false","false","https://kisumu-drawings.s3-us-west-1.amazonaws.com/tracings/S5_age4_trial2.png","2"
"","2799","image-button-response","13","null","138750","689b8a7a4faa850af7a40460","689ba183a649ae6db34e0b10","6272b9dfc470a51d5fa0e6ea","5","S119_age9_trial5.png","false","false","https://kisumu-drawings.s3-us-west-1.amazonaws.com/tracings/S119_age9_trial5.png","4"
"","5410","image-button-response","14","null","144676","689b8a7a4faa850af7a40460","689ba183a649ae6db34e0b10","6272b9dfc470a51d5fa0e6ea","1","S96_age8_trial1.png","false","false","https://kisumu-drawings.s3-us-west-1.amazonaws.com/tracings/S96_age8_trial1.png","5"
"","4892","image-button-response","15","null","150074","689b8a7a4faa850af7a40460","689ba183a649ae6db34e0b10","6272b9dfc470a51d5fa0e6ea","4","S77_age7_trial4.png","false","false","https://kisumu-drawings.s3-us-west-1.amazonaws.com/tracings/S77_age7_trial4.png","3"
"","2731","image-button-response","16","null","153320","689b8a7a4faa850af7a40460","689ba183a649ae6db34e0b10","6272b9dfc470a51d5fa0e6ea","2","S9_age4_trial2.png","false","false","https://kisumu-drawings.s3-us-west-1.amazonaws.com/tracings/S9_age4_trial2.png","2"
"","5650","image-button-response","17","null","159478","689b8a7a4faa850af7a40460","689ba183a649ae6db34e0b10","6272b9dfc470a51d5fa0e6ea","1","S7_age4_trial1.png","false","false","https://kisumu-drawings.s3-us-west-1.amazonaws.com/tracings/S7_age4_trial1.png","2"
"","3774","image-button-response","18","null","163766","689b8a7a4faa850af7a40460","689ba183a649ae6db34e0b10","6272b9dfc470a51d5fa0e6ea","3","S98_age8_trial3.png","false","false","https://kisumu-drawings.s3-us-west-1.amazonaws.com/tracings/S98_age8_trial3.png","4"
"","5214","image-button-response","19","null","169490","689b8a7a4faa850af7a40460","689ba183a649ae6db34e0b10","6272b9dfc470a51d5fa0e6ea","3","S119_age9_trial3.png","false","false","https://kisumu-drawings.s3-us-west-1.amazonaws.com/tracings/S119_age9_trial3.png","4"
"","3003","image-button-response","20","null","173010","689b8a7a4faa850af7a40460","689ba183a649ae6db34e0b10","6272b9dfc470a51d5fa0e6ea","3","S39_age5_trial3.png","false","false","https://kisumu-drawings.s3-us-west-1.amazonaws.com/tracings/S39_age5_trial3.png","2"
"","2442","image-button-response","21","null","175966","689b8a7a4faa850af7a40460","689ba183a649ae6db34e0b10","6272b9dfc470a51d5fa0e6ea","1","S79_age7_trial1.png","false","false","https://kisumu-drawings.s3-us-west-1.amazonaws.com/tracings/S79_age7_trial1.png","4"
"","3071","image-button-response","22","null","179552","689b8a7a4faa850af7a40460","689ba183a649ae6db34e0b10","6272b9dfc470a51d5fa0e6ea","2","S114_age9_trial2.png","false","false","https://kisumu-drawings.s3-us-west-1.amazonaws.com/tracings/S114_age9_trial2.png","4"
"","4604","image-button-response","23","null","184664","689b8a7a4faa850af7a40460","689ba183a649ae6db34e0b10","6272b9dfc470a51d5fa0e6ea","4","S2_age4_trial4.png","false","false","https://kisumu-drawings.s3-us-west-1.amazonaws.com/tracings/S2_age4_trial4.png","2"
"","1789","image-button-response","24","null","186962","689b8a7a4faa850af7a40460","689ba183a649ae6db34e0b10","6272b9dfc470a51d5fa0e6ea","5","S8_age4_trial5.png","false","false","https://kisumu-drawings.s3-us-west-1.amazonaws.com/tracings/S8_age4_trial5.png","2"
"","2427","image-button-response","25","null","189898","689b8a7a4faa850af7a40460","689ba183a649ae6db34e0b10","6272b9dfc470a51d5fa0e6ea","5","S75_age7_trial5.png","false","false","https://kisumu-drawings.s3-us-west-1.amazonaws.com/tracings/S75_age7_trial5.png","4"
"","4025","image-button-response","26","null","194428","689b8a7a4faa850af7a40460","689ba183a649ae6db34e0b10","6272b9dfc470a51d5fa0e6ea","5","S38_age5_trial5.png","false","false","https://kisumu-drawings.s3-us-west-1.amazonaws.com/tracings/S38_age5_trial5.png","3"
"","2964","image-button-response","27","null","197900","689b8a7a4faa850af7a40460","689ba183a649ae6db34e0b10","6272b9dfc470a51d5fa0e6ea","2","","true","false","stimuli/catch_trials/catch_trial.png","1"
"","3565","image-button-response","28","null","201982","689b8a7a4faa850af7a40460","689ba183a649ae6db34e0b10","6272b9dfc470a51d5fa0e6ea","1","S76_age7_trial1.png","false","false","https://kisumu-drawings.s3-us-west-1.amazonaws.com/tracings/S76_age7_trial1.png","4"
"","3941","image-button-response","29","null","206440","689b8a7a4faa850af7a40460","689ba183a649ae6db34e0b10","6272b9dfc470a51d5fa0e6ea","3","S77_age7_trial3.png","false","false","https://kisumu-drawings.s3-us-west-1.amazonaws.com/tracings/S77_age7_trial3.png","5"
"","2916","image-button-response","30","null","209868","689b8a7a4faa850af7a40460","689ba183a649ae6db34e0b10","6272b9dfc470a51d5fa0e6ea","2","S37_age5_trial2.png","false","false","https://kisumu-drawings.s3-us-west-1.amazonaws.com/tracings/S37_age5_trial2.png","4"
"","6671","image-button-response","31","null","217052","689b8a7a4faa850af7a40460","689ba183a649ae6db34e0b10","6272b9dfc470a51d5fa0e6ea","2","S79_age7_trial2.png","false","false","https://kisumu-drawings.s3-us-west-1.amazonaws.com/tracings/S79_age7_trial2.png","4"
"","6830","image-button-response","32","null","224392","689b8a7a4faa850af7a40460","689ba183a649ae6db34e0b10","6272b9dfc470a51d5fa0e6ea","4","S93_age8_trial4.png","false","false","https://kisumu-drawings.s3-us-west-1.amazonaws.com/tracings/S93_age8_trial4.png","5"
"","8055","image-button-response","33","null","232966","689b8a7a4faa850af7a40460","689ba183a649ae6db34e0b10","6272b9dfc470a51d5fa0e6ea","1","S99_age8_trial1.png","false","false","https://kisumu-drawings.s3-us-west-1.amazonaws.com/tracings/S99_age8_trial1.png","4"
"","2474","image-button-response","34","null","235948","689b8a7a4faa850af7a40460","689ba183a649ae6db34e0b10","6272b9dfc470a51d5fa0e6ea","4","S34_age5_trial4.png","false","false","https://kisumu-drawings.s3-us-west-1.amazonaws.com/tracings/S34_age5_trial4.png","2"
"","3236","image-button-response","35","null","239690","689b8a7a4faa850af7a40460","689ba183a649ae6db34e0b10","6272b9dfc470a51d5fa0e6ea","4","S38_age5_trial4.png","false","false","https://kisumu-drawings.s3-us-west-1.amazonaws.com/tracings/S38_age5_trial4.png","3"
"","2162","image-button-response","36","null","242356","689b8a7a4faa850af7a40460","689ba183a649ae6db34e0b10","6272b9dfc470a51d5fa0e6ea","2","S56_age6_trial2.png","false","false","https://kisumu-drawings.s3-us-west-1.amazonaws.com/tracings/S56_age6_trial2.png","4"
"","4976","image-button-response","37","null","247844","689b8a7a4faa850af7a40460","689ba183a649ae6db34e0b10","6272b9dfc470a51d5fa0e6ea","4","S55_age6_trial4.png","false","false","https://kisumu-drawings.s3-us-west-1.amazonaws.com/tracings/S55_age6_trial4.png","2"
"","2809","image-button-response","38","null","251158","689b8a7a4faa850af7a40460","689ba183a649ae6db34e0b10","6272b9dfc470a51d5fa0e6ea","1","S36_age5_trial1.png","false","false","https://kisumu-drawings.s3-us-west-1.amazonaws.com/tracings/S36_age5_trial1.png","4"
"","2470","image-button-response","39","null","254142","689b8a7a4faa850af7a40460","689ba183a649ae6db34e0b10","6272b9dfc470a51d5fa0e6ea","4","S5_age4_trial4.png","false","false","https://kisumu-drawings.s3-us-west-1.amazonaws.com/tracings/S5_age4_trial4.png","2"
"","9094","image-button-response","40","null","263746","689b8a7a4faa850af7a40460","689ba183a649ae6db34e0b10","6272b9dfc470a51d5fa0e6ea","3","S78_age7_trial3.png","false","false","https://kisumu-drawings.s3-us-west-1.amazonaws.com/tracings/S78_age7_trial3.png","5"
"","2624","image-button-response","41","null","266874","689b8a7a4faa850af7a40460","689ba183a649ae6db34e0b10","6272b9dfc470a51d5fa0e6ea","2","S118_age9_trial2.png","false","false","https://kisumu-drawings.s3-us-west-1.amazonaws.com/tracings/S118_age9_trial2.png","5"
"","3475","image-button-response","42","null","270856","689b8a7a4faa850af7a40460","689ba183a649ae6db34e0b10","6272b9dfc470a51d5fa0e6ea","3","S58_age6_trial3.png","false","false","https://kisumu-drawings.s3-us-west-1.amazonaws.com/tracings/S58_age6_trial3.png","5"
"","5850","image-button-response","43","null","277214","689b8a7a4faa850af7a40460","689ba183a649ae6db34e0b10","6272b9dfc470a51d5fa0e6ea","4","S119_age9_trial4.png","false","false","https://kisumu-drawings.s3-us-west-1.amazonaws.com/tracings/S119_age9_trial4.png","5"
"","2230","image-button-response","44","null","279960","689b8a7a4faa850af7a40460","689ba183a649ae6db34e0b10","6272b9dfc470a51d5fa0e6ea","1","S60_age6_trial1.png","false","false","https://kisumu-drawings.s3-us-west-1.amazonaws.com/tracings/S60_age6_trial1.png","5"
"","2732","image-button-response","45","null","283196","689b8a7a4faa850af7a40460","689ba183a649ae6db34e0b10","6272b9dfc470a51d5fa0e6ea","3","S99_age8_trial3.png","false","false","https://kisumu-drawings.s3-us-west-1.amazonaws.com/tracings/S99_age8_trial3.png","4"
"","4397","image-button-response","46","null","288108","689b8a7a4faa850af7a40460","689ba183a649ae6db34e0b10","6272b9dfc470a51d5fa0e6ea","1","S9_age4_trial1.png","false","false","https://kisumu-drawings.s3-us-west-1.amazonaws.com/tracings/S9_age4_trial1.png","2"
"","7154","image-button-response","47","null","295764","689b8a7a4faa850af7a40460","689ba183a649ae6db34e0b10","6272b9dfc470a51d5fa0e6ea","1","S40_age5_trial1.png","false","false","https://kisumu-drawings.s3-us-west-1.amazonaws.com/tracings/S40_age5_trial1.png","5"
"","2924","image-button-response","48","null","299192","689b8a7a4faa850af7a40460","689ba183a649ae6db34e0b10","6272b9dfc470a51d5fa0e6ea","5","S115_age9_trial5.png","false","false","https://kisumu-drawings.s3-us-west-1.amazonaws.com/tracings/S115_age9_trial5.png","4"
"","3292","image-button-response","49","null","303002","689b8a7a4faa850af7a40460","689ba183a649ae6db34e0b10","6272b9dfc470a51d5fa0e6ea","2","S99_age8_trial2.png","false","false","https://kisumu-drawings.s3-us-west-1.amazonaws.com/tracings/S99_age8_trial2.png","4"
"","5725","image-button-response","50","null","309232","689b8a7a4faa850af7a40460","689ba183a649ae6db34e0b10","6272b9dfc470a51d5fa0e6ea","5","S77_age7_trial5.png","false","false","https://kisumu-drawings.s3-us-west-1.amazonaws.com/tracings/S77_age7_trial5.png","4"
"","2189","image-button-response","51","null","311929","689b8a7a4faa850af7a40460","689ba183a649ae6db34e0b10","6272b9dfc470a51d5fa0e6ea","3","S116_age9_trial3.png","false","false","https://kisumu-drawings.s3-us-west-1.amazonaws.com/tracings/S116_age9_trial3.png","4"
"","6741","image-button-response","52","null","319180","689b8a7a4faa850af7a40460","689ba183a649ae6db34e0b10","6272b9dfc470a51d5fa0e6ea","3","S33_age5_trial3.png","false","false","https://kisumu-drawings.s3-us-west-1.amazonaws.com/tracings/S33_age5_trial3.png","2"
"","3353","image-button-response","53","null","323040","689b8a7a4faa850af7a40460","689ba183a649ae6db34e0b10","6272b9dfc470a51d5fa0e6ea","1","S57_age6_trial1.png","false","false","https://kisumu-drawings.s3-us-west-1.amazonaws.com/tracings/S57_age6_trial1.png","3"
"","2137","image-button-response","54","null","325688","689b8a7a4faa850af7a40460","689ba183a649ae6db34e0b10","6272b9dfc470a51d5fa0e6ea","5","S5_age4_trial5.png","false","false","https://kisumu-drawings.s3-us-west-1.amazonaws.com/tracings/S5_age4_trial5.png","2"
"","3350","image-button-response","55","null","329550","689b8a7a4faa850af7a40460","689ba183a649ae6db34e0b10","6272b9dfc470a51d5fa0e6ea","3","S7_age4_trial3.png","false","false","https://kisumu-drawings.s3-us-west-1.amazonaws.com/tracings/S7_age4_trial3.png","2"
"","3442","image-button-response","56","null","333502","689b8a7a4faa850af7a40460","689ba183a649ae6db34e0b10","6272b9dfc470a51d5fa0e6ea","2","S55_age6_trial2.png","false","false","https://kisumu-drawings.s3-us-west-1.amazonaws.com/tracings/S55_age6_trial2.png","3"
"","2988","image-button-response","57","null","337002","689b8a7a4faa850af7a40460","689ba183a649ae6db34e0b10","6272b9dfc470a51d5fa0e6ea","4","S57_age6_trial4.png","false","false","https://kisumu-drawings.s3-us-west-1.amazonaws.com/tracings/S57_age6_trial4.png","4"
"","3509","image-button-response","58","null","341024","689b8a7a4faa850af7a40460","689ba183a649ae6db34e0b10","6272b9dfc470a51d5fa0e6ea","2","S39_age5_trial2.png","false","false","https://kisumu-drawings.s3-us-west-1.amazonaws.com/tracings/S39_age5_trial2.png","2"
"","2809","image-button-response","59","null","344340","689b8a7a4faa850af7a40460","689ba183a649ae6db34e0b10","6272b9dfc470a51d5fa0e6ea","2","S80_age7_trial2.png","false","false","https://kisumu-drawings.s3-us-west-1.amazonaws.com/tracings/S80_age7_trial2.png","4"
"","4274","image-button-response","60","null","349120","689b8a7a4faa850af7a40460","689ba183a649ae6db34e0b10","6272b9dfc470a51d5fa0e6ea","4","S75_age7_trial4.png","false","false","https://kisumu-drawings.s3-us-west-1.amazonaws.com/tracings/S75_age7_trial4.png","2"
"","3671","image-button-response","61","null","353300","689b8a7a4faa850af7a40460","689ba183a649ae6db34e0b10","6272b9dfc470a51d5fa0e6ea","5","S95_age8_trial5.png","false","false","https://kisumu-drawings.s3-us-west-1.amazonaws.com/tracings/S95_age8_trial5.png","5"
