"view_history","rt","trial_type","trial_index","plugin_version","time_elapsed","study_id","session_id","participant_id","tracing_type","tracing_id","catch_trial","prep_trial","stimulus","response"
"[{""page_index"":0,""viewing_time"":1875},{""page_index"":1,""viewing_time"":10780},{""page_index"":2,""viewing_time"":17058},{""page_index"":3,""viewing_time"":2614},{""page_index"":4,""viewing_time"":2618}]","34945","instructions","0","null","34953","689b8a7a4faa850af7a40460","689b922df403b09b2cf7b007","63f6ac6d4ce41fa2a87ea79b","","","","","",""
"","5957","image-button-response","1","null","41917","689b8a7a4faa850af7a40460","689b922df403b09b2cf7b007","63f6ac6d4ce41fa2a87ea79b","1","S37_age5_trial1.png","false","false","https://kisumu-drawings.s3-us-west-1.amazonaws.com/tracings/S37_age5_trial1.png","5"
"","2354","image-button-response","2","null","44790","689b8a7a4faa850af7a40460","689b922df403b09b2cf7b007","63f6ac6d4ce41fa2a87ea79b","3","S40_age5_trial3.png","false","false","https://kisumu-drawings.s3-us-west-1.amazonaws.com/tracings/S40_age5_trial3.png","4"
"","2382","image-button-response","3","null","47682","689b8a7a4faa850af7a40460","689b922df403b09b2cf7b007","63f6ac6d4ce41fa2a87ea79b","5","S79_age7_trial5.png","false","false","https://kisumu-drawings.s3-us-west-1.amazonaws.com/tracings/S79_age7_trial5.png","5"
"","3067","image-button-response","4","null","51267","689b8a7a4faa850af7a40460","689b922df403b09b2cf7b007","63f6ac6d4ce41fa2a87ea79b","2","S39_age5_trial2.png","false","false","https://kisumu-drawings.s3-us-west-1.amazonaws.com/tracings/S39_age5_trial2.png","2"
"","2693","image-button-response","5","null","54464","689b8a7a4faa850af7a40460","689b922df403b09b2cf7b007","63f6ac6d4ce41fa2a87ea79b","1","S54_age6_trial1.png","false","false","https://kisumu-drawings.s3-us-west-1.amazonaws.com/tracings/S54_age6_trial1.png","2"
"","2542","image-button-response","6","null","57510","689b8a7a4faa850af7a40460","689b922df403b09b2cf7b007","63f6ac6d4ce41fa2a87ea79b","3","S115_age9_trial3.png","false","false","https://kisumu-drawings.s3-us-west-1.amazonaws.com/tracings/S115_age9_trial3.png","4"
"","2677","image-button-response","7","null","60692","689b8a7a4faa850af7a40460","689b922df403b09b2cf7b007","63f6ac6d4ce41fa2a87ea79b","1","S4_age4_trial1.png","false","false","https://kisumu-drawings.s3-us-west-1.amazonaws.com/tracings/S4_age4_trial1.png","3"
"","2154","image-button-response","8","null","63356","689b8a7a4faa850af7a40460","689b922df403b09b2cf7b007","63f6ac6d4ce41fa2a87ea79b","1","S9_age4_trial1.png","false","false","https://kisumu-drawings.s3-us-west-1.amazonaws.com/tracings/S9_age4_trial1.png","2"
"","2256","image-button-response","9","null","66124","689b8a7a4faa850af7a40460","689b922df403b09b2cf7b007","63f6ac6d4ce41fa2a87ea79b","4","S115_age9_trial4.png","false","false","https://kisumu-drawings.s3-us-west-1.amazonaws.com/tracings/S115_age9_trial4.png","5"
"","1762","image-button-response","10","null","68401","689b8a7a4faa850af7a40460","689b922df403b09b2cf7b007","63f6ac6d4ce41fa2a87ea79b","5","S4_age4_trial5.png","false","false","https://kisumu-drawings.s3-us-west-1.amazonaws.com/tracings/S4_age4_trial5.png","2"
"","3173","image-button-response","11","null","72092","689b8a7a4faa850af7a40460","689b922df403b09b2cf7b007","63f6ac6d4ce41fa2a87ea79b","2","S37_age5_trial2.png","false","false","https://kisumu-drawings.s3-us-west-1.amazonaws.com/tracings/S37_age5_trial2.png","2"
"","2082","image-button-response","12","null","74684","689b8a7a4faa850af7a40460","689b922df403b09b2cf7b007","63f6ac6d4ce41fa2a87ea79b","1","S120_age9_trial1.png","false","false","https://kisumu-drawings.s3-us-west-1.amazonaws.com/tracings/S120_age9_trial1.png","2"
"","3538","image-button-response","13","null","78740","689b8a7a4faa850af7a40460","689b922df403b09b2cf7b007","63f6ac6d4ce41fa2a87ea79b","5","S120_age9_trial5.png","false","false","https://kisumu-drawings.s3-us-west-1.amazonaws.com/tracings/S120_age9_trial5.png","4"
"","2799","image-button-response","14","null","82050","689b8a7a4faa850af7a40460","689b922df403b09b2cf7b007","63f6ac6d4ce41fa2a87ea79b","5","S38_age5_trial5.png","false","false","https://kisumu-drawings.s3-us-west-1.amazonaws.com/tracings/S38_age5_trial5.png","2"
"","2023","image-button-response","15","null","84592","689b8a7a4faa850af7a40460","689b922df403b09b2cf7b007","63f6ac6d4ce41fa2a87ea79b","2","S116_age9_trial2.png","false","false","https://kisumu-drawings.s3-us-west-1.amazonaws.com/tracings/S116_age9_trial2.png","5"
"","1438","image-button-response","16","null","86538","689b8a7a4faa850af7a40460","689b922df403b09b2cf7b007","63f6ac6d4ce41fa2a87ea79b","4","S40_age5_trial4.png","false","false","https://kisumu-drawings.s3-us-west-1.amazonaws.com/tracings/S40_age5_trial4.png","5"
"","6041","image-button-response","17","null","93092","689b8a7a4faa850af7a40460","689b922df403b09b2cf7b007","63f6ac6d4ce41fa2a87ea79b","1","S116_age9_trial1.png","false","false","https://kisumu-drawings.s3-us-west-1.amazonaws.com/tracings/S116_age9_trial1.png","4"
"","2015","image-button-response","18","null","95610","689b8a7a4faa850af7a40460","689b922df403b09b2cf7b007","63f6ac6d4ce41fa2a87ea79b","4","S3_age4_trial4.png","false","false","https://kisumu-drawings.s3-us-west-1.amazonaws.com/tracings/S3_age4_trial4.png","1"
"","1923","image-button-response","19","null","98041","689b8a7a4faa850af7a40460","689b922df403b09b2cf7b007","63f6ac6d4ce41fa2a87ea79b","1","S58_age6_trial1.png","false","false","https://kisumu-drawings.s3-us-west-1.amazonaws.com/tracings/S58_age6_trial1.png","5"
"","2198","image-button-response","20","null","100751","689b8a7a4faa850af7a40460","689b922df403b09b2cf7b007","63f6ac6d4ce41fa2a87ea79b","5","S57_age6_trial5.png","false","false","https://kisumu-drawings.s3-us-west-1.amazonaws.com/tracings/S57_age6_trial5.png","4"
"","2868","image-button-response","21","null","104136","689b8a7a4faa850af7a40460","689b922df403b09b2cf7b007","63f6ac6d4ce41fa2a87ea79b","5","S80_age7_trial5.png","false","false","https://kisumu-drawings.s3-us-west-1.amazonaws.com/tracings/S80_age7_trial5.png","4"
"","2885","image-button-response","22","null","107538","689b8a7a4faa850af7a40460","689b922df403b09b2cf7b007","63f6ac6d4ce41fa2a87ea79b","1","S78_age7_trial1.png","false","false","https://kisumu-drawings.s3-us-west-1.amazonaws.com/tracings/S78_age7_trial1.png","4"
"","1778","image-button-response","23","null","109830","689b8a7a4faa850af7a40460","689b922df403b09b2cf7b007","63f6ac6d4ce41fa2a87ea79b","2","S78_age7_trial2.png","false","false","https://kisumu-drawings.s3-us-west-1.amazonaws.com/tracings/S78_age7_trial2.png","5"
"","1717","image-button-response","24","null","112064","689b8a7a4faa850af7a40460","689b922df403b09b2cf7b007","63f6ac6d4ce41fa2a87ea79b","4","S56_age6_trial4.png","false","false","https://kisumu-drawings.s3-us-west-1.amazonaws.com/tracings/S56_age6_trial4.png","5"
"","1086","image-button-response","25","null","113655","689b8a7a4faa850af7a40460","689b922df403b09b2cf7b007","63f6ac6d4ce41fa2a87ea79b","1","S93_age8_trial1.png","false","false","https://kisumu-drawings.s3-us-west-1.amazonaws.com/tracings/S93_age8_trial1.png","5"
"","2910","image-button-response","26","null","117078","689b8a7a4faa850af7a40460","689b922df403b09b2cf7b007","63f6ac6d4ce41fa2a87ea79b","2","S55_age6_trial2.png","false","false","https://kisumu-drawings.s3-us-west-1.amazonaws.com/tracings/S55_age6_trial2.png","4"
"","2623","image-button-response","27","null","120204","689b8a7a4faa850af7a40460","689b922df403b09b2cf7b007","63f6ac6d4ce41fa2a87ea79b","5","S94_age8_trial5.png","false","false","https://kisumu-drawings.s3-us-west-1.amazonaws.com/tracings/S94_age8_trial5.png","4"
"","1879","image-button-response","28","null","122599","689b8a7a4faa850af7a40460","689b922df403b09b2cf7b007","63f6ac6d4ce41fa2a87ea79b","1","S94_age8_trial1.png","false","false","https://kisumu-drawings.s3-us-west-1.amazonaws.com/tracings/S94_age8_trial1.png","4"
"","1589","image-button-response","29","null","124692","689b8a7a4faa850af7a40460","689b922df403b09b2cf7b007","63f6ac6d4ce41fa2a87ea79b","3","S3_age4_trial3.png","false","false","https://kisumu-drawings.s3-us-west-1.amazonaws.com/tracings/S3_age4_trial3.png","2"
"","2109","image-button-response","30","null","127314","689b8a7a4faa850af7a40460","689b922df403b09b2cf7b007","63f6ac6d4ce41fa2a87ea79b","3","S93_age8_trial3.png","false","false","https://kisumu-drawings.s3-us-west-1.amazonaws.com/tracings/S93_age8_trial3.png","5"
"","2007","image-button-response","31","null","129826","689b8a7a4faa850af7a40460","689b922df403b09b2cf7b007","63f6ac6d4ce41fa2a87ea79b","5","S97_age8_trial5.png","false","false","https://kisumu-drawings.s3-us-west-1.amazonaws.com/tracings/S97_age8_trial5.png","2"
"","2157","image-button-response","32","null","132486","689b8a7a4faa850af7a40460","689b922df403b09b2cf7b007","63f6ac6d4ce41fa2a87ea79b","4","S78_age7_trial4.png","false","false","https://kisumu-drawings.s3-us-west-1.amazonaws.com/tracings/S78_age7_trial4.png","5"
"","1473","image-button-response","33","null","134474","689b8a7a4faa850af7a40460","689b922df403b09b2cf7b007","63f6ac6d4ce41fa2a87ea79b","2","S94_age8_trial2.png","false","false","https://kisumu-drawings.s3-us-west-1.amazonaws.com/tracings/S94_age8_trial2.png","4"
"","2224","image-button-response","34","null","137208","689b8a7a4faa850af7a40460","689b922df403b09b2cf7b007","63f6ac6d4ce41fa2a87ea79b","2","S4_age4_trial2.png","false","false","https://kisumu-drawings.s3-us-west-1.amazonaws.com/tracings/S4_age4_trial2.png","2"
"","1579","image-button-response","35","null","139298","689b8a7a4faa850af7a40460","689b922df403b09b2cf7b007","63f6ac6d4ce41fa2a87ea79b","4","S4_age4_trial4.png","false","false","https://kisumu-drawings.s3-us-west-1.amazonaws.com/tracings/S4_age4_trial4.png","1"
"","1467","image-button-response","36","null","141274","689b8a7a4faa850af7a40460","689b922df403b09b2cf7b007","63f6ac6d4ce41fa2a87ea79b","5","S8_age4_trial5.png","false","false","https://kisumu-drawings.s3-us-west-1.amazonaws.com/tracings/S8_age4_trial5.png","1"
"","2238","image-button-response","37","null","144024","689b8a7a4faa850af7a40460","689b922df403b09b2cf7b007","63f6ac6d4ce41fa2a87ea79b","2","S120_age9_trial2.png","false","false","https://kisumu-drawings.s3-us-west-1.amazonaws.com/tracings/S120_age9_trial2.png","4"
"","1542","image-button-response","38","null","146078","689b8a7a4faa850af7a40460","689b922df403b09b2cf7b007","63f6ac6d4ce41fa2a87ea79b","3","S116_age9_trial3.png","false","false","https://kisumu-drawings.s3-us-west-1.amazonaws.com/tracings/S116_age9_trial3.png","5"
"","1126","image-button-response","39","null","147710","689b8a7a4faa850af7a40460","689b922df403b09b2cf7b007","63f6ac6d4ce41fa2a87ea79b","1","S40_age5_trial1.png","false","false","https://kisumu-drawings.s3-us-west-1.amazonaws.com/tracings/S40_age5_trial1.png","5"
"","1831","image-button-response","40","null","150052","689b8a7a4faa850af7a40460","689b922df403b09b2cf7b007","63f6ac6d4ce41fa2a87ea79b","2","S95_age8_trial2.png","false","false","https://kisumu-drawings.s3-us-west-1.amazonaws.com/tracings/S95_age8_trial2.png","5"
"","1842","image-button-response","41","null","152410","689b8a7a4faa850af7a40460","689b922df403b09b2cf7b007","63f6ac6d4ce41fa2a87ea79b","5","S55_age6_trial5.png","false","false","https://kisumu-drawings.s3-us-west-1.amazonaws.com/tracings/S55_age6_trial5.png","2"
"","1661","image-button-response","42","null","154584","689b8a7a4faa850af7a40460","689b922df403b09b2cf7b007","63f6ac6d4ce41fa2a87ea79b","3","S79_age7_trial3.png","false","false","https://kisumu-drawings.s3-us-west-1.amazonaws.com/tracings/S79_age7_trial3.png","4"
"","2334","image-button-response","43","null","157422","689b8a7a4faa850af7a40460","689b922df403b09b2cf7b007","63f6ac6d4ce41fa2a87ea79b","4","S79_age7_trial4.png","false","false","https://kisumu-drawings.s3-us-west-1.amazonaws.com/tracings/S79_age7_trial4.png","2"
"","3527","image-button-response","44","null","161464","689b8a7a4faa850af7a40460","689b922df403b09b2cf7b007","63f6ac6d4ce41fa2a87ea79b","3","S76_age7_trial3.png","false","false","https://kisumu-drawings.s3-us-west-1.amazonaws.com/tracings/S76_age7_trial3.png","4"
"","2796","image-button-response","45","null","164763","689b8a7a4faa850af7a40460","689b922df403b09b2cf7b007","63f6ac6d4ce41fa2a87ea79b","3","S56_age6_trial3.png","false","false","https://kisumu-drawings.s3-us-west-1.amazonaws.com/tracings/S56_age6_trial3.png","4"
"","1624","image-button-response","46","null","166894","689b8a7a4faa850af7a40460","689b922df403b09b2cf7b007","63f6ac6d4ce41fa2a87ea79b","2","","true","false","stimuli/catch_trials/catch_trial.png","1"
"","2533","image-button-response","47","null","169936","689b8a7a4faa850af7a40460","689b922df403b09b2cf7b007","63f6ac6d4ce41fa2a87ea79b","5","S115_age9_trial5.png","false","false","https://kisumu-drawings.s3-us-west-1.amazonaws.com/tracings/S115_age9_trial5.png","4"
"","2689","image-button-response","48","null","173140","689b8a7a4faa850af7a40460","689b922df403b09b2cf7b007","63f6ac6d4ce41fa2a87ea79b","2","S56_age6_trial2.png","false","false","https://kisumu-drawings.s3-us-west-1.amazonaws.com/tracings/S56_age6_trial2.png","4"
"","2382","image-button-response","49","null","176035","689b8a7a4faa850af7a40460","689b922df403b09b2cf7b007","63f6ac6d4ce41fa2a87ea79b","4","S55_age6_trial4.png","false","false","https://kisumu-drawings.s3-us-west-1.amazonaws.com/tracings/S55_age6_trial4.png","2"
"","1813","image-button-response","50","null","178351","689b8a7a4faa850af7a40460","689b922df403b09b2cf7b007","63f6ac6d4ce41fa2a87ea79b","4","S39_age5_trial4.png","false","false","https://kisumu-drawings.s3-us-west-1.amazonaws.com/tracings/S39_age5_trial4.png","1"
"","2061","image-button-response","51","null","180915","689b8a7a4faa850af7a40460","689b922df403b09b2cf7b007","63f6ac6d4ce41fa2a87ea79b","3","S94_age8_trial3.png","false","false","https://kisumu-drawings.s3-us-west-1.amazonaws.com/tracings/S94_age8_trial3.png","4"
"","1299","image-button-response","52","null","182716","689b8a7a4faa850af7a40460","689b922df403b09b2cf7b007","63f6ac6d4ce41fa2a87ea79b","2","S80_age7_trial2.png","false","false","https://kisumu-drawings.s3-us-west-1.amazonaws.com/tracings/S80_age7_trial2.png","4"
"","1875","image-button-response","53","null","185108","689b8a7a4faa850af7a40460","689b922df403b09b2cf7b007","63f6ac6d4ce41fa2a87ea79b","5","S39_age5_trial5.png","false","false","https://kisumu-drawings.s3-us-west-1.amazonaws.com/tracings/S39_age5_trial5.png","1"
"","1505","image-button-response","54","null","187125","689b8a7a4faa850af7a40460","689b922df403b09b2cf7b007","63f6ac6d4ce41fa2a87ea79b","2","S9_age4_trial2.png","false","false","https://kisumu-drawings.s3-us-west-1.amazonaws.com/tracings/S9_age4_trial2.png","1"
"","2554","image-button-response","55","null","190186","689b8a7a4faa850af7a40460","689b922df403b09b2cf7b007","63f6ac6d4ce41fa2a87ea79b","3","S55_age6_trial3.png","false","false","https://kisumu-drawings.s3-us-west-1.amazonaws.com/tracings/S55_age6_trial3.png","4"
"","2485","image-button-response","56","null","193174","689b8a7a4faa850af7a40460","689b922df403b09b2cf7b007","63f6ac6d4ce41fa2a87ea79b","1","S80_age7_trial1.png","false","false","https://kisumu-drawings.s3-us-west-1.amazonaws.com/tracings/S80_age7_trial1.png","4"
"","2555","image-button-response","57","null","196242","689b8a7a4faa850af7a40460","689b922df403b09b2cf7b007","63f6ac6d4ce41fa2a87ea79b","4","S94_age8_trial4.png","false","false","https://kisumu-drawings.s3-us-west-1.amazonaws.com/tracings/S94_age8_trial4.png","4"
"","1846","image-button-response","58","null","198602","689b8a7a4faa850af7a40460","689b922df403b09b2cf7b007","63f6ac6d4ce41fa2a87ea79b","3","S4_age4_trial3.png","false","false","https://kisumu-drawings.s3-us-west-1.amazonaws.com/tracings/S4_age4_trial3.png","2"
"","2308","image-button-response","59","null","201414","689b8a7a4faa850af7a40460","689b922df403b09b2cf7b007","63f6ac6d4ce41fa2a87ea79b","4","S97_age8_trial4.png","false","false","https://kisumu-drawings.s3-us-west-1.amazonaws.com/tracings/S97_age8_trial4.png","2"
"","1812","image-button-response","60","null","203730","689b8a7a4faa850af7a40460","689b922df403b09b2cf7b007","63f6ac6d4ce41fa2a87ea79b","3","S39_age5_trial3.png","false","false","https://kisumu-drawings.s3-us-west-1.amazonaws.com/tracings/S39_age5_trial3.png","2"
"","2651","image-button-response","61","null","206888","689b8a7a4faa850af7a40460","689b922df403b09b2cf7b007","63f6ac6d4ce41fa2a87ea79b","4","S116_age9_trial4.png","false","false","https://kisumu-drawings.s3-us-west-1.amazonaws.com/tracings/S116_age9_trial4.png","5"
