"view_history","rt","trial_type","trial_index","plugin_version","time_elapsed","study_id","session_id","participant_id","tracing_type","tracing_id","catch_trial","prep_trial","stimulus","response"
"[{""page_index"":0,""viewing_time"":12125},{""page_index"":1,""viewing_time"":11623},{""page_index"":2,""viewing_time"":8408},{""page_index"":3,""viewing_time"":4440},{""page_index"":4,""viewing_time"":10849}]","47445","instructions","0","null","47456","689b8a7a4faa850af7a40460","689bed87b7971dedf04de5ef","663176c4d9c9b4d919f7b79e","","","","","",""
"","46983","image-button-response","1","null","95446","689b8a7a4faa850af7a40460","689bed87b7971dedf04de5ef","663176c4d9c9b4d919f7b79e","3","S68_age7_trial3.png","false","false","https://kisumu-drawings.s3-us-west-1.amazonaws.com/tracings/S68_age7_trial3.png","5"
"","36097","image-button-response","2","null","132054","689b8a7a4faa850af7a40460","689bed87b7971dedf04de5ef","663176c4d9c9b4d919f7b79e","2","S39_age5_trial2.png","false","false","https://kisumu-drawings.s3-us-west-1.amazonaws.com/tracings/S39_age5_trial2.png","1"
"","26342","image-button-response","3","null","158910","689b8a7a4faa850af7a40460","689bed87b7971dedf04de5ef","663176c4d9c9b4d919f7b79e","1","S35_age5_trial1.png","false","false","https://kisumu-drawings.s3-us-west-1.amazonaws.com/tracings/S35_age5_trial1.png","4"
"","47254","image-button-response","4","null","206669","689b8a7a4faa850af7a40460","689bed87b7971dedf04de5ef","663176c4d9c9b4d919f7b79e","4","S94_age8_trial4.png","false","false","https://kisumu-drawings.s3-us-west-1.amazonaws.com/tracings/S94_age8_trial4.png","4"
"","23520","image-button-response","5","null","230702","689b8a7a4faa850af7a40460","689bed87b7971dedf04de5ef","663176c4d9c9b4d919f7b79e","2","S95_age8_trial2.png","false","false","https://kisumu-drawings.s3-us-west-1.amazonaws.com/tracings/S95_age8_trial2.png","4"
"","36347","image-button-response","6","null","267564","689b8a7a4faa850af7a40460","689bed87b7971dedf04de5ef","663176c4d9c9b4d919f7b79e","4","S70_age7_trial4.png","false","false","https://kisumu-drawings.s3-us-west-1.amazonaws.com/tracings/S70_age7_trial4.png","4"
"","44709","image-button-response","7","null","312790","689b8a7a4faa850af7a40460","689bed87b7971dedf04de5ef","663176c4d9c9b4d919f7b79e","5","S74_age7_trial5.png","false","false","https://kisumu-drawings.s3-us-west-1.amazonaws.com/tracings/S74_age7_trial5.png","2"
"","72347","image-button-response","8","null","385653","689b8a7a4faa850af7a40460","689bed87b7971dedf04de5ef","663176c4d9c9b4d919f7b79e","1","S90_age8_trial1.png","false","false","https://kisumu-drawings.s3-us-west-1.amazonaws.com/tracings/S90_age8_trial1.png","4"
"","54408","image-button-response","9","null","440574","689b8a7a4faa850af7a40460","689bed87b7971dedf04de5ef","663176c4d9c9b4d919f7b79e","2","S94_age8_trial2.png","false","false","https://kisumu-drawings.s3-us-west-1.amazonaws.com/tracings/S94_age8_trial2.png","4"
"","39453","image-button-response","10","null","480564","689b8a7a4faa850af7a40460","689bed87b7971dedf04de5ef","663176c4d9c9b4d919f7b79e","3","S9_age4_trial3.png","false","false","https://kisumu-drawings.s3-us-west-1.amazonaws.com/tracings/S9_age4_trial3.png","1"
"","32441","image-button-response","11","null","513510","689b8a7a4faa850af7a40460","689bed87b7971dedf04de5ef","663176c4d9c9b4d919f7b79e","3","S97_age8_trial3.png","false","false","https://kisumu-drawings.s3-us-west-1.amazonaws.com/tracings/S97_age8_trial3.png","2"
"","32358","image-button-response","12","null","546373","689b8a7a4faa850af7a40460","689bed87b7971dedf04de5ef","663176c4d9c9b4d919f7b79e","5","S60_age6_trial5.png","false","false","https://kisumu-drawings.s3-us-west-1.amazonaws.com/tracings/S60_age6_trial5.png","5"
"","42535","image-button-response","13","null","589420","689b8a7a4faa850af7a40460","689bed87b7971dedf04de5ef","663176c4d9c9b4d919f7b79e","1","S120_age9_trial1.png","false","false","https://kisumu-drawings.s3-us-west-1.amazonaws.com/tracings/S120_age9_trial1.png","4"
"","67452","image-button-response","14","null","657382","689b8a7a4faa850af7a40460","689bed87b7971dedf04de5ef","663176c4d9c9b4d919f7b79e","3","S36_age5_trial3.png","false","false","https://kisumu-drawings.s3-us-west-1.amazonaws.com/tracings/S36_age5_trial3.png","4"
"","36406","image-button-response","15","null","694294","689b8a7a4faa850af7a40460","689bed87b7971dedf04de5ef","663176c4d9c9b4d919f7b79e","2","S117_age9_trial2.png","false","false","https://kisumu-drawings.s3-us-west-1.amazonaws.com/tracings/S117_age9_trial2.png","5"
"","47419","image-button-response","16","null","742229","689b8a7a4faa850af7a40460","689bed87b7971dedf04de5ef","663176c4d9c9b4d919f7b79e","2","S72_age7_trial2.png","false","false","https://kisumu-drawings.s3-us-west-1.amazonaws.com/tracings/S72_age7_trial2.png","3"
"","36063","image-button-response","17","null","778796","689b8a7a4faa850af7a40460","689bed87b7971dedf04de5ef","663176c4d9c9b4d919f7b79e","4","S109_age9_trial4.png","false","false","https://kisumu-drawings.s3-us-west-1.amazonaws.com/tracings/S109_age9_trial4.png","3"
"","83611","image-button-response","18","null","862917","689b8a7a4faa850af7a40460","689bed87b7971dedf04de5ef","663176c4d9c9b4d919f7b79e","2","S2_age4_trial2.png","false","false","https://kisumu-drawings.s3-us-west-1.amazonaws.com/tracings/S2_age4_trial2.png","1"
"","58410","image-button-response","19","null","921844","689b8a7a4faa850af7a40460","689bed87b7971dedf04de5ef","663176c4d9c9b4d919f7b79e","5","S8_age4_trial5.png","false","false","https://kisumu-drawings.s3-us-west-1.amazonaws.com/tracings/S8_age4_trial5.png","1"
"","210922","image-button-response","20","null","1133285","689b8a7a4faa850af7a40460","689bed87b7971dedf04de5ef","663176c4d9c9b4d919f7b79e","4","S77_age7_trial4.png","false","false","https://kisumu-drawings.s3-us-west-1.amazonaws.com/tracings/S77_age7_trial4.png","2"
"","8148","image-button-response","21","null","1141942","689b8a7a4faa850af7a40460","689bed87b7971dedf04de5ef","663176c4d9c9b4d919f7b79e","1","S52_age6_trial1.png","false","false","https://kisumu-drawings.s3-us-west-1.amazonaws.com/tracings/S52_age6_trial1.png","2"
"","32302","image-button-response","22","null","1174756","689b8a7a4faa850af7a40460","689bed87b7971dedf04de5ef","663176c4d9c9b4d919f7b79e","4","S119_age9_trial4.png","false","false","https://kisumu-drawings.s3-us-west-1.amazonaws.com/tracings/S119_age9_trial4.png","3"
"","9827","image-button-response","23","null","1185102","689b8a7a4faa850af7a40460","689bed87b7971dedf04de5ef","663176c4d9c9b4d919f7b79e","5","S119_age9_trial5.png","false","false","https://kisumu-drawings.s3-us-west-1.amazonaws.com/tracings/S119_age9_trial5.png","4"
"","12878","image-button-response","24","null","1198492","689b8a7a4faa850af7a40460","689bed87b7971dedf04de5ef","663176c4d9c9b4d919f7b79e","3","S39_age5_trial3.png","false","false","https://kisumu-drawings.s3-us-west-1.amazonaws.com/tracings/S39_age5_trial3.png","1"
"","22403","image-button-response","25","null","1221405","689b8a7a4faa850af7a40460","689bed87b7971dedf04de5ef","663176c4d9c9b4d919f7b79e","3","S116_age9_trial3.png","false","false","https://kisumu-drawings.s3-us-west-1.amazonaws.com/tracings/S116_age9_trial3.png","5"
"","15571","image-button-response","26","null","1237493","689b8a7a4faa850af7a40460","689bed87b7971dedf04de5ef","663176c4d9c9b4d919f7b79e","4","S60_age6_trial4.png","false","false","https://kisumu-drawings.s3-us-west-1.amazonaws.com/tracings/S60_age6_trial4.png","5"
"","10132","image-button-response","27","null","1248132","689b8a7a4faa850af7a40460","689bed87b7971dedf04de5ef","663176c4d9c9b4d919f7b79e","4","S52_age6_trial4.png","false","false","https://kisumu-drawings.s3-us-west-1.amazonaws.com/tracings/S52_age6_trial4.png","3"
"","10780","image-button-response","28","null","1259419","689b8a7a4faa850af7a40460","689bed87b7971dedf04de5ef","663176c4d9c9b4d919f7b79e","3","S80_age7_trial3.png","false","false","https://kisumu-drawings.s3-us-west-1.amazonaws.com/tracings/S80_age7_trial3.png","2"
"","17344","image-button-response","29","null","1277277","689b8a7a4faa850af7a40460","689bed87b7971dedf04de5ef","663176c4d9c9b4d919f7b79e","5","S55_age6_trial5.png","false","false","https://kisumu-drawings.s3-us-west-1.amazonaws.com/tracings/S55_age6_trial5.png","2"
"","6237","image-button-response","30","null","1284021","689b8a7a4faa850af7a40460","689bed87b7971dedf04de5ef","663176c4d9c9b4d919f7b79e","1","S39_age5_trial1.png","false","false","https://kisumu-drawings.s3-us-west-1.amazonaws.com/tracings/S39_age5_trial1.png","1"
"","8939","image-button-response","31","null","1293469","689b8a7a4faa850af7a40460","689bed87b7971dedf04de5ef","663176c4d9c9b4d919f7b79e","2","S59_age6_trial2.png","false","false","https://kisumu-drawings.s3-us-west-1.amazonaws.com/tracings/S59_age6_trial2.png","2"
"","6092","image-button-response","32","null","1300070","689b8a7a4faa850af7a40460","689bed87b7971dedf04de5ef","663176c4d9c9b4d919f7b79e","1","S94_age8_trial1.png","false","false","https://kisumu-drawings.s3-us-west-1.amazonaws.com/tracings/S94_age8_trial1.png","4"
"","58324","image-button-response","33","null","1358910","689b8a7a4faa850af7a40460","689bed87b7971dedf04de5ef","663176c4d9c9b4d919f7b79e","5","S36_age5_trial5.png","false","false","https://kisumu-drawings.s3-us-west-1.amazonaws.com/tracings/S36_age5_trial5.png","2"
"","4032","image-button-response","34","null","1363453","689b8a7a4faa850af7a40460","689bed87b7971dedf04de5ef","663176c4d9c9b4d919f7b79e","2","S37_age5_trial2.png","false","false","https://kisumu-drawings.s3-us-west-1.amazonaws.com/tracings/S37_age5_trial2.png","2"
"","10593","image-button-response","35","null","1374557","689b8a7a4faa850af7a40460","689bed87b7971dedf04de5ef","663176c4d9c9b4d919f7b79e","4","S2_age4_trial4.png","false","false","https://kisumu-drawings.s3-us-west-1.amazonaws.com/tracings/S2_age4_trial4.png","1"
"","9617","image-button-response","36","null","1384693","689b8a7a4faa850af7a40460","689bed87b7971dedf04de5ef","663176c4d9c9b4d919f7b79e","5","S94_age8_trial5.png","false","false","https://kisumu-drawings.s3-us-west-1.amazonaws.com/tracings/S94_age8_trial5.png","5"
"","64688","image-button-response","37","null","1449901","689b8a7a4faa850af7a40460","689bed87b7971dedf04de5ef","663176c4d9c9b4d919f7b79e","3","S2_age4_trial3.png","false","false","https://kisumu-drawings.s3-us-west-1.amazonaws.com/tracings/S2_age4_trial3.png","1"
"","36088","image-button-response","38","null","1486501","689b8a7a4faa850af7a40460","689bed87b7971dedf04de5ef","663176c4d9c9b4d919f7b79e","4","S40_age5_trial4.png","false","false","https://kisumu-drawings.s3-us-west-1.amazonaws.com/tracings/S40_age5_trial4.png","3"
"","24522","image-button-response","39","null","1511533","689b8a7a4faa850af7a40460","689bed87b7971dedf04de5ef","663176c4d9c9b4d919f7b79e","5","S79_age7_trial5.png","false","false","https://kisumu-drawings.s3-us-west-1.amazonaws.com/tracings/S79_age7_trial5.png","3"
"","28696","image-button-response","40","null","1540747","689b8a7a4faa850af7a40460","689bed87b7971dedf04de5ef","663176c4d9c9b4d919f7b79e","2","S4_age4_trial2.png","false","false","https://kisumu-drawings.s3-us-west-1.amazonaws.com/tracings/S4_age4_trial2.png","3"
"","61036","image-button-response","41","null","1602293","689b8a7a4faa850af7a40460","689bed87b7971dedf04de5ef","663176c4d9c9b4d919f7b79e","2","S49_age6_trial2.png","false","false","https://kisumu-drawings.s3-us-west-1.amazonaws.com/tracings/S49_age6_trial2.png","3"
"","52089","image-button-response","42","null","1654885","689b8a7a4faa850af7a40460","689bed87b7971dedf04de5ef","663176c4d9c9b4d919f7b79e","3","S55_age6_trial3.png","false","false","https://kisumu-drawings.s3-us-west-1.amazonaws.com/tracings/S55_age6_trial3.png","2"
"","17090","image-button-response","43","null","1672484","689b8a7a4faa850af7a40460","689bed87b7971dedf04de5ef","663176c4d9c9b4d919f7b79e","4","S38_age5_trial4.png","false","false","https://kisumu-drawings.s3-us-west-1.amazonaws.com/tracings/S38_age5_trial4.png","1"
"","6993","image-button-response","44","null","1679988","689b8a7a4faa850af7a40460","689bed87b7971dedf04de5ef","663176c4d9c9b4d919f7b79e","1","S74_age7_trial1.png","false","false","https://kisumu-drawings.s3-us-west-1.amazonaws.com/tracings/S74_age7_trial1.png","4"
"","7143","image-button-response","45","null","1687645","689b8a7a4faa850af7a40460","689bed87b7971dedf04de5ef","663176c4d9c9b4d919f7b79e","2","","true","false","stimuli/catch_trials/catch_trial.png","1"
"","30593","image-button-response","46","null","1718749","689b8a7a4faa850af7a40460","689bed87b7971dedf04de5ef","663176c4d9c9b4d919f7b79e","1","S7_age4_trial1.png","false","false","https://kisumu-drawings.s3-us-west-1.amazonaws.com/tracings/S7_age4_trial1.png","1"
"","35834","image-button-response","47","null","1755101","689b8a7a4faa850af7a40460","689bed87b7971dedf04de5ef","663176c4d9c9b4d919f7b79e","3","S95_age8_trial3.png","false","false","https://kisumu-drawings.s3-us-west-1.amazonaws.com/tracings/S95_age8_trial3.png","4"
"","20954","image-button-response","48","null","1776573","689b8a7a4faa850af7a40460","689bed87b7971dedf04de5ef","663176c4d9c9b4d919f7b79e","1","S55_age6_trial1.png","false","false","https://kisumu-drawings.s3-us-west-1.amazonaws.com/tracings/S55_age6_trial1.png","2"
"","17840","image-button-response","49","null","1794917","689b8a7a4faa850af7a40460","689bed87b7971dedf04de5ef","663176c4d9c9b4d919f7b79e","1","S117_age9_trial1.png","false","false","https://kisumu-drawings.s3-us-west-1.amazonaws.com/tracings/S117_age9_trial1.png","4"
"","20494","image-button-response","50","null","1815925","689b8a7a4faa850af7a40460","689bed87b7971dedf04de5ef","663176c4d9c9b4d919f7b79e","1","S75_age7_trial1.png","false","false","https://kisumu-drawings.s3-us-west-1.amazonaws.com/tracings/S75_age7_trial1.png","4"
"","14681","image-button-response","51","null","1831109","689b8a7a4faa850af7a40460","689bed87b7971dedf04de5ef","663176c4d9c9b4d919f7b79e","5","S116_age9_trial5.png","false","false","https://kisumu-drawings.s3-us-west-1.amazonaws.com/tracings/S116_age9_trial5.png","5"
"","38329","image-button-response","52","null","1869957","689b8a7a4faa850af7a40460","689bed87b7971dedf04de5ef","663176c4d9c9b4d919f7b79e","4","S92_age8_trial4.png","false","false","https://kisumu-drawings.s3-us-west-1.amazonaws.com/tracings/S92_age8_trial4.png","4"
"","15819","image-button-response","53","null","1886293","689b8a7a4faa850af7a40460","689bed87b7971dedf04de5ef","663176c4d9c9b4d919f7b79e","5","S91_age8_trial5.png","false","false","https://kisumu-drawings.s3-us-west-1.amazonaws.com/tracings/S91_age8_trial5.png","5"
"","13044","image-button-response","54","null","1899864","689b8a7a4faa850af7a40460","689bed87b7971dedf04de5ef","663176c4d9c9b4d919f7b79e","3","S113_age9_trial3.png","false","false","https://kisumu-drawings.s3-us-west-1.amazonaws.com/tracings/S113_age9_trial3.png","5"
"","9291","image-button-response","55","null","1909669","689b8a7a4faa850af7a40460","689bed87b7971dedf04de5ef","663176c4d9c9b4d919f7b79e","2","S78_age7_trial2.png","false","false","https://kisumu-drawings.s3-us-west-1.amazonaws.com/tracings/S78_age7_trial2.png","4"
"","14445","image-button-response","56","null","1924629","689b8a7a4faa850af7a40460","689bed87b7971dedf04de5ef","663176c4d9c9b4d919f7b79e","5","S5_age4_trial5.png","false","false","https://kisumu-drawings.s3-us-west-1.amazonaws.com/tracings/S5_age4_trial5.png","1"
"","171500","image-button-response","57","null","2096637","689b8a7a4faa850af7a40460","689bed87b7971dedf04de5ef","663176c4d9c9b4d919f7b79e","1","S4_age4_trial1.png","false","false","https://kisumu-drawings.s3-us-west-1.amazonaws.com/tracings/S4_age4_trial1.png","1"
"","7099","image-button-response","58","null","2104253","689b8a7a4faa850af7a40460","689bed87b7971dedf04de5ef","663176c4d9c9b4d919f7b79e","4","S7_age4_trial4.png","false","false","https://kisumu-drawings.s3-us-west-1.amazonaws.com/tracings/S7_age4_trial4.png","1"
"","11380","image-button-response","59","null","2116149","689b8a7a4faa850af7a40460","689bed87b7971dedf04de5ef","663176c4d9c9b4d919f7b79e","2","S114_age9_trial2.png","false","false","https://kisumu-drawings.s3-us-west-1.amazonaws.com/tracings/S114_age9_trial2.png","4"
"","14660","image-button-response","60","null","2131325","689b8a7a4faa850af7a40460","689bed87b7971dedf04de5ef","663176c4d9c9b4d919f7b79e","5","S38_age5_trial5.png","false","false","https://kisumu-drawings.s3-us-west-1.amazonaws.com/tracings/S38_age5_trial5.png","3"
"","8368","image-button-response","61","null","2140197","689b8a7a4faa850af7a40460","689bed87b7971dedf04de5ef","663176c4d9c9b4d919f7b79e","3","S54_age6_trial3.png","false","false","https://kisumu-drawings.s3-us-west-1.amazonaws.com/tracings/S54_age6_trial3.png","2"
