"view_history","rt","trial_type","trial_index","plugin_version","time_elapsed","study_id","session_id","participant_id","tracing_type","tracing_id","catch_trial","prep_trial","stimulus","response"
"[{""page_index"":0,""viewing_time"":12051},{""page_index"":1,""viewing_time"":10932},{""page_index"":2,""viewing_time"":20929},{""page_index"":3,""viewing_time"":10812},{""page_index"":4,""viewing_time"":9781}]","64506","instructions","0","null","64513","689b8a7a4faa850af7a40460","689bcc35c3d7bcc41d91b6b1","6692d2d89afd0ca6187bc086","","","","","",""
"","14218","image-button-response","1","null","79745","689b8a7a4faa850af7a40460","689bcc35c3d7bcc41d91b6b1","6692d2d89afd0ca6187bc086","1","S80_age7_trial1.png","false","false","https://kisumu-drawings.s3-us-west-1.amazonaws.com/tracings/S80_age7_trial1.png","3"
"","11660","image-button-response","2","null","91911","689b8a7a4faa850af7a40460","689bcc35c3d7bcc41d91b6b1","6692d2d89afd0ca6187bc086","1","S38_age5_trial1.png","false","false","https://kisumu-drawings.s3-us-west-1.amazonaws.com/tracings/S38_age5_trial1.png","4"
"","9946","image-button-response","3","null","102363","689b8a7a4faa850af7a40460","689bcc35c3d7bcc41d91b6b1","6692d2d89afd0ca6187bc086","3","S57_age6_trial3.png","false","false","https://kisumu-drawings.s3-us-west-1.amazonaws.com/tracings/S57_age6_trial3.png","2"
"","3464","image-button-response","4","null","106332","689b8a7a4faa850af7a40460","689bcc35c3d7bcc41d91b6b1","6692d2d89afd0ca6187bc086","5","S117_age9_trial5.png","false","false","https://kisumu-drawings.s3-us-west-1.amazonaws.com/tracings/S117_age9_trial5.png","4"
"","4584","image-button-response","5","null","111425","689b8a7a4faa850af7a40460","689bcc35c3d7bcc41d91b6b1","6692d2d89afd0ca6187bc086","2","S58_age6_trial2.png","false","false","https://kisumu-drawings.s3-us-west-1.amazonaws.com/tracings/S58_age6_trial2.png","4"
"","4024","image-button-response","6","null","115958","689b8a7a4faa850af7a40460","689bcc35c3d7bcc41d91b6b1","6692d2d89afd0ca6187bc086","4","S77_age7_trial4.png","false","false","https://kisumu-drawings.s3-us-west-1.amazonaws.com/tracings/S77_age7_trial4.png","4"
"","4178","image-button-response","7","null","120642","689b8a7a4faa850af7a40460","689bcc35c3d7bcc41d91b6b1","6692d2d89afd0ca6187bc086","2","S120_age9_trial2.png","false","false","https://kisumu-drawings.s3-us-west-1.amazonaws.com/tracings/S120_age9_trial2.png","4"
"","3745","image-button-response","8","null","124895","689b8a7a4faa850af7a40460","689bcc35c3d7bcc41d91b6b1","6692d2d89afd0ca6187bc086","4","S117_age9_trial4.png","false","false","https://kisumu-drawings.s3-us-west-1.amazonaws.com/tracings/S117_age9_trial4.png","4"
"","2333","image-button-response","9","null","127740","689b8a7a4faa850af7a40460","689bcc35c3d7bcc41d91b6b1","6692d2d89afd0ca6187bc086","4","S93_age8_trial4.png","false","false","https://kisumu-drawings.s3-us-west-1.amazonaws.com/tracings/S93_age8_trial4.png","4"
"","3689","image-button-response","10","null","131938","689b8a7a4faa850af7a40460","689bcc35c3d7bcc41d91b6b1","6692d2d89afd0ca6187bc086","3","S93_age8_trial3.png","false","false","https://kisumu-drawings.s3-us-west-1.amazonaws.com/tracings/S93_age8_trial3.png","4"
"","3011","image-button-response","11","null","135458","689b8a7a4faa850af7a40460","689bcc35c3d7bcc41d91b6b1","6692d2d89afd0ca6187bc086","5","S34_age5_trial5.png","false","false","https://kisumu-drawings.s3-us-west-1.amazonaws.com/tracings/S34_age5_trial5.png","2"
"","3618","image-button-response","12","null","139587","689b8a7a4faa850af7a40460","689bcc35c3d7bcc41d91b6b1","6692d2d89afd0ca6187bc086","3","S119_age9_trial3.png","false","false","https://kisumu-drawings.s3-us-west-1.amazonaws.com/tracings/S119_age9_trial3.png","4"
"","3525","image-button-response","13","null","143620","689b8a7a4faa850af7a40460","689bcc35c3d7bcc41d91b6b1","6692d2d89afd0ca6187bc086","1","S34_age5_trial1.png","false","false","https://kisumu-drawings.s3-us-west-1.amazonaws.com/tracings/S34_age5_trial1.png","2"
"","5426","image-button-response","14","null","149552","689b8a7a4faa850af7a40460","689bcc35c3d7bcc41d91b6b1","6692d2d89afd0ca6187bc086","4","S98_age8_trial4.png","false","false","https://kisumu-drawings.s3-us-west-1.amazonaws.com/tracings/S98_age8_trial4.png","2"
"","1957","image-button-response","15","null","152016","689b8a7a4faa850af7a40460","689bcc35c3d7bcc41d91b6b1","6692d2d89afd0ca6187bc086","1","S119_age9_trial1.png","false","false","https://kisumu-drawings.s3-us-west-1.amazonaws.com/tracings/S119_age9_trial1.png","4"
"","3576","image-button-response","16","null","156100","689b8a7a4faa850af7a40460","689bcc35c3d7bcc41d91b6b1","6692d2d89afd0ca6187bc086","5","S59_age6_trial5.png","false","false","https://kisumu-drawings.s3-us-west-1.amazonaws.com/tracings/S59_age6_trial5.png","2"
"","2471","image-button-response","17","null","159077","689b8a7a4faa850af7a40460","689bcc35c3d7bcc41d91b6b1","6692d2d89afd0ca6187bc086","5","S55_age6_trial5.png","false","false","https://kisumu-drawings.s3-us-west-1.amazonaws.com/tracings/S55_age6_trial5.png","2"
"","2059","image-button-response","18","null","161640","689b8a7a4faa850af7a40460","689bcc35c3d7bcc41d91b6b1","6692d2d89afd0ca6187bc086","5","S9_age4_trial5.png","false","false","https://kisumu-drawings.s3-us-west-1.amazonaws.com/tracings/S9_age4_trial5.png","2"
"","2401","image-button-response","19","null","164545","689b8a7a4faa850af7a40460","689bcc35c3d7bcc41d91b6b1","6692d2d89afd0ca6187bc086","3","S114_age9_trial3.png","false","false","https://kisumu-drawings.s3-us-west-1.amazonaws.com/tracings/S114_age9_trial3.png","4"
"","11807","image-button-response","20","null","176859","689b8a7a4faa850af7a40460","689bcc35c3d7bcc41d91b6b1","6692d2d89afd0ca6187bc086","5","S116_age9_trial5.png","false","false","https://kisumu-drawings.s3-us-west-1.amazonaws.com/tracings/S116_age9_trial5.png","4"
"","12656","image-button-response","21","null","190024","689b8a7a4faa850af7a40460","689bcc35c3d7bcc41d91b6b1","6692d2d89afd0ca6187bc086","4","S75_age7_trial4.png","false","false","https://kisumu-drawings.s3-us-west-1.amazonaws.com/tracings/S75_age7_trial4.png","2"
"","4661","image-button-response","22","null","195197","689b8a7a4faa850af7a40460","689bcc35c3d7bcc41d91b6b1","6692d2d89afd0ca6187bc086","2","S98_age8_trial2.png","false","false","https://kisumu-drawings.s3-us-west-1.amazonaws.com/tracings/S98_age8_trial2.png","4"
"","4805","image-button-response","23","null","200512","689b8a7a4faa850af7a40460","689bcc35c3d7bcc41d91b6b1","6692d2d89afd0ca6187bc086","5","S98_age8_trial5.png","false","false","https://kisumu-drawings.s3-us-west-1.amazonaws.com/tracings/S98_age8_trial5.png","4"
"","2610","image-button-response","24","null","203628","689b8a7a4faa850af7a40460","689bcc35c3d7bcc41d91b6b1","6692d2d89afd0ca6187bc086","3","S95_age8_trial3.png","false","false","https://kisumu-drawings.s3-us-west-1.amazonaws.com/tracings/S95_age8_trial3.png","4"
"","3120","image-button-response","25","null","207255","689b8a7a4faa850af7a40460","689bcc35c3d7bcc41d91b6b1","6692d2d89afd0ca6187bc086","1","S6_age4_trial1.png","false","false","https://kisumu-drawings.s3-us-west-1.amazonaws.com/tracings/S6_age4_trial1.png","2"
"","4865","image-button-response","26","null","212632","689b8a7a4faa850af7a40460","689bcc35c3d7bcc41d91b6b1","6692d2d89afd0ca6187bc086","5","S76_age7_trial5.png","false","false","https://kisumu-drawings.s3-us-west-1.amazonaws.com/tracings/S76_age7_trial5.png","4"
"","6261","image-button-response","27","null","219404","689b8a7a4faa850af7a40460","689bcc35c3d7bcc41d91b6b1","6692d2d89afd0ca6187bc086","2","S117_age9_trial2.png","false","false","https://kisumu-drawings.s3-us-west-1.amazonaws.com/tracings/S117_age9_trial2.png","4"
"","2607","image-button-response","28","null","222519","689b8a7a4faa850af7a40460","689bcc35c3d7bcc41d91b6b1","6692d2d89afd0ca6187bc086","4","S34_age5_trial4.png","false","false","https://kisumu-drawings.s3-us-west-1.amazonaws.com/tracings/S34_age5_trial4.png","2"
"","2269","image-button-response","29","null","225295","689b8a7a4faa850af7a40460","689bcc35c3d7bcc41d91b6b1","6692d2d89afd0ca6187bc086","5","S2_age4_trial5.png","false","false","https://kisumu-drawings.s3-us-west-1.amazonaws.com/tracings/S2_age4_trial5.png","2"
"","1971","image-button-response","30","null","227773","689b8a7a4faa850af7a40460","689bcc35c3d7bcc41d91b6b1","6692d2d89afd0ca6187bc086","4","S3_age4_trial4.png","false","false","https://kisumu-drawings.s3-us-west-1.amazonaws.com/tracings/S3_age4_trial4.png","2"
"","2007","image-button-response","31","null","230291","689b8a7a4faa850af7a40460","689bcc35c3d7bcc41d91b6b1","6692d2d89afd0ca6187bc086","2","S80_age7_trial2.png","false","false","https://kisumu-drawings.s3-us-west-1.amazonaws.com/tracings/S80_age7_trial2.png","4"
"","2464","image-button-response","32","null","233263","689b8a7a4faa850af7a40460","689bcc35c3d7bcc41d91b6b1","6692d2d89afd0ca6187bc086","4","S35_age5_trial4.png","false","false","https://kisumu-drawings.s3-us-west-1.amazonaws.com/tracings/S35_age5_trial4.png","2"
"","2228","image-button-response","33","null","235997","689b8a7a4faa850af7a40460","689bcc35c3d7bcc41d91b6b1","6692d2d89afd0ca6187bc086","4","S59_age6_trial4.png","false","false","https://kisumu-drawings.s3-us-west-1.amazonaws.com/tracings/S59_age6_trial4.png","2"
"","2444","image-button-response","34","null","238946","689b8a7a4faa850af7a40460","689bcc35c3d7bcc41d91b6b1","6692d2d89afd0ca6187bc086","5","S36_age5_trial5.png","false","false","https://kisumu-drawings.s3-us-west-1.amazonaws.com/tracings/S36_age5_trial5.png","2"
"","5617","image-button-response","35","null","245072","689b8a7a4faa850af7a40460","689bcc35c3d7bcc41d91b6b1","6692d2d89afd0ca6187bc086","2","","true","false","stimuli/catch_trials/catch_trial.png","2"
"","3991","image-button-response","36","null","249572","689b8a7a4faa850af7a40460","689bcc35c3d7bcc41d91b6b1","6692d2d89afd0ca6187bc086","3","S59_age6_trial3.png","false","false","https://kisumu-drawings.s3-us-west-1.amazonaws.com/tracings/S59_age6_trial3.png","2"
"","2658","image-button-response","37","null","252737","689b8a7a4faa850af7a40460","689bcc35c3d7bcc41d91b6b1","6692d2d89afd0ca6187bc086","3","S5_age4_trial3.png","false","false","https://kisumu-drawings.s3-us-west-1.amazonaws.com/tracings/S5_age4_trial3.png","2"
"","2555","image-button-response","38","null","255803","689b8a7a4faa850af7a40460","689bcc35c3d7bcc41d91b6b1","6692d2d89afd0ca6187bc086","1","S54_age6_trial1.png","false","false","https://kisumu-drawings.s3-us-west-1.amazonaws.com/tracings/S54_age6_trial1.png","2"
"","3505","image-button-response","39","null","259817","689b8a7a4faa850af7a40460","689bcc35c3d7bcc41d91b6b1","6692d2d89afd0ca6187bc086","2","S79_age7_trial2.png","false","false","https://kisumu-drawings.s3-us-west-1.amazonaws.com/tracings/S79_age7_trial2.png","4"
"","2603","image-button-response","40","null","262933","689b8a7a4faa850af7a40460","689bcc35c3d7bcc41d91b6b1","6692d2d89afd0ca6187bc086","2","S55_age6_trial2.png","false","false","https://kisumu-drawings.s3-us-west-1.amazonaws.com/tracings/S55_age6_trial2.png","4"
"","2420","image-button-response","41","null","265864","689b8a7a4faa850af7a40460","689bcc35c3d7bcc41d91b6b1","6692d2d89afd0ca6187bc086","2","S34_age5_trial2.png","false","false","https://kisumu-drawings.s3-us-west-1.amazonaws.com/tracings/S34_age5_trial2.png","2"
"","4201","image-button-response","42","null","270577","689b8a7a4faa850af7a40460","689bcc35c3d7bcc41d91b6b1","6692d2d89afd0ca6187bc086","1","S77_age7_trial1.png","false","false","https://kisumu-drawings.s3-us-west-1.amazonaws.com/tracings/S77_age7_trial1.png","4"
"","2358","image-button-response","43","null","273441","689b8a7a4faa850af7a40460","689bcc35c3d7bcc41d91b6b1","6692d2d89afd0ca6187bc086","1","S95_age8_trial1.png","false","false","https://kisumu-drawings.s3-us-west-1.amazonaws.com/tracings/S95_age8_trial1.png","2"
"","1890","image-button-response","44","null","275840","689b8a7a4faa850af7a40460","689bcc35c3d7bcc41d91b6b1","6692d2d89afd0ca6187bc086","3","S33_age5_trial3.png","false","false","https://kisumu-drawings.s3-us-west-1.amazonaws.com/tracings/S33_age5_trial3.png","2"
"","2674","image-button-response","45","null","279021","689b8a7a4faa850af7a40460","689bcc35c3d7bcc41d91b6b1","6692d2d89afd0ca6187bc086","3","S39_age5_trial3.png","false","false","https://kisumu-drawings.s3-us-west-1.amazonaws.com/tracings/S39_age5_trial3.png","2"
"","2973","image-button-response","46","null","282501","689b8a7a4faa850af7a40460","689bcc35c3d7bcc41d91b6b1","6692d2d89afd0ca6187bc086","3","S7_age4_trial3.png","false","false","https://kisumu-drawings.s3-us-west-1.amazonaws.com/tracings/S7_age4_trial3.png","2"
"","3476","image-button-response","47","null","286486","689b8a7a4faa850af7a40460","689bcc35c3d7bcc41d91b6b1","6692d2d89afd0ca6187bc086","4","S54_age6_trial4.png","false","false","https://kisumu-drawings.s3-us-west-1.amazonaws.com/tracings/S54_age6_trial4.png","2"
"","3238","image-button-response","48","null","290233","689b8a7a4faa850af7a40460","689bcc35c3d7bcc41d91b6b1","6692d2d89afd0ca6187bc086","1","S59_age6_trial1.png","false","false","https://kisumu-drawings.s3-us-west-1.amazonaws.com/tracings/S59_age6_trial1.png","2"
"","4004","image-button-response","49","null","294745","689b8a7a4faa850af7a40460","689bcc35c3d7bcc41d91b6b1","6692d2d89afd0ca6187bc086","4","S118_age9_trial4.png","false","false","https://kisumu-drawings.s3-us-west-1.amazonaws.com/tracings/S118_age9_trial4.png","4"
"","2607","image-button-response","50","null","297862","689b8a7a4faa850af7a40460","689bcc35c3d7bcc41d91b6b1","6692d2d89afd0ca6187bc086","5","S97_age8_trial5.png","false","false","https://kisumu-drawings.s3-us-west-1.amazonaws.com/tracings/S97_age8_trial5.png","2"
"","2843","image-button-response","51","null","301212","689b8a7a4faa850af7a40460","689bcc35c3d7bcc41d91b6b1","6692d2d89afd0ca6187bc086","2","S8_age4_trial2.png","false","false","https://kisumu-drawings.s3-us-west-1.amazonaws.com/tracings/S8_age4_trial2.png","2"
"","17301","image-button-response","52","null","319026","689b8a7a4faa850af7a40460","689bcc35c3d7bcc41d91b6b1","6692d2d89afd0ca6187bc086","3","S78_age7_trial3.png","false","false","https://kisumu-drawings.s3-us-west-1.amazonaws.com/tracings/S78_age7_trial3.png","4"
"","3181","image-button-response","53","null","322718","689b8a7a4faa850af7a40460","689bcc35c3d7bcc41d91b6b1","6692d2d89afd0ca6187bc086","2","S6_age4_trial2.png","false","false","https://kisumu-drawings.s3-us-west-1.amazonaws.com/tracings/S6_age4_trial2.png","2"
"","2273","image-button-response","54","null","325500","689b8a7a4faa850af7a40460","689bcc35c3d7bcc41d91b6b1","6692d2d89afd0ca6187bc086","2","S93_age8_trial2.png","false","false","https://kisumu-drawings.s3-us-west-1.amazonaws.com/tracings/S93_age8_trial2.png","4"
"","2639","image-button-response","55","null","328646","689b8a7a4faa850af7a40460","689bcc35c3d7bcc41d91b6b1","6692d2d89afd0ca6187bc086","1","S114_age9_trial1.png","false","false","https://kisumu-drawings.s3-us-west-1.amazonaws.com/tracings/S114_age9_trial1.png","4"
"","1995","image-button-response","56","null","331147","689b8a7a4faa850af7a40460","689bcc35c3d7bcc41d91b6b1","6692d2d89afd0ca6187bc086","4","S9_age4_trial4.png","false","false","https://kisumu-drawings.s3-us-west-1.amazonaws.com/tracings/S9_age4_trial4.png","2"
"","2060","image-button-response","57","null","333715","689b8a7a4faa850af7a40460","689bcc35c3d7bcc41d91b6b1","6692d2d89afd0ca6187bc086","5","S79_age7_trial5.png","false","false","https://kisumu-drawings.s3-us-west-1.amazonaws.com/tracings/S79_age7_trial5.png","2"
"","1923","image-button-response","58","null","336146","689b8a7a4faa850af7a40460","689bcc35c3d7bcc41d91b6b1","6692d2d89afd0ca6187bc086","1","S7_age4_trial1.png","false","false","https://kisumu-drawings.s3-us-west-1.amazonaws.com/tracings/S7_age4_trial1.png","2"
"","1937","image-button-response","59","null","338593","689b8a7a4faa850af7a40460","689bcc35c3d7bcc41d91b6b1","6692d2d89afd0ca6187bc086","1","S99_age8_trial1.png","false","false","https://kisumu-drawings.s3-us-west-1.amazonaws.com/tracings/S99_age8_trial1.png","2"
"","1991","image-button-response","60","null","341092","689b8a7a4faa850af7a40460","689bcc35c3d7bcc41d91b6b1","6692d2d89afd0ca6187bc086","2","S39_age5_trial2.png","false","false","https://kisumu-drawings.s3-us-west-1.amazonaws.com/tracings/S39_age5_trial2.png","2"
"","1651","image-button-response","61","null","343255","689b8a7a4faa850af7a40460","689bcc35c3d7bcc41d91b6b1","6692d2d89afd0ca6187bc086","3","S73_age7_trial3.png","false","false","https://kisumu-drawings.s3-us-west-1.amazonaws.com/tracings/S73_age7_trial3.png","4"
