"view_history","rt","trial_type","trial_index","plugin_version","time_elapsed","study_id","session_id","participant_id","tracing_type","tracing_id","catch_trial","prep_trial","stimulus","response"
"[{""page_index"":0,""viewing_time"":5709},{""page_index"":1,""viewing_time"":5285},{""page_index"":2,""viewing_time"":5749},{""page_index"":3,""viewing_time"":1434},{""page_index"":4,""viewing_time"":4500}]","22677","instructions","0","null","22690","689b8a7a4faa850af7a40460","689bb55ed54b4799570954af","66c09873c30bdebfa67284d8","","","","","",""
"","6143","image-button-response","1","null","29841","689b8a7a4faa850af7a40460","689bb55ed54b4799570954af","66c09873c30bdebfa67284d8","3","S34_age5_trial3.png","false","false","https://kisumu-drawings.s3-us-west-1.amazonaws.com/tracings/S34_age5_trial3.png","4"
"","3246","image-button-response","2","null","33591","689b8a7a4faa850af7a40460","689bb55ed54b4799570954af","66c09873c30bdebfa67284d8","4","S59_age6_trial4.png","false","false","https://kisumu-drawings.s3-us-west-1.amazonaws.com/tracings/S59_age6_trial4.png","3"
"","2262","image-button-response","3","null","36357","689b8a7a4faa850af7a40460","689bb55ed54b4799570954af","66c09873c30bdebfa67284d8","1","S114_age9_trial1.png","false","false","https://kisumu-drawings.s3-us-west-1.amazonaws.com/tracings/S114_age9_trial1.png","5"
"","2215","image-button-response","4","null","39075","689b8a7a4faa850af7a40460","689bb55ed54b4799570954af","66c09873c30bdebfa67284d8","1","S34_age5_trial1.png","false","false","https://kisumu-drawings.s3-us-west-1.amazonaws.com/tracings/S34_age5_trial1.png","4"
"","2579","image-button-response","5","null","42157","689b8a7a4faa850af7a40460","689bb55ed54b4799570954af","66c09873c30bdebfa67284d8","3","S8_age4_trial3.png","false","false","https://kisumu-drawings.s3-us-west-1.amazonaws.com/tracings/S8_age4_trial3.png","4"
"","1529","image-button-response","6","null","44189","689b8a7a4faa850af7a40460","689bb55ed54b4799570954af","66c09873c30bdebfa67284d8","5","S60_age6_trial5.png","false","false","https://kisumu-drawings.s3-us-west-1.amazonaws.com/tracings/S60_age6_trial5.png","5"
"","1815","image-button-response","7","null","46507","689b8a7a4faa850af7a40460","689bb55ed54b4799570954af","66c09873c30bdebfa67284d8","4","S5_age4_trial4.png","false","false","https://kisumu-drawings.s3-us-west-1.amazonaws.com/tracings/S5_age4_trial4.png","4"
"","1880","image-button-response","8","null","48890","689b8a7a4faa850af7a40460","689bb55ed54b4799570954af","66c09873c30bdebfa67284d8","5","S56_age6_trial5.png","false","false","https://kisumu-drawings.s3-us-west-1.amazonaws.com/tracings/S56_age6_trial5.png","5"
"","1413","image-button-response","9","null","50807","689b8a7a4faa850af7a40460","689bb55ed54b4799570954af","66c09873c30bdebfa67284d8","3","S94_age8_trial3.png","false","false","https://kisumu-drawings.s3-us-west-1.amazonaws.com/tracings/S94_age8_trial3.png","5"
"","2662","image-button-response","10","null","53974","689b8a7a4faa850af7a40460","689bb55ed54b4799570954af","66c09873c30bdebfa67284d8","1","S77_age7_trial1.png","false","false","https://kisumu-drawings.s3-us-west-1.amazonaws.com/tracings/S77_age7_trial1.png","5"
"","1964","image-button-response","11","null","56440","689b8a7a4faa850af7a40460","689bb55ed54b4799570954af","66c09873c30bdebfa67284d8","1","S74_age7_trial1.png","false","false","https://kisumu-drawings.s3-us-west-1.amazonaws.com/tracings/S74_age7_trial1.png","5"
"","1247","image-button-response","12","null","58191","689b8a7a4faa850af7a40460","689bb55ed54b4799570954af","66c09873c30bdebfa67284d8","5","S77_age7_trial5.png","false","false","https://kisumu-drawings.s3-us-west-1.amazonaws.com/tracings/S77_age7_trial5.png","5"
"","1112","image-button-response","13","null","59806","689b8a7a4faa850af7a40460","689bb55ed54b4799570954af","66c09873c30bdebfa67284d8","1","S37_age5_trial1.png","false","false","https://kisumu-drawings.s3-us-west-1.amazonaws.com/tracings/S37_age5_trial1.png","5"
"","1465","image-button-response","14","null","61773","689b8a7a4faa850af7a40460","689bb55ed54b4799570954af","66c09873c30bdebfa67284d8","5","S37_age5_trial5.png","false","false","https://kisumu-drawings.s3-us-west-1.amazonaws.com/tracings/S37_age5_trial5.png","5"
"","2148","image-button-response","15","null","64424","689b8a7a4faa850af7a40460","689bb55ed54b4799570954af","66c09873c30bdebfa67284d8","4","S76_age7_trial4.png","false","false","https://kisumu-drawings.s3-us-west-1.amazonaws.com/tracings/S76_age7_trial4.png","5"
"","2731","image-button-response","16","null","67657","689b8a7a4faa850af7a40460","689bb55ed54b4799570954af","66c09873c30bdebfa67284d8","4","S96_age8_trial4.png","false","false","https://kisumu-drawings.s3-us-west-1.amazonaws.com/tracings/S96_age8_trial4.png","5"
"","3664","image-button-response","17","null","71824","689b8a7a4faa850af7a40460","689bb55ed54b4799570954af","66c09873c30bdebfa67284d8","4","S35_age5_trial4.png","false","false","https://kisumu-drawings.s3-us-west-1.amazonaws.com/tracings/S35_age5_trial4.png","5"
"","1380","image-button-response","18","null","73707","689b8a7a4faa850af7a40460","689bb55ed54b4799570954af","66c09873c30bdebfa67284d8","2","S93_age8_trial2.png","false","false","https://kisumu-drawings.s3-us-west-1.amazonaws.com/tracings/S93_age8_trial2.png","5"
"","2814","image-button-response","19","null","77024","689b8a7a4faa850af7a40460","689bb55ed54b4799570954af","66c09873c30bdebfa67284d8","2","S76_age7_trial2.png","false","false","https://kisumu-drawings.s3-us-west-1.amazonaws.com/tracings/S76_age7_trial2.png","5"
"","1396","image-button-response","20","null","78923","689b8a7a4faa850af7a40460","689bb55ed54b4799570954af","66c09873c30bdebfa67284d8","4","S118_age9_trial4.png","false","false","https://kisumu-drawings.s3-us-west-1.amazonaws.com/tracings/S118_age9_trial4.png","5"
"","1932","image-button-response","21","null","81357","689b8a7a4faa850af7a40460","689bb55ed54b4799570954af","66c09873c30bdebfa67284d8","3","S4_age4_trial3.png","false","false","https://kisumu-drawings.s3-us-west-1.amazonaws.com/tracings/S4_age4_trial3.png","5"
"","947","image-button-response","22","null","82806","689b8a7a4faa850af7a40460","689bb55ed54b4799570954af","66c09873c30bdebfa67284d8","3","S37_age5_trial3.png","false","false","https://kisumu-drawings.s3-us-west-1.amazonaws.com/tracings/S37_age5_trial3.png","5"
"","1350","image-button-response","23","null","84658","689b8a7a4faa850af7a40460","689bb55ed54b4799570954af","66c09873c30bdebfa67284d8","5","S6_age4_trial5.png","false","false","https://kisumu-drawings.s3-us-west-1.amazonaws.com/tracings/S6_age4_trial5.png","5"
"","1247","image-button-response","24","null","86407","689b8a7a4faa850af7a40460","689bb55ed54b4799570954af","66c09873c30bdebfa67284d8","2","S74_age7_trial2.png","false","false","https://kisumu-drawings.s3-us-west-1.amazonaws.com/tracings/S74_age7_trial2.png","5"
"","1280","image-button-response","25","null","88190","689b8a7a4faa850af7a40460","689bb55ed54b4799570954af","66c09873c30bdebfa67284d8","4","S4_age4_trial4.png","false","false","https://kisumu-drawings.s3-us-west-1.amazonaws.com/tracings/S4_age4_trial4.png","5"
"","2597","image-button-response","26","null","91289","689b8a7a4faa850af7a40460","689bb55ed54b4799570954af","66c09873c30bdebfa67284d8","3","S59_age6_trial3.png","false","false","https://kisumu-drawings.s3-us-west-1.amazonaws.com/tracings/S59_age6_trial3.png","4"
"","1765","image-button-response","27","null","93557","689b8a7a4faa850af7a40460","689bb55ed54b4799570954af","66c09873c30bdebfa67284d8","1","S93_age8_trial1.png","false","false","https://kisumu-drawings.s3-us-west-1.amazonaws.com/tracings/S93_age8_trial1.png","5"
"","1246","image-button-response","28","null","95306","689b8a7a4faa850af7a40460","689bb55ed54b4799570954af","66c09873c30bdebfa67284d8","3","S54_age6_trial3.png","false","false","https://kisumu-drawings.s3-us-west-1.amazonaws.com/tracings/S54_age6_trial3.png","5"
"","1465","image-button-response","29","null","97274","689b8a7a4faa850af7a40460","689bb55ed54b4799570954af","66c09873c30bdebfa67284d8","5","S119_age9_trial5.png","false","false","https://kisumu-drawings.s3-us-west-1.amazonaws.com/tracings/S119_age9_trial5.png","5"
"","1630","image-button-response","30","null","99407","689b8a7a4faa850af7a40460","689bb55ed54b4799570954af","66c09873c30bdebfa67284d8","3","S79_age7_trial3.png","false","false","https://kisumu-drawings.s3-us-west-1.amazonaws.com/tracings/S79_age7_trial3.png","5"
"","1281","image-button-response","31","null","101191","689b8a7a4faa850af7a40460","689bb55ed54b4799570954af","66c09873c30bdebfa67284d8","1","S97_age8_trial1.png","false","false","https://kisumu-drawings.s3-us-west-1.amazonaws.com/tracings/S97_age8_trial1.png","5"
"","1563","image-button-response","32","null","103258","689b8a7a4faa850af7a40460","689bb55ed54b4799570954af","66c09873c30bdebfa67284d8","2","S118_age9_trial2.png","false","false","https://kisumu-drawings.s3-us-west-1.amazonaws.com/tracings/S118_age9_trial2.png","5"
"","2813","image-button-response","33","null","106574","689b8a7a4faa850af7a40460","689bb55ed54b4799570954af","66c09873c30bdebfa67284d8","2","","true","false","stimuli/catch_trials/catch_trial.png","1"
"","2429","image-button-response","34","null","109507","689b8a7a4faa850af7a40460","689bb55ed54b4799570954af","66c09873c30bdebfa67284d8","3","S118_age9_trial3.png","false","false","https://kisumu-drawings.s3-us-west-1.amazonaws.com/tracings/S118_age9_trial3.png","5"
"","1330","image-button-response","35","null","111340","689b8a7a4faa850af7a40460","689bb55ed54b4799570954af","66c09873c30bdebfa67284d8","2","S115_age9_trial2.png","false","false","https://kisumu-drawings.s3-us-west-1.amazonaws.com/tracings/S115_age9_trial2.png","5"
"","1447","image-button-response","36","null","113291","689b8a7a4faa850af7a40460","689bb55ed54b4799570954af","66c09873c30bdebfa67284d8","3","S74_age7_trial3.png","false","false","https://kisumu-drawings.s3-us-west-1.amazonaws.com/tracings/S74_age7_trial3.png","5"
"","1179","image-button-response","37","null","114973","689b8a7a4faa850af7a40460","689bb55ed54b4799570954af","66c09873c30bdebfa67284d8","5","S36_age5_trial5.png","false","false","https://kisumu-drawings.s3-us-west-1.amazonaws.com/tracings/S36_age5_trial5.png","5"
"","1433","image-button-response","38","null","116908","689b8a7a4faa850af7a40460","689bb55ed54b4799570954af","66c09873c30bdebfa67284d8","2","S5_age4_trial2.png","false","false","https://kisumu-drawings.s3-us-west-1.amazonaws.com/tracings/S5_age4_trial2.png","5"
"","1663","image-button-response","39","null","119074","689b8a7a4faa850af7a40460","689bb55ed54b4799570954af","66c09873c30bdebfa67284d8","4","S55_age6_trial4.png","false","false","https://kisumu-drawings.s3-us-west-1.amazonaws.com/tracings/S55_age6_trial4.png","4"
"","1330","image-button-response","40","null","120907","689b8a7a4faa850af7a40460","689bb55ed54b4799570954af","66c09873c30bdebfa67284d8","5","S97_age8_trial5.png","false","false","https://kisumu-drawings.s3-us-west-1.amazonaws.com/tracings/S97_age8_trial5.png","4"
"","2014","image-button-response","41","null","123424","689b8a7a4faa850af7a40460","689bb55ed54b4799570954af","66c09873c30bdebfa67284d8","5","S78_age7_trial5.png","false","false","https://kisumu-drawings.s3-us-west-1.amazonaws.com/tracings/S78_age7_trial5.png","5"
"","1448","image-button-response","42","null","125374","689b8a7a4faa850af7a40460","689bb55ed54b4799570954af","66c09873c30bdebfa67284d8","4","S120_age9_trial4.png","false","false","https://kisumu-drawings.s3-us-west-1.amazonaws.com/tracings/S120_age9_trial4.png","5"
"","1578","image-button-response","43","null","127456","689b8a7a4faa850af7a40460","689bb55ed54b4799570954af","66c09873c30bdebfa67284d8","4","S33_age5_trial4.png","false","false","https://kisumu-drawings.s3-us-west-1.amazonaws.com/tracings/S33_age5_trial4.png","4"
"","3032","image-button-response","44","null","130991","689b8a7a4faa850af7a40460","689bb55ed54b4799570954af","66c09873c30bdebfa67284d8","2","S39_age5_trial2.png","false","false","https://kisumu-drawings.s3-us-west-1.amazonaws.com/tracings/S39_age5_trial2.png","3"
"","2080","image-button-response","45","null","133574","689b8a7a4faa850af7a40460","689bb55ed54b4799570954af","66c09873c30bdebfa67284d8","5","S98_age8_trial5.png","false","false","https://kisumu-drawings.s3-us-west-1.amazonaws.com/tracings/S98_age8_trial5.png","5"
"","1164","image-button-response","46","null","135241","689b8a7a4faa850af7a40460","689bb55ed54b4799570954af","66c09873c30bdebfa67284d8","4","S80_age7_trial4.png","false","false","https://kisumu-drawings.s3-us-west-1.amazonaws.com/tracings/S80_age7_trial4.png","5"
"","1264","image-button-response","47","null","137008","689b8a7a4faa850af7a40460","689bb55ed54b4799570954af","66c09873c30bdebfa67284d8","3","S97_age8_trial3.png","false","false","https://kisumu-drawings.s3-us-west-1.amazonaws.com/tracings/S97_age8_trial3.png","5"
"","2346","image-button-response","48","null","139857","689b8a7a4faa850af7a40460","689bb55ed54b4799570954af","66c09873c30bdebfa67284d8","5","S8_age4_trial5.png","false","false","https://kisumu-drawings.s3-us-west-1.amazonaws.com/tracings/S8_age4_trial5.png","4"
"","1598","image-button-response","49","null","141957","689b8a7a4faa850af7a40460","689bb55ed54b4799570954af","66c09873c30bdebfa67284d8","1","S56_age6_trial1.png","false","false","https://kisumu-drawings.s3-us-west-1.amazonaws.com/tracings/S56_age6_trial1.png","5"
"","1381","image-button-response","50","null","143841","689b8a7a4faa850af7a40460","689bb55ed54b4799570954af","66c09873c30bdebfa67284d8","1","S4_age4_trial1.png","false","false","https://kisumu-drawings.s3-us-west-1.amazonaws.com/tracings/S4_age4_trial1.png","5"
"","1345","image-button-response","51","null","145690","689b8a7a4faa850af7a40460","689bb55ed54b4799570954af","66c09873c30bdebfa67284d8","1","S117_age9_trial1.png","false","false","https://kisumu-drawings.s3-us-west-1.amazonaws.com/tracings/S117_age9_trial1.png","5"
"","847","image-button-response","52","null","147041","689b8a7a4faa850af7a40460","689bb55ed54b4799570954af","66c09873c30bdebfa67284d8","1","S3_age4_trial1.png","false","false","https://kisumu-drawings.s3-us-west-1.amazonaws.com/tracings/S3_age4_trial1.png","5"
"","930","image-button-response","53","null","148474","689b8a7a4faa850af7a40460","689bb55ed54b4799570954af","66c09873c30bdebfa67284d8","2","S58_age6_trial2.png","false","false","https://kisumu-drawings.s3-us-west-1.amazonaws.com/tracings/S58_age6_trial2.png","5"
"","1381","image-button-response","54","null","150358","689b8a7a4faa850af7a40460","689bb55ed54b4799570954af","66c09873c30bdebfa67284d8","3","S115_age9_trial3.png","false","false","https://kisumu-drawings.s3-us-west-1.amazonaws.com/tracings/S115_age9_trial3.png","5"
"","1030","image-button-response","55","null","151891","689b8a7a4faa850af7a40460","689bb55ed54b4799570954af","66c09873c30bdebfa67284d8","5","S116_age9_trial5.png","false","false","https://kisumu-drawings.s3-us-west-1.amazonaws.com/tracings/S116_age9_trial5.png","5"
"","1030","image-button-response","56","null","153425","689b8a7a4faa850af7a40460","689bb55ed54b4799570954af","66c09873c30bdebfa67284d8","1","S59_age6_trial1.png","false","false","https://kisumu-drawings.s3-us-west-1.amazonaws.com/tracings/S59_age6_trial1.png","5"
"","1580","image-button-response","57","null","155507","689b8a7a4faa850af7a40460","689bb55ed54b4799570954af","66c09873c30bdebfa67284d8","2","S97_age8_trial2.png","false","false","https://kisumu-drawings.s3-us-west-1.amazonaws.com/tracings/S97_age8_trial2.png","4"
"","1397","image-button-response","58","null","157408","689b8a7a4faa850af7a40460","689bb55ed54b4799570954af","66c09873c30bdebfa67284d8","2","S40_age5_trial2.png","false","false","https://kisumu-drawings.s3-us-west-1.amazonaws.com/tracings/S40_age5_trial2.png","5"
"","1414","image-button-response","59","null","159324","689b8a7a4faa850af7a40460","689bb55ed54b4799570954af","66c09873c30bdebfa67284d8","2","S54_age6_trial2.png","false","false","https://kisumu-drawings.s3-us-west-1.amazonaws.com/tracings/S54_age6_trial2.png","5"
"","1564","image-button-response","60","null","161391","689b8a7a4faa850af7a40460","689bb55ed54b4799570954af","66c09873c30bdebfa67284d8","4","S99_age8_trial4.png","false","false","https://kisumu-drawings.s3-us-west-1.amazonaws.com/tracings/S99_age8_trial4.png","5"
"","1980","image-button-response","61","null","163874","689b8a7a4faa850af7a40460","689bb55ed54b4799570954af","66c09873c30bdebfa67284d8","2","S9_age4_trial2.png","false","false","https://kisumu-drawings.s3-us-west-1.amazonaws.com/tracings/S9_age4_trial2.png","4"
