"view_history","rt","trial_type","trial_index","plugin_version","time_elapsed","study_id","session_id","participant_id","tracing_type","tracing_id","catch_trial","prep_trial","stimulus","response"
"[{""page_index"":0,""viewing_time"":7014},{""page_index"":1,""viewing_time"":7409},{""page_index"":2,""viewing_time"":4739},{""page_index"":3,""viewing_time"":3539},{""page_index"":4,""viewing_time"":9141}]","31843","instructions","0","null","31849","689b8a7a4faa850af7a40460","689bb9bd6fac401e4f643232","66d4712f340d9f18e186d041","","","","","",""
"","6791","image-button-response","1","null","39650","689b8a7a4faa850af7a40460","689bb9bd6fac401e4f643232","66d4712f340d9f18e186d041","5","S99_age8_trial5.png","false","false","https://kisumu-drawings.s3-us-west-1.amazonaws.com/tracings/S99_age8_trial5.png","3"
"","5090","image-button-response","2","null","45245","689b8a7a4faa850af7a40460","689bb9bd6fac401e4f643232","66d4712f340d9f18e186d041","2","S37_age5_trial2.png","false","false","https://kisumu-drawings.s3-us-west-1.amazonaws.com/tracings/S37_age5_trial2.png","4"
"","2233","image-button-response","3","null","47982","689b8a7a4faa850af7a40460","689bb9bd6fac401e4f643232","66d4712f340d9f18e186d041","2","S96_age8_trial2.png","false","false","https://kisumu-drawings.s3-us-west-1.amazonaws.com/tracings/S96_age8_trial2.png","4"
"","3611","image-button-response","4","null","52108","689b8a7a4faa850af7a40460","689bb9bd6fac401e4f643232","66d4712f340d9f18e186d041","4","S2_age4_trial4.png","false","false","https://kisumu-drawings.s3-us-west-1.amazonaws.com/tracings/S2_age4_trial4.png","2"
"","3527","image-button-response","5","null","56150","689b8a7a4faa850af7a40460","689bb9bd6fac401e4f643232","66d4712f340d9f18e186d041","5","S96_age8_trial5.png","false","false","https://kisumu-drawings.s3-us-west-1.amazonaws.com/tracings/S96_age8_trial5.png","4"
"","2324","image-button-response","6","null","58982","689b8a7a4faa850af7a40460","689bb9bd6fac401e4f643232","66d4712f340d9f18e186d041","4","S38_age5_trial4.png","false","false","https://kisumu-drawings.s3-us-west-1.amazonaws.com/tracings/S38_age5_trial4.png","3"
"","4330","image-button-response","7","null","63815","689b8a7a4faa850af7a40460","689bb9bd6fac401e4f643232","66d4712f340d9f18e186d041","5","S120_age9_trial5.png","false","false","https://kisumu-drawings.s3-us-west-1.amazonaws.com/tracings/S120_age9_trial5.png","3"
"","2713","image-button-response","8","null","67041","689b8a7a4faa850af7a40460","689bb9bd6fac401e4f643232","66d4712f340d9f18e186d041","2","S77_age7_trial2.png","false","false","https://kisumu-drawings.s3-us-west-1.amazonaws.com/tracings/S77_age7_trial2.png","3"
"","2541","image-button-response","9","null","70085","689b8a7a4faa850af7a40460","689bb9bd6fac401e4f643232","66d4712f340d9f18e186d041","3","S2_age4_trial3.png","false","false","https://kisumu-drawings.s3-us-west-1.amazonaws.com/tracings/S2_age4_trial3.png","2"
"","4635","image-button-response","10","null","75223","689b8a7a4faa850af7a40460","689bb9bd6fac401e4f643232","66d4712f340d9f18e186d041","2","S7_age4_trial2.png","false","false","https://kisumu-drawings.s3-us-west-1.amazonaws.com/tracings/S7_age4_trial2.png","3"
"","5628","image-button-response","11","null","81362","689b8a7a4faa850af7a40460","689bb9bd6fac401e4f643232","66d4712f340d9f18e186d041","1","S117_age9_trial1.png","false","false","https://kisumu-drawings.s3-us-west-1.amazonaws.com/tracings/S117_age9_trial1.png","4"
"","3224","image-button-response","12","null","85098","689b8a7a4faa850af7a40460","689bb9bd6fac401e4f643232","66d4712f340d9f18e186d041","1","S115_age9_trial1.png","false","false","https://kisumu-drawings.s3-us-west-1.amazonaws.com/tracings/S115_age9_trial1.png","4"
"","7530","image-button-response","13","null","93146","689b8a7a4faa850af7a40460","689bb9bd6fac401e4f643232","66d4712f340d9f18e186d041","3","S114_age9_trial3.png","false","false","https://kisumu-drawings.s3-us-west-1.amazonaws.com/tracings/S114_age9_trial3.png","3"
"","4960","image-button-response","14","null","98622","689b8a7a4faa850af7a40460","689bb9bd6fac401e4f643232","66d4712f340d9f18e186d041","5","S114_age9_trial5.png","false","false","https://kisumu-drawings.s3-us-west-1.amazonaws.com/tracings/S114_age9_trial5.png","4"
"","2511","image-button-response","15","null","101635","689b8a7a4faa850af7a40460","689bb9bd6fac401e4f643232","66d4712f340d9f18e186d041","3","S59_age6_trial3.png","false","false","https://kisumu-drawings.s3-us-west-1.amazonaws.com/tracings/S59_age6_trial3.png","2"
"","4785","image-button-response","16","null","106936","689b8a7a4faa850af7a40460","689bb9bd6fac401e4f643232","66d4712f340d9f18e186d041","1","S94_age8_trial1.png","false","false","https://kisumu-drawings.s3-us-west-1.amazonaws.com/tracings/S94_age8_trial1.png","4"
"","1758","image-button-response","17","null","109197","689b8a7a4faa850af7a40460","689bb9bd6fac401e4f643232","66d4712f340d9f18e186d041","3","S35_age5_trial3.png","false","false","https://kisumu-drawings.s3-us-west-1.amazonaws.com/tracings/S35_age5_trial3.png","2"
"","2272","image-button-response","18","null","111973","689b8a7a4faa850af7a40460","689bb9bd6fac401e4f643232","66d4712f340d9f18e186d041","4","S8_age4_trial4.png","false","false","https://kisumu-drawings.s3-us-west-1.amazonaws.com/tracings/S8_age4_trial4.png","2"
"","2075","image-button-response","19","null","114556","689b8a7a4faa850af7a40460","689bb9bd6fac401e4f643232","66d4712f340d9f18e186d041","5","S53_age6_trial5.png","false","false","https://kisumu-drawings.s3-us-west-1.amazonaws.com/tracings/S53_age6_trial5.png","2"
"","3231","image-button-response","20","null","118294","689b8a7a4faa850af7a40460","689bb9bd6fac401e4f643232","66d4712f340d9f18e186d041","1","S38_age5_trial1.png","false","false","https://kisumu-drawings.s3-us-west-1.amazonaws.com/tracings/S38_age5_trial1.png","3"
"","3269","image-button-response","21","null","122064","689b8a7a4faa850af7a40460","689bb9bd6fac401e4f643232","66d4712f340d9f18e186d041","2","S119_age9_trial2.png","false","false","https://kisumu-drawings.s3-us-west-1.amazonaws.com/tracings/S119_age9_trial2.png","3"
"","1980","image-button-response","22","null","124552","689b8a7a4faa850af7a40460","689bb9bd6fac401e4f643232","66d4712f340d9f18e186d041","3","S6_age4_trial3.png","false","false","https://kisumu-drawings.s3-us-west-1.amazonaws.com/tracings/S6_age4_trial3.png","2"
"","6901","image-button-response","23","null","131957","689b8a7a4faa850af7a40460","689bb9bd6fac401e4f643232","66d4712f340d9f18e186d041","4","S118_age9_trial4.png","false","false","https://kisumu-drawings.s3-us-west-1.amazonaws.com/tracings/S118_age9_trial4.png","4"
"","2665","image-button-response","24","null","135136","689b8a7a4faa850af7a40460","689bb9bd6fac401e4f643232","66d4712f340d9f18e186d041","2","S60_age6_trial2.png","false","false","https://kisumu-drawings.s3-us-west-1.amazonaws.com/tracings/S60_age6_trial2.png","4"
"","1719","image-button-response","25","null","137370","689b8a7a4faa850af7a40460","689bb9bd6fac401e4f643232","66d4712f340d9f18e186d041","2","S75_age7_trial2.png","false","false","https://kisumu-drawings.s3-us-west-1.amazonaws.com/tracings/S75_age7_trial2.png","3"
"","5442","image-button-response","26","null","143316","689b8a7a4faa850af7a40460","689bb9bd6fac401e4f643232","66d4712f340d9f18e186d041","3","S99_age8_trial3.png","false","false","https://kisumu-drawings.s3-us-west-1.amazonaws.com/tracings/S99_age8_trial3.png","3"
"","1966","image-button-response","27","null","145791","689b8a7a4faa850af7a40460","689bb9bd6fac401e4f643232","66d4712f340d9f18e186d041","1","S76_age7_trial1.png","false","false","https://kisumu-drawings.s3-us-west-1.amazonaws.com/tracings/S76_age7_trial1.png","3"
"","1497","image-button-response","28","null","147790","689b8a7a4faa850af7a40460","689bb9bd6fac401e4f643232","66d4712f340d9f18e186d041","3","S75_age7_trial3.png","false","false","https://kisumu-drawings.s3-us-west-1.amazonaws.com/tracings/S75_age7_trial3.png","2"
"","2716","image-button-response","29","null","151014","689b8a7a4faa850af7a40460","689bb9bd6fac401e4f643232","66d4712f340d9f18e186d041","2","S39_age5_trial2.png","false","false","https://kisumu-drawings.s3-us-west-1.amazonaws.com/tracings/S39_age5_trial2.png","2"
"","1919","image-button-response","30","null","153435","689b8a7a4faa850af7a40460","689bb9bd6fac401e4f643232","66d4712f340d9f18e186d041","1","S7_age4_trial1.png","false","false","https://kisumu-drawings.s3-us-west-1.amazonaws.com/tracings/S7_age4_trial1.png","2"
"","1588","image-button-response","31","null","155533","689b8a7a4faa850af7a40460","689bb9bd6fac401e4f643232","66d4712f340d9f18e186d041","3","S54_age6_trial3.png","false","false","https://kisumu-drawings.s3-us-west-1.amazonaws.com/tracings/S54_age6_trial3.png","2"
"","1843","image-button-response","32","null","157891","689b8a7a4faa850af7a40460","689bb9bd6fac401e4f643232","66d4712f340d9f18e186d041","2","S114_age9_trial2.png","false","false","https://kisumu-drawings.s3-us-west-1.amazonaws.com/tracings/S114_age9_trial2.png","3"
"","1547","image-button-response","33","null","159950","689b8a7a4faa850af7a40460","689bb9bd6fac401e4f643232","66d4712f340d9f18e186d041","5","S34_age5_trial5.png","false","false","https://kisumu-drawings.s3-us-west-1.amazonaws.com/tracings/S34_age5_trial5.png","2"
"","1496","image-button-response","34","null","161947","689b8a7a4faa850af7a40460","689bb9bd6fac401e4f643232","66d4712f340d9f18e186d041","2","S97_age8_trial2.png","false","false","https://kisumu-drawings.s3-us-west-1.amazonaws.com/tracings/S97_age8_trial2.png","2"
"","1451","image-button-response","35","null","163907","689b8a7a4faa850af7a40460","689bb9bd6fac401e4f643232","66d4712f340d9f18e186d041","1","S6_age4_trial1.png","false","false","https://kisumu-drawings.s3-us-west-1.amazonaws.com/tracings/S6_age4_trial1.png","2"
"","1368","image-button-response","36","null","165785","689b8a7a4faa850af7a40460","689bb9bd6fac401e4f643232","66d4712f340d9f18e186d041","4","S59_age6_trial4.png","false","false","https://kisumu-drawings.s3-us-west-1.amazonaws.com/tracings/S59_age6_trial4.png","2"
"","1666","image-button-response","37","null","167954","689b8a7a4faa850af7a40460","689bb9bd6fac401e4f643232","66d4712f340d9f18e186d041","4","S34_age5_trial4.png","false","false","https://kisumu-drawings.s3-us-west-1.amazonaws.com/tracings/S34_age5_trial4.png","2"
"","1556","image-button-response","38","null","170022","689b8a7a4faa850af7a40460","689bb9bd6fac401e4f643232","66d4712f340d9f18e186d041","5","S59_age6_trial5.png","false","false","https://kisumu-drawings.s3-us-west-1.amazonaws.com/tracings/S59_age6_trial5.png","2"
"","2544","image-button-response","39","null","173082","689b8a7a4faa850af7a40460","689bb9bd6fac401e4f643232","66d4712f340d9f18e186d041","3","S78_age7_trial3.png","false","false","https://kisumu-drawings.s3-us-west-1.amazonaws.com/tracings/S78_age7_trial3.png","3"
"","1675","image-button-response","40","null","175270","689b8a7a4faa850af7a40460","689bb9bd6fac401e4f643232","66d4712f340d9f18e186d041","1","S36_age5_trial1.png","false","false","https://kisumu-drawings.s3-us-west-1.amazonaws.com/tracings/S36_age5_trial1.png","2"
"","2110","image-button-response","41","null","177881","689b8a7a4faa850af7a40460","689bb9bd6fac401e4f643232","66d4712f340d9f18e186d041","2","","true","false","stimuli/catch_trials/catch_trial.png","1"
"","2773","image-button-response","42","null","181161","689b8a7a4faa850af7a40460","689bb9bd6fac401e4f643232","66d4712f340d9f18e186d041","1","S95_age8_trial1.png","false","false","https://kisumu-drawings.s3-us-west-1.amazonaws.com/tracings/S95_age8_trial1.png","3"
"","3362","image-button-response","43","null","185039","689b8a7a4faa850af7a40460","689bb9bd6fac401e4f643232","66d4712f340d9f18e186d041","3","S96_age8_trial3.png","false","false","https://kisumu-drawings.s3-us-west-1.amazonaws.com/tracings/S96_age8_trial3.png","4"
"","1743","image-button-response","44","null","187282","689b8a7a4faa850af7a40460","689bb9bd6fac401e4f643232","66d4712f340d9f18e186d041","3","S115_age9_trial3.png","false","false","https://kisumu-drawings.s3-us-west-1.amazonaws.com/tracings/S115_age9_trial3.png","3"
"","4691","image-button-response","45","null","192476","689b8a7a4faa850af7a40460","689bb9bd6fac401e4f643232","66d4712f340d9f18e186d041","4","S79_age7_trial4.png","false","false","https://kisumu-drawings.s3-us-west-1.amazonaws.com/tracings/S79_age7_trial4.png","3"
"","1473","image-button-response","46","null","194464","689b8a7a4faa850af7a40460","689bb9bd6fac401e4f643232","66d4712f340d9f18e186d041","1","S58_age6_trial1.png","false","false","https://kisumu-drawings.s3-us-west-1.amazonaws.com/tracings/S58_age6_trial1.png","3"
"","3647","image-button-response","47","null","198614","689b8a7a4faa850af7a40460","689bb9bd6fac401e4f643232","66d4712f340d9f18e186d041","5","S77_age7_trial5.png","false","false","https://kisumu-drawings.s3-us-west-1.amazonaws.com/tracings/S77_age7_trial5.png","2"
"","7795","image-button-response","48","null","206910","689b8a7a4faa850af7a40460","689bb9bd6fac401e4f643232","66d4712f340d9f18e186d041","5","S36_age5_trial5.png","false","false","https://kisumu-drawings.s3-us-west-1.amazonaws.com/tracings/S36_age5_trial5.png","3"
"","2279","image-button-response","49","null","209700","689b8a7a4faa850af7a40460","689bb9bd6fac401e4f643232","66d4712f340d9f18e186d041","1","S60_age6_trial1.png","false","false","https://kisumu-drawings.s3-us-west-1.amazonaws.com/tracings/S60_age6_trial1.png","3"
"","1395","image-button-response","50","null","211599","689b8a7a4faa850af7a40460","689bb9bd6fac401e4f643232","66d4712f340d9f18e186d041","5","S4_age4_trial5.png","false","false","https://kisumu-drawings.s3-us-west-1.amazonaws.com/tracings/S4_age4_trial5.png","2"
"","3579","image-button-response","51","null","215680","689b8a7a4faa850af7a40460","689bb9bd6fac401e4f643232","66d4712f340d9f18e186d041","4","S77_age7_trial4.png","false","false","https://kisumu-drawings.s3-us-west-1.amazonaws.com/tracings/S77_age7_trial4.png","3"
"","3120","image-button-response","52","null","219308","689b8a7a4faa850af7a40460","689bb9bd6fac401e4f643232","66d4712f340d9f18e186d041","4","S119_age9_trial4.png","false","false","https://kisumu-drawings.s3-us-west-1.amazonaws.com/tracings/S119_age9_trial4.png","4"
"","1425","image-button-response","53","null","221244","689b8a7a4faa850af7a40460","689bb9bd6fac401e4f643232","66d4712f340d9f18e186d041","5","S5_age4_trial5.png","false","false","https://kisumu-drawings.s3-us-west-1.amazonaws.com/tracings/S5_age4_trial5.png","2"
"","2234","image-button-response","54","null","223990","689b8a7a4faa850af7a40460","689bb9bd6fac401e4f643232","66d4712f340d9f18e186d041","4","S55_age6_trial4.png","false","false","https://kisumu-drawings.s3-us-west-1.amazonaws.com/tracings/S55_age6_trial4.png","2"
"","5558","image-button-response","55","null","230050","689b8a7a4faa850af7a40460","689bb9bd6fac401e4f643232","66d4712f340d9f18e186d041","4","S94_age8_trial4.png","false","false","https://kisumu-drawings.s3-us-west-1.amazonaws.com/tracings/S94_age8_trial4.png","3"
"","2467","image-button-response","56","null","233021","689b8a7a4faa850af7a40460","689bb9bd6fac401e4f643232","66d4712f340d9f18e186d041","3","S39_age5_trial3.png","false","false","https://kisumu-drawings.s3-us-west-1.amazonaws.com/tracings/S39_age5_trial3.png","2"
"","1849","image-button-response","57","null","235380","689b8a7a4faa850af7a40460","689bb9bd6fac401e4f643232","66d4712f340d9f18e186d041","5","S78_age7_trial5.png","false","false","https://kisumu-drawings.s3-us-west-1.amazonaws.com/tracings/S78_age7_trial5.png","3"
"","1648","image-button-response","58","null","237533","689b8a7a4faa850af7a40460","689bb9bd6fac401e4f643232","66d4712f340d9f18e186d041","2","S54_age6_trial2.png","false","false","https://kisumu-drawings.s3-us-west-1.amazonaws.com/tracings/S54_age6_trial2.png","3"
"","1423","image-button-response","59","null","239473","689b8a7a4faa850af7a40460","689bb9bd6fac401e4f643232","66d4712f340d9f18e186d041","2","S5_age4_trial2.png","false","false","https://kisumu-drawings.s3-us-west-1.amazonaws.com/tracings/S5_age4_trial2.png","2"
"","5123","image-button-response","60","null","245097","689b8a7a4faa850af7a40460","689bb9bd6fac401e4f643232","66d4712f340d9f18e186d041","4","S95_age8_trial4.png","false","false","https://kisumu-drawings.s3-us-west-1.amazonaws.com/tracings/S95_age8_trial4.png","4"
"","1497","image-button-response","61","null","247097","689b8a7a4faa850af7a40460","689bb9bd6fac401e4f643232","66d4712f340d9f18e186d041","1","S75_age7_trial1.png","false","false","https://kisumu-drawings.s3-us-west-1.amazonaws.com/tracings/S75_age7_trial1.png","3"
