"view_history","rt","trial_type","trial_index","plugin_version","time_elapsed","study_id","session_id","participant_id","tracing_type","tracing_id","catch_trial","prep_trial","stimulus","response"
"[{""page_index"":0,""viewing_time"":11637},{""page_index"":1,""viewing_time"":9131},{""page_index"":2,""viewing_time"":7948},{""page_index"":3,""viewing_time"":3052},{""page_index"":4,""viewing_time"":8214}]","39982","instructions","0","null","39990","689b8a7a4faa850af7a40460","689bdf6a03562820e7a43dd3","672bf6a8b306f66878d7d5ff","","","","","",""
"","8086","image-button-response","1","null","49084","689b8a7a4faa850af7a40460","689bdf6a03562820e7a43dd3","672bf6a8b306f66878d7d5ff","5","S37_age5_trial5.png","false","false","https://kisumu-drawings.s3-us-west-1.amazonaws.com/tracings/S37_age5_trial5.png","5"
"","8892","image-button-response","2","null","58488","689b8a7a4faa850af7a40460","689bdf6a03562820e7a43dd3","672bf6a8b306f66878d7d5ff","2","S38_age5_trial2.png","false","false","https://kisumu-drawings.s3-us-west-1.amazonaws.com/tracings/S38_age5_trial2.png","4"
"","6070","image-button-response","3","null","65072","689b8a7a4faa850af7a40460","689bdf6a03562820e7a43dd3","672bf6a8b306f66878d7d5ff","1","S36_age5_trial1.png","false","false","https://kisumu-drawings.s3-us-west-1.amazonaws.com/tracings/S36_age5_trial1.png","5"
"","3843","image-button-response","4","null","69420","689b8a7a4faa850af7a40460","689bdf6a03562820e7a43dd3","672bf6a8b306f66878d7d5ff","3","S73_age7_trial3.png","false","false","https://kisumu-drawings.s3-us-west-1.amazonaws.com/tracings/S73_age7_trial3.png","5"
"","2647","image-button-response","5","null","72572","689b8a7a4faa850af7a40460","689bdf6a03562820e7a43dd3","672bf6a8b306f66878d7d5ff","2","S54_age6_trial2.png","false","false","https://kisumu-drawings.s3-us-west-1.amazonaws.com/tracings/S54_age6_trial2.png","5"
"","2160","image-button-response","6","null","75243","689b8a7a4faa850af7a40460","689bdf6a03562820e7a43dd3","672bf6a8b306f66878d7d5ff","1","S99_age8_trial1.png","false","false","https://kisumu-drawings.s3-us-west-1.amazonaws.com/tracings/S99_age8_trial1.png","5"
"","3901","image-button-response","7","null","79659","689b8a7a4faa850af7a40460","689bdf6a03562820e7a43dd3","672bf6a8b306f66878d7d5ff","2","S56_age6_trial2.png","false","false","https://kisumu-drawings.s3-us-west-1.amazonaws.com/tracings/S56_age6_trial2.png","5"
"","4565","image-button-response","8","null","84754","689b8a7a4faa850af7a40460","689bdf6a03562820e7a43dd3","672bf6a8b306f66878d7d5ff","1","S116_age9_trial1.png","false","false","https://kisumu-drawings.s3-us-west-1.amazonaws.com/tracings/S116_age9_trial1.png","5"
"","2959","image-button-response","9","null","88216","689b8a7a4faa850af7a40460","689bdf6a03562820e7a43dd3","672bf6a8b306f66878d7d5ff","4","S58_age6_trial4.png","false","false","https://kisumu-drawings.s3-us-west-1.amazonaws.com/tracings/S58_age6_trial4.png","5"
"","8296","image-button-response","10","null","97026","689b8a7a4faa850af7a40460","689bdf6a03562820e7a43dd3","672bf6a8b306f66878d7d5ff","4","S76_age7_trial4.png","false","false","https://kisumu-drawings.s3-us-west-1.amazonaws.com/tracings/S76_age7_trial4.png","3"
"","2662","image-button-response","11","null","100191","689b8a7a4faa850af7a40460","689bdf6a03562820e7a43dd3","672bf6a8b306f66878d7d5ff","4","S113_age9_trial4.png","false","false","https://kisumu-drawings.s3-us-west-1.amazonaws.com/tracings/S113_age9_trial4.png","5"
"","4105","image-button-response","12","null","104808","689b8a7a4faa850af7a40460","689bdf6a03562820e7a43dd3","672bf6a8b306f66878d7d5ff","5","S53_age6_trial5.png","false","false","https://kisumu-drawings.s3-us-west-1.amazonaws.com/tracings/S53_age6_trial5.png","5"
"","5163","image-button-response","13","null","110473","689b8a7a4faa850af7a40460","689bdf6a03562820e7a43dd3","672bf6a8b306f66878d7d5ff","5","S97_age8_trial5.png","false","false","https://kisumu-drawings.s3-us-west-1.amazonaws.com/tracings/S97_age8_trial5.png","3"
"","2481","image-button-response","14","null","113467","689b8a7a4faa850af7a40460","689bdf6a03562820e7a43dd3","672bf6a8b306f66878d7d5ff","5","S4_age4_trial5.png","false","false","https://kisumu-drawings.s3-us-west-1.amazonaws.com/tracings/S4_age4_trial5.png","4"
"","2190","image-button-response","15","null","116158","689b8a7a4faa850af7a40460","689bdf6a03562820e7a43dd3","672bf6a8b306f66878d7d5ff","1","S20_age4_trial1.png","false","false","https://kisumu-drawings.s3-us-west-1.amazonaws.com/tracings/S20_age4_trial1.png","4"
"","1990","image-button-response","16","null","118660","689b8a7a4faa850af7a40460","689bdf6a03562820e7a43dd3","672bf6a8b306f66878d7d5ff","5","S114_age9_trial5.png","false","false","https://kisumu-drawings.s3-us-west-1.amazonaws.com/tracings/S114_age9_trial5.png","5"
"","2209","image-button-response","17","null","121374","689b8a7a4faa850af7a40460","689bdf6a03562820e7a43dd3","672bf6a8b306f66878d7d5ff","5","S118_age9_trial5.png","false","false","https://kisumu-drawings.s3-us-west-1.amazonaws.com/tracings/S118_age9_trial5.png","5"
"","3866","image-button-response","18","null","125752","689b8a7a4faa850af7a40460","689bdf6a03562820e7a43dd3","672bf6a8b306f66878d7d5ff","2","S3_age4_trial2.png","false","false","https://kisumu-drawings.s3-us-west-1.amazonaws.com/tracings/S3_age4_trial2.png","2"
"","5244","image-button-response","19","null","131498","689b8a7a4faa850af7a40460","689bdf6a03562820e7a43dd3","672bf6a8b306f66878d7d5ff","2","","true","false","stimuli/catch_trials/catch_trial.png","1"
"","5258","image-button-response","20","null","137264","689b8a7a4faa850af7a40460","689bdf6a03562820e7a43dd3","672bf6a8b306f66878d7d5ff","2","S120_age9_trial2.png","false","false","https://kisumu-drawings.s3-us-west-1.amazonaws.com/tracings/S120_age9_trial2.png","5"
"","8067","image-button-response","21","null","145834","689b8a7a4faa850af7a40460","689bdf6a03562820e7a43dd3","672bf6a8b306f66878d7d5ff","2","S80_age7_trial2.png","false","false","https://kisumu-drawings.s3-us-west-1.amazonaws.com/tracings/S80_age7_trial2.png","5"
"","11174","image-button-response","22","null","157519","689b8a7a4faa850af7a40460","689bdf6a03562820e7a43dd3","672bf6a8b306f66878d7d5ff","4","S4_age4_trial4.png","false","false","https://kisumu-drawings.s3-us-west-1.amazonaws.com/tracings/S4_age4_trial4.png","2"
"","3761","image-button-response","23","null","161782","689b8a7a4faa850af7a40460","689bdf6a03562820e7a43dd3","672bf6a8b306f66878d7d5ff","4","S54_age6_trial4.png","false","false","https://kisumu-drawings.s3-us-west-1.amazonaws.com/tracings/S54_age6_trial4.png","5"
"","31872","image-button-response","24","null","194158","689b8a7a4faa850af7a40460","689bdf6a03562820e7a43dd3","672bf6a8b306f66878d7d5ff","5","S73_age7_trial5.png","false","false","https://kisumu-drawings.s3-us-west-1.amazonaws.com/tracings/S73_age7_trial5.png","4"
"","2989","image-button-response","25","null","197652","689b8a7a4faa850af7a40460","689bdf6a03562820e7a43dd3","672bf6a8b306f66878d7d5ff","2","S98_age8_trial2.png","false","false","https://kisumu-drawings.s3-us-west-1.amazonaws.com/tracings/S98_age8_trial2.png","5"
"","2533","image-button-response","26","null","200686","689b8a7a4faa850af7a40460","689bdf6a03562820e7a43dd3","672bf6a8b306f66878d7d5ff","1","S5_age4_trial1.png","false","false","https://kisumu-drawings.s3-us-west-1.amazonaws.com/tracings/S5_age4_trial1.png","2"
"","2331","image-button-response","27","null","203524","689b8a7a4faa850af7a40460","689bdf6a03562820e7a43dd3","672bf6a8b306f66878d7d5ff","3","S76_age7_trial3.png","false","false","https://kisumu-drawings.s3-us-west-1.amazonaws.com/tracings/S76_age7_trial3.png","5"
"","2784","image-button-response","28","null","206810","689b8a7a4faa850af7a40460","689bdf6a03562820e7a43dd3","672bf6a8b306f66878d7d5ff","4","S3_age4_trial4.png","false","false","https://kisumu-drawings.s3-us-west-1.amazonaws.com/tracings/S3_age4_trial4.png","2"
"","2083","image-button-response","29","null","209407","689b8a7a4faa850af7a40460","689bdf6a03562820e7a43dd3","672bf6a8b306f66878d7d5ff","1","S113_age9_trial1.png","false","false","https://kisumu-drawings.s3-us-west-1.amazonaws.com/tracings/S113_age9_trial1.png","5"
"","1937","image-button-response","30","null","211847","689b8a7a4faa850af7a40460","689bdf6a03562820e7a43dd3","672bf6a8b306f66878d7d5ff","3","S55_age6_trial3.png","false","false","https://kisumu-drawings.s3-us-west-1.amazonaws.com/tracings/S55_age6_trial3.png","5"
"","1220","image-button-response","31","null","213584","689b8a7a4faa850af7a40460","689bdf6a03562820e7a43dd3","672bf6a8b306f66878d7d5ff","4","S99_age8_trial4.png","false","false","https://kisumu-drawings.s3-us-west-1.amazonaws.com/tracings/S99_age8_trial4.png","5"
"","1587","image-button-response","32","null","215682","689b8a7a4faa850af7a40460","689bdf6a03562820e7a43dd3","672bf6a8b306f66878d7d5ff","2","S7_age4_trial2.png","false","false","https://kisumu-drawings.s3-us-west-1.amazonaws.com/tracings/S7_age4_trial2.png","5"
"","6094","image-button-response","33","null","222279","689b8a7a4faa850af7a40460","689bdf6a03562820e7a43dd3","672bf6a8b306f66878d7d5ff","3","S4_age4_trial3.png","false","false","https://kisumu-drawings.s3-us-west-1.amazonaws.com/tracings/S4_age4_trial3.png","3"
"","10946","image-button-response","34","null","233729","689b8a7a4faa850af7a40460","689bdf6a03562820e7a43dd3","672bf6a8b306f66878d7d5ff","4","S40_age5_trial4.png","false","false","https://kisumu-drawings.s3-us-west-1.amazonaws.com/tracings/S40_age5_trial4.png","4"
"","22956","image-button-response","35","null","257202","689b8a7a4faa850af7a40460","689bdf6a03562820e7a43dd3","672bf6a8b306f66878d7d5ff","5","S96_age8_trial5.png","false","false","https://kisumu-drawings.s3-us-west-1.amazonaws.com/tracings/S96_age8_trial5.png","5"
"","7612","image-button-response","36","null","265319","689b8a7a4faa850af7a40460","689bdf6a03562820e7a43dd3","672bf6a8b306f66878d7d5ff","4","S73_age7_trial4.png","false","false","https://kisumu-drawings.s3-us-west-1.amazonaws.com/tracings/S73_age7_trial4.png","5"
"","10204","image-button-response","37","null","276024","689b8a7a4faa850af7a40460","689bdf6a03562820e7a43dd3","672bf6a8b306f66878d7d5ff","3","S99_age8_trial3.png","false","false","https://kisumu-drawings.s3-us-west-1.amazonaws.com/tracings/S99_age8_trial3.png","4"
"","4230","image-button-response","38","null","280769","689b8a7a4faa850af7a40460","689bdf6a03562820e7a43dd3","672bf6a8b306f66878d7d5ff","2","S73_age7_trial2.png","false","false","https://kisumu-drawings.s3-us-west-1.amazonaws.com/tracings/S73_age7_trial2.png","4"
"","1475","image-button-response","39","null","282761","689b8a7a4faa850af7a40460","689bdf6a03562820e7a43dd3","672bf6a8b306f66878d7d5ff","2","S96_age8_trial2.png","false","false","https://kisumu-drawings.s3-us-west-1.amazonaws.com/tracings/S96_age8_trial2.png","5"
"","2107","image-button-response","40","null","285376","689b8a7a4faa850af7a40460","689bdf6a03562820e7a43dd3","672bf6a8b306f66878d7d5ff","5","S57_age6_trial5.png","false","false","https://kisumu-drawings.s3-us-west-1.amazonaws.com/tracings/S57_age6_trial5.png","4"
"","1386","image-button-response","41","null","287269","689b8a7a4faa850af7a40460","689bdf6a03562820e7a43dd3","672bf6a8b306f66878d7d5ff","3","S113_age9_trial3.png","false","false","https://kisumu-drawings.s3-us-west-1.amazonaws.com/tracings/S113_age9_trial3.png","5"
"","5434","image-button-response","42","null","293208","689b8a7a4faa850af7a40460","689bdf6a03562820e7a43dd3","672bf6a8b306f66878d7d5ff","1","S38_age5_trial1.png","false","false","https://kisumu-drawings.s3-us-west-1.amazonaws.com/tracings/S38_age5_trial1.png","4"
"","4345","image-button-response","43","null","298062","689b8a7a4faa850af7a40460","689bdf6a03562820e7a43dd3","672bf6a8b306f66878d7d5ff","1","S78_age7_trial1.png","false","false","https://kisumu-drawings.s3-us-west-1.amazonaws.com/tracings/S78_age7_trial1.png","4"
"","1605","image-button-response","44","null","300182","689b8a7a4faa850af7a40460","689bdf6a03562820e7a43dd3","672bf6a8b306f66878d7d5ff","5","S7_age4_trial5.png","false","false","https://kisumu-drawings.s3-us-west-1.amazonaws.com/tracings/S7_age4_trial5.png","4"
"","2361","image-button-response","45","null","303050","689b8a7a4faa850af7a40460","689bdf6a03562820e7a43dd3","672bf6a8b306f66878d7d5ff","1","S88_age8_trial1.png","false","false","https://kisumu-drawings.s3-us-west-1.amazonaws.com/tracings/S88_age8_trial1.png","4"
"","2479","image-button-response","46","null","306041","689b8a7a4faa850af7a40460","689bdf6a03562820e7a43dd3","672bf6a8b306f66878d7d5ff","1","S76_age7_trial1.png","false","false","https://kisumu-drawings.s3-us-west-1.amazonaws.com/tracings/S76_age7_trial1.png","4"
"","1698","image-button-response","47","null","308246","689b8a7a4faa850af7a40460","689bdf6a03562820e7a43dd3","672bf6a8b306f66878d7d5ff","4","S36_age5_trial4.png","false","false","https://kisumu-drawings.s3-us-west-1.amazonaws.com/tracings/S36_age5_trial4.png","5"
"","4181","image-button-response","48","null","312931","689b8a7a4faa850af7a40460","689bdf6a03562820e7a43dd3","672bf6a8b306f66878d7d5ff","3","S20_age4_trial3.png","false","false","https://kisumu-drawings.s3-us-west-1.amazonaws.com/tracings/S20_age4_trial3.png","1"
"","2065","image-button-response","49","null","315505","689b8a7a4faa850af7a40460","689bdf6a03562820e7a43dd3","672bf6a8b306f66878d7d5ff","3","S36_age5_trial3.png","false","false","https://kisumu-drawings.s3-us-west-1.amazonaws.com/tracings/S36_age5_trial3.png","5"
"","2556","image-button-response","50","null","318567","689b8a7a4faa850af7a40460","689bdf6a03562820e7a43dd3","672bf6a8b306f66878d7d5ff","1","S55_age6_trial1.png","false","false","https://kisumu-drawings.s3-us-west-1.amazonaws.com/tracings/S55_age6_trial1.png","5"
"","2709","image-button-response","51","null","321781","689b8a7a4faa850af7a40460","689bdf6a03562820e7a43dd3","672bf6a8b306f66878d7d5ff","3","S34_age5_trial3.png","false","false","https://kisumu-drawings.s3-us-west-1.amazonaws.com/tracings/S34_age5_trial3.png","2"
"","1483","image-button-response","52","null","323765","689b8a7a4faa850af7a40460","689bdf6a03562820e7a43dd3","672bf6a8b306f66878d7d5ff","1","S53_age6_trial1.png","false","false","https://kisumu-drawings.s3-us-west-1.amazonaws.com/tracings/S53_age6_trial1.png","2"
"","1790","image-button-response","53","null","326057","689b8a7a4faa850af7a40460","689bdf6a03562820e7a43dd3","672bf6a8b306f66878d7d5ff","3","S95_age8_trial3.png","false","false","https://kisumu-drawings.s3-us-west-1.amazonaws.com/tracings/S95_age8_trial3.png","5"
"","6236","image-button-response","54","null","332797","689b8a7a4faa850af7a40460","689bdf6a03562820e7a43dd3","672bf6a8b306f66878d7d5ff","5","S80_age7_trial5.png","false","false","https://kisumu-drawings.s3-us-west-1.amazonaws.com/tracings/S80_age7_trial5.png","5"
"","2845","image-button-response","55","null","336144","689b8a7a4faa850af7a40460","689bdf6a03562820e7a43dd3","672bf6a8b306f66878d7d5ff","5","S39_age5_trial5.png","false","false","https://kisumu-drawings.s3-us-west-1.amazonaws.com/tracings/S39_age5_trial5.png","1"
"","2152","image-button-response","56","null","338798","689b8a7a4faa850af7a40460","689bdf6a03562820e7a43dd3","672bf6a8b306f66878d7d5ff","2","S37_age5_trial2.png","false","false","https://kisumu-drawings.s3-us-west-1.amazonaws.com/tracings/S37_age5_trial2.png","5"
"","1397","image-button-response","57","null","340698","689b8a7a4faa850af7a40460","689bdf6a03562820e7a43dd3","672bf6a8b306f66878d7d5ff","4","S95_age8_trial4.png","false","false","https://kisumu-drawings.s3-us-west-1.amazonaws.com/tracings/S95_age8_trial4.png","5"
"","1839","image-button-response","58","null","343040","689b8a7a4faa850af7a40460","689bdf6a03562820e7a43dd3","672bf6a8b306f66878d7d5ff","3","S54_age6_trial3.png","false","false","https://kisumu-drawings.s3-us-west-1.amazonaws.com/tracings/S54_age6_trial3.png","5"
"","2260","image-button-response","59","null","345802","689b8a7a4faa850af7a40460","689bdf6a03562820e7a43dd3","672bf6a8b306f66878d7d5ff","3","S120_age9_trial3.png","false","false","https://kisumu-drawings.s3-us-west-1.amazonaws.com/tracings/S120_age9_trial3.png","5"
"","2108","image-button-response","60","null","348412","689b8a7a4faa850af7a40460","689bdf6a03562820e7a43dd3","672bf6a8b306f66878d7d5ff","2","S114_age9_trial2.png","false","false","https://kisumu-drawings.s3-us-west-1.amazonaws.com/tracings/S114_age9_trial2.png","5"
"","2178","image-button-response","61","null","351105","689b8a7a4faa850af7a40460","689bdf6a03562820e7a43dd3","672bf6a8b306f66878d7d5ff","4","S120_age9_trial4.png","false","false","https://kisumu-drawings.s3-us-west-1.amazonaws.com/tracings/S120_age9_trial4.png","4"
