"view_history","rt","trial_type","trial_index","plugin_version","time_elapsed","study_id","session_id","participant_id","tracing_type","tracing_id","catch_trial","prep_trial","stimulus","response"
"[{""page_index"":0,""viewing_time"":427112},{""page_index"":1,""viewing_time"":39990},{""page_index"":2,""viewing_time"":28936},{""page_index"":3,""viewing_time"":15609},{""page_index"":4,""viewing_time"":40127}]","551774","instructions","0","null","551800","689b8a7a4faa850af7a40460","689bcdadb4506c623154a450","67ee8226309b7b9917cd01ab","","","","","",""
"","11625","image-button-response","1","null","564448","689b8a7a4faa850af7a40460","689bcdadb4506c623154a450","67ee8226309b7b9917cd01ab","2","S57_age6_trial2.png","false","false","https://kisumu-drawings.s3-us-west-1.amazonaws.com/tracings/S57_age6_trial2.png","3"
"","8661","image-button-response","2","null","573631","689b8a7a4faa850af7a40460","689bcdadb4506c623154a450","67ee8226309b7b9917cd01ab","2","S37_age5_trial2.png","false","false","https://kisumu-drawings.s3-us-west-1.amazonaws.com/tracings/S37_age5_trial2.png","4"
"","4001","image-button-response","3","null","578143","689b8a7a4faa850af7a40460","689bcdadb4506c623154a450","67ee8226309b7b9917cd01ab","5","S3_age4_trial5.png","false","false","https://kisumu-drawings.s3-us-west-1.amazonaws.com/tracings/S3_age4_trial5.png","1"
"","9644","image-button-response","4","null","588303","689b8a7a4faa850af7a40460","689bcdadb4506c623154a450","67ee8226309b7b9917cd01ab","4","S78_age7_trial4.png","false","false","https://kisumu-drawings.s3-us-west-1.amazonaws.com/tracings/S78_age7_trial4.png","4"
"","17206","image-button-response","5","null","606025","689b8a7a4faa850af7a40460","689bcdadb4506c623154a450","67ee8226309b7b9917cd01ab","2","S40_age5_trial2.png","false","false","https://kisumu-drawings.s3-us-west-1.amazonaws.com/tracings/S40_age5_trial2.png","4"
"","10089","image-button-response","6","null","616622","689b8a7a4faa850af7a40460","689bcdadb4506c623154a450","67ee8226309b7b9917cd01ab","2","S9_age4_trial2.png","false","false","https://kisumu-drawings.s3-us-west-1.amazonaws.com/tracings/S9_age4_trial2.png","3"
"","10696","image-button-response","7","null","627837","689b8a7a4faa850af7a40460","689bcdadb4506c623154a450","67ee8226309b7b9917cd01ab","4","S58_age6_trial4.png","false","false","https://kisumu-drawings.s3-us-west-1.amazonaws.com/tracings/S58_age6_trial4.png","4"
"","6030","image-button-response","8","null","634376","689b8a7a4faa850af7a40460","689bcdadb4506c623154a450","67ee8226309b7b9917cd01ab","4","S7_age4_trial4.png","false","false","https://kisumu-drawings.s3-us-west-1.amazonaws.com/tracings/S7_age4_trial4.png","3"
"","10264","image-button-response","9","null","645158","689b8a7a4faa850af7a40460","689bcdadb4506c623154a450","67ee8226309b7b9917cd01ab","5","S118_age9_trial5.png","false","false","https://kisumu-drawings.s3-us-west-1.amazonaws.com/tracings/S118_age9_trial5.png","2"
"","9952","image-button-response","10","null","655624","689b8a7a4faa850af7a40460","689bcdadb4506c623154a450","67ee8226309b7b9917cd01ab","3","S75_age7_trial3.png","false","false","https://kisumu-drawings.s3-us-west-1.amazonaws.com/tracings/S75_age7_trial3.png","4"
"","8021","image-button-response","11","null","664166","689b8a7a4faa850af7a40460","689bcdadb4506c623154a450","67ee8226309b7b9917cd01ab","5","S77_age7_trial5.png","false","false","https://kisumu-drawings.s3-us-west-1.amazonaws.com/tracings/S77_age7_trial5.png","2"
"","5905","image-button-response","12","null","670574","689b8a7a4faa850af7a40460","689bcdadb4506c623154a450","67ee8226309b7b9917cd01ab","5","S56_age6_trial5.png","false","false","https://kisumu-drawings.s3-us-west-1.amazonaws.com/tracings/S56_age6_trial5.png","3"
"","4152","image-button-response","13","null","675231","689b8a7a4faa850af7a40460","689bcdadb4506c623154a450","67ee8226309b7b9917cd01ab","2","S54_age6_trial2.png","false","false","https://kisumu-drawings.s3-us-west-1.amazonaws.com/tracings/S54_age6_trial2.png","5"
"","2543","image-button-response","14","null","678278","689b8a7a4faa850af7a40460","689bcdadb4506c623154a450","67ee8226309b7b9917cd01ab","2","","true","false","stimuli/catch_trials/catch_trial.png","3"
"","8406","image-button-response","15","null","687205","689b8a7a4faa850af7a40460","689bcdadb4506c623154a450","67ee8226309b7b9917cd01ab","3","S2_age4_trial3.png","false","false","https://kisumu-drawings.s3-us-west-1.amazonaws.com/tracings/S2_age4_trial3.png","4"
"","4944","image-button-response","16","null","692661","689b8a7a4faa850af7a40460","689bcdadb4506c623154a450","67ee8226309b7b9917cd01ab","2","S118_age9_trial2.png","false","false","https://kisumu-drawings.s3-us-west-1.amazonaws.com/tracings/S118_age9_trial2.png","5"
"","5679","image-button-response","17","null","698845","689b8a7a4faa850af7a40460","689bcdadb4506c623154a450","67ee8226309b7b9917cd01ab","3","S37_age5_trial3.png","false","false","https://kisumu-drawings.s3-us-west-1.amazonaws.com/tracings/S37_age5_trial3.png","2"
"","10465","image-button-response","18","null","709830","689b8a7a4faa850af7a40460","689bcdadb4506c623154a450","67ee8226309b7b9917cd01ab","1","S36_age5_trial1.png","false","false","https://kisumu-drawings.s3-us-west-1.amazonaws.com/tracings/S36_age5_trial1.png","2"
"","9579","image-button-response","19","null","719917","689b8a7a4faa850af7a40460","689bcdadb4506c623154a450","67ee8226309b7b9917cd01ab","1","S75_age7_trial1.png","false","false","https://kisumu-drawings.s3-us-west-1.amazonaws.com/tracings/S75_age7_trial1.png","4"
"","6151","image-button-response","20","null","726583","689b8a7a4faa850af7a40460","689bcdadb4506c623154a450","67ee8226309b7b9917cd01ab","4","S119_age9_trial4.png","false","false","https://kisumu-drawings.s3-us-west-1.amazonaws.com/tracings/S119_age9_trial4.png","3"
"","8671","image-button-response","21","null","735765","689b8a7a4faa850af7a40460","689bcdadb4506c623154a450","67ee8226309b7b9917cd01ab","2","S116_age9_trial2.png","false","false","https://kisumu-drawings.s3-us-west-1.amazonaws.com/tracings/S116_age9_trial2.png","3"
"","6897","image-button-response","22","null","743167","689b8a7a4faa850af7a40460","689bcdadb4506c623154a450","67ee8226309b7b9917cd01ab","1","S60_age6_trial1.png","false","false","https://kisumu-drawings.s3-us-west-1.amazonaws.com/tracings/S60_age6_trial1.png","3"
"","3567","image-button-response","23","null","747245","689b8a7a4faa850af7a40460","689bcdadb4506c623154a450","67ee8226309b7b9917cd01ab","1","S119_age9_trial1.png","false","false","https://kisumu-drawings.s3-us-west-1.amazonaws.com/tracings/S119_age9_trial1.png","4"
"","11846","image-button-response","24","null","759597","689b8a7a4faa850af7a40460","689bcdadb4506c623154a450","67ee8226309b7b9917cd01ab","3","S36_age5_trial3.png","false","false","https://kisumu-drawings.s3-us-west-1.amazonaws.com/tracings/S36_age5_trial3.png","4"
"","5160","image-button-response","25","null","765268","689b8a7a4faa850af7a40460","689bcdadb4506c623154a450","67ee8226309b7b9917cd01ab","2","S94_age8_trial2.png","false","false","https://kisumu-drawings.s3-us-west-1.amazonaws.com/tracings/S94_age8_trial2.png","4"
"","4399","image-button-response","26","null","770182","689b8a7a4faa850af7a40460","689bcdadb4506c623154a450","67ee8226309b7b9917cd01ab","1","S40_age5_trial1.png","false","false","https://kisumu-drawings.s3-us-west-1.amazonaws.com/tracings/S40_age5_trial1.png","4"
"","6987","image-button-response","27","null","777677","689b8a7a4faa850af7a40460","689bcdadb4506c623154a450","67ee8226309b7b9917cd01ab","1","S9_age4_trial1.png","false","false","https://kisumu-drawings.s3-us-west-1.amazonaws.com/tracings/S9_age4_trial1.png","4"
"","6358","image-button-response","28","null","784549","689b8a7a4faa850af7a40460","689bcdadb4506c623154a450","67ee8226309b7b9917cd01ab","5","S57_age6_trial5.png","false","false","https://kisumu-drawings.s3-us-west-1.amazonaws.com/tracings/S57_age6_trial5.png","4"
"","6261","image-button-response","29","null","791325","689b8a7a4faa850af7a40460","689bcdadb4506c623154a450","67ee8226309b7b9917cd01ab","3","S115_age9_trial3.png","false","false","https://kisumu-drawings.s3-us-west-1.amazonaws.com/tracings/S115_age9_trial3.png","3"
"","8391","image-button-response","30","null","800222","689b8a7a4faa850af7a40460","689bcdadb4506c623154a450","67ee8226309b7b9917cd01ab","5","S94_age8_trial5.png","false","false","https://kisumu-drawings.s3-us-west-1.amazonaws.com/tracings/S94_age8_trial5.png","2"
"","3909","image-button-response","31","null","804637","689b8a7a4faa850af7a40460","689bcdadb4506c623154a450","67ee8226309b7b9917cd01ab","5","S37_age5_trial5.png","false","false","https://kisumu-drawings.s3-us-west-1.amazonaws.com/tracings/S37_age5_trial5.png","2"
"","5673","image-button-response","32","null","810827","689b8a7a4faa850af7a40460","689bcdadb4506c623154a450","67ee8226309b7b9917cd01ab","4","S6_age4_trial4.png","false","false","https://kisumu-drawings.s3-us-west-1.amazonaws.com/tracings/S6_age4_trial4.png","1"
"","18439","image-button-response","33","null","829788","689b8a7a4faa850af7a40460","689bcdadb4506c623154a450","67ee8226309b7b9917cd01ab","3","S118_age9_trial3.png","false","false","https://kisumu-drawings.s3-us-west-1.amazonaws.com/tracings/S118_age9_trial3.png","3"
"","6513","image-button-response","34","null","836804","689b8a7a4faa850af7a40460","689bcdadb4506c623154a450","67ee8226309b7b9917cd01ab","3","S3_age4_trial3.png","false","false","https://kisumu-drawings.s3-us-west-1.amazonaws.com/tracings/S3_age4_trial3.png","4"
"","9390","image-button-response","35","null","846700","689b8a7a4faa850af7a40460","689bcdadb4506c623154a450","67ee8226309b7b9917cd01ab","5","S114_age9_trial5.png","false","false","https://kisumu-drawings.s3-us-west-1.amazonaws.com/tracings/S114_age9_trial5.png","3"
"","9323","image-button-response","36","null","856536","689b8a7a4faa850af7a40460","689bcdadb4506c623154a450","67ee8226309b7b9917cd01ab","4","S40_age5_trial4.png","false","false","https://kisumu-drawings.s3-us-west-1.amazonaws.com/tracings/S40_age5_trial4.png","5"
"","8706","image-button-response","37","null","865748","689b8a7a4faa850af7a40460","689bcdadb4506c623154a450","67ee8226309b7b9917cd01ab","1","S73_age7_trial1.png","false","false","https://kisumu-drawings.s3-us-west-1.amazonaws.com/tracings/S73_age7_trial1.png","3"
"","6147","image-button-response","38","null","872415","689b8a7a4faa850af7a40460","689bcdadb4506c623154a450","67ee8226309b7b9917cd01ab","2","S74_age7_trial2.png","false","false","https://kisumu-drawings.s3-us-west-1.amazonaws.com/tracings/S74_age7_trial2.png","3"
"","6626","image-button-response","39","null","879549","689b8a7a4faa850af7a40460","689bcdadb4506c623154a450","67ee8226309b7b9917cd01ab","4","S95_age8_trial4.png","false","false","https://kisumu-drawings.s3-us-west-1.amazonaws.com/tracings/S95_age8_trial4.png","3"
"","6217","image-button-response","40","null","886275","689b8a7a4faa850af7a40460","689bcdadb4506c623154a450","67ee8226309b7b9917cd01ab","3","S56_age6_trial3.png","false","false","https://kisumu-drawings.s3-us-west-1.amazonaws.com/tracings/S56_age6_trial3.png","4"
"","5628","image-button-response","41","null","892411","689b8a7a4faa850af7a40460","689bcdadb4506c623154a450","67ee8226309b7b9917cd01ab","5","S8_age4_trial5.png","false","false","https://kisumu-drawings.s3-us-west-1.amazonaws.com/tracings/S8_age4_trial5.png","4"
"","3726","image-button-response","42","null","896644","689b8a7a4faa850af7a40460","689bcdadb4506c623154a450","67ee8226309b7b9917cd01ab","1","S3_age4_trial1.png","false","false","https://kisumu-drawings.s3-us-west-1.amazonaws.com/tracings/S3_age4_trial1.png","2"
"","3926","image-button-response","43","null","901084","689b8a7a4faa850af7a40460","689bcdadb4506c623154a450","67ee8226309b7b9917cd01ab","3","S99_age8_trial3.png","false","false","https://kisumu-drawings.s3-us-west-1.amazonaws.com/tracings/S99_age8_trial3.png","2"
"","4920","image-button-response","44","null","906516","689b8a7a4faa850af7a40460","689bcdadb4506c623154a450","67ee8226309b7b9917cd01ab","1","S116_age9_trial1.png","false","false","https://kisumu-drawings.s3-us-west-1.amazonaws.com/tracings/S116_age9_trial1.png","2"
"","6039","image-button-response","45","null","913071","689b8a7a4faa850af7a40460","689bcdadb4506c623154a450","67ee8226309b7b9917cd01ab","1","S97_age8_trial1.png","false","false","https://kisumu-drawings.s3-us-west-1.amazonaws.com/tracings/S97_age8_trial1.png","3"
"","7250","image-button-response","46","null","920826","689b8a7a4faa850af7a40460","689bcdadb4506c623154a450","67ee8226309b7b9917cd01ab","5","S96_age8_trial5.png","false","false","https://kisumu-drawings.s3-us-west-1.amazonaws.com/tracings/S96_age8_trial5.png","3"
"","5028","image-button-response","47","null","926371","689b8a7a4faa850af7a40460","689bcdadb4506c623154a450","67ee8226309b7b9917cd01ab","2","S3_age4_trial2.png","false","false","https://kisumu-drawings.s3-us-west-1.amazonaws.com/tracings/S3_age4_trial2.png","1"
"","4796","image-button-response","48","null","931690","689b8a7a4faa850af7a40460","689bcdadb4506c623154a450","67ee8226309b7b9917cd01ab","5","S74_age7_trial5.png","false","false","https://kisumu-drawings.s3-us-west-1.amazonaws.com/tracings/S74_age7_trial5.png","4"
"","3615","image-button-response","49","null","935818","689b8a7a4faa850af7a40460","689bcdadb4506c623154a450","67ee8226309b7b9917cd01ab","3","S55_age6_trial3.png","false","false","https://kisumu-drawings.s3-us-west-1.amazonaws.com/tracings/S55_age6_trial3.png","3"
"","4617","image-button-response","50","null","940939","689b8a7a4faa850af7a40460","689bcdadb4506c623154a450","67ee8226309b7b9917cd01ab","4","S77_age7_trial4.png","false","false","https://kisumu-drawings.s3-us-west-1.amazonaws.com/tracings/S77_age7_trial4.png","4"
"","3388","image-button-response","51","null","944843","689b8a7a4faa850af7a40460","689bcdadb4506c623154a450","67ee8226309b7b9917cd01ab","4","S99_age8_trial4.png","false","false","https://kisumu-drawings.s3-us-west-1.amazonaws.com/tracings/S99_age8_trial4.png","2"
"","5805","image-button-response","52","null","951154","689b8a7a4faa850af7a40460","689bcdadb4506c623154a450","67ee8226309b7b9917cd01ab","2","S73_age7_trial2.png","false","false","https://kisumu-drawings.s3-us-west-1.amazonaws.com/tracings/S73_age7_trial2.png","4"
"","5866","image-button-response","53","null","957539","689b8a7a4faa850af7a40460","689bcdadb4506c623154a450","67ee8226309b7b9917cd01ab","1","S99_age8_trial1.png","false","false","https://kisumu-drawings.s3-us-west-1.amazonaws.com/tracings/S99_age8_trial1.png","2"
"","3539","image-button-response","54","null","961595","689b8a7a4faa850af7a40460","689bcdadb4506c623154a450","67ee8226309b7b9917cd01ab","4","S115_age9_trial4.png","false","false","https://kisumu-drawings.s3-us-west-1.amazonaws.com/tracings/S115_age9_trial4.png","2"
"","5390","image-button-response","55","null","967498","689b8a7a4faa850af7a40460","689bcdadb4506c623154a450","67ee8226309b7b9917cd01ab","2","S96_age8_trial2.png","false","false","https://kisumu-drawings.s3-us-west-1.amazonaws.com/tracings/S96_age8_trial2.png","3"
"","4364","image-button-response","56","null","972371","689b8a7a4faa850af7a40460","689bcdadb4506c623154a450","67ee8226309b7b9917cd01ab","3","S98_age8_trial3.png","false","false","https://kisumu-drawings.s3-us-west-1.amazonaws.com/tracings/S98_age8_trial3.png","4"
"","7494","image-button-response","57","null","980387","689b8a7a4faa850af7a40460","689bcdadb4506c623154a450","67ee8226309b7b9917cd01ab","4","S36_age5_trial4.png","false","false","https://kisumu-drawings.s3-us-west-1.amazonaws.com/tracings/S36_age5_trial4.png","3"
"","7635","image-button-response","58","null","988532","689b8a7a4faa850af7a40460","689bcdadb4506c623154a450","67ee8226309b7b9917cd01ab","5","S36_age5_trial5.png","false","false","https://kisumu-drawings.s3-us-west-1.amazonaws.com/tracings/S36_age5_trial5.png","3"
"","7696","image-button-response","59","null","996730","689b8a7a4faa850af7a40460","689bcdadb4506c623154a450","67ee8226309b7b9917cd01ab","3","S77_age7_trial3.png","false","false","https://kisumu-drawings.s3-us-west-1.amazonaws.com/tracings/S77_age7_trial3.png","4"
"","6806","image-button-response","60","null","1004042","689b8a7a4faa850af7a40460","689bcdadb4506c623154a450","67ee8226309b7b9917cd01ab","4","S60_age6_trial4.png","false","false","https://kisumu-drawings.s3-us-west-1.amazonaws.com/tracings/S60_age6_trial4.png","3"
"","4370","image-button-response","61","null","1008930","689b8a7a4faa850af7a40460","689bcdadb4506c623154a450","67ee8226309b7b9917cd01ab","1","S55_age6_trial1.png","false","false","https://kisumu-drawings.s3-us-west-1.amazonaws.com/tracings/S55_age6_trial1.png","4"
