view_history,rt,trial_type,trial_index,plugin_version,time_elapsed,study_id,session_id,participant_id,tracing_type,tracing_id,catch_trial,prep_trial,stimulus,response
"[{""page_index"":0,""viewing_time"":31621},{""page_index"":1,""viewing_time"":12032},{""page_index"":2,""viewing_time"":12616},{""page_index"":3,""viewing_time"":6920},{""page_index"":4,""viewing_time"":38824}]",102013,instructions,0,,102033,689b8a7a4faa850af7a40460,689bd9087e397e12b61135fc,133,,,,,,
,13490,image-button-response,1,,116537,689b8a7a4faa850af7a40460,689bd9087e397e12b61135fc,133,2.0,S40_age5_trial2.png,False,False,https://kisumu-drawings.s3-us-west-1.amazonaws.com/tracings/S40_age5_trial2.png,5.0
,9508,image-button-response,2,,126561,689b8a7a4faa850af7a40460,689bd9087e397e12b61135fc,133,2.0,S77_age7_trial2.png,False,False,https://kisumu-drawings.s3-us-west-1.amazonaws.com/tracings/S77_age7_trial2.png,5.0
,13313,image-button-response,3,,140386,689b8a7a4faa850af7a40460,689bd9087e397e12b61135fc,133,1.0,S58_age6_trial1.png,False,False,https://kisumu-drawings.s3-us-west-1.amazonaws.com/tracings/S58_age6_trial1.png,5.0
,16436,image-button-response,4,,157337,689b8a7a4faa850af7a40460,689bd9087e397e12b61135fc,133,2.0,S115_age9_trial2.png,False,False,https://kisumu-drawings.s3-us-west-1.amazonaws.com/tracings/S115_age9_trial2.png,5.0
,12415,image-button-response,5,,170257,689b8a7a4faa850af7a40460,689bd9087e397e12b61135fc,133,3.0,S99_age8_trial3.png,False,False,https://kisumu-drawings.s3-us-west-1.amazonaws.com/tracings/S99_age8_trial3.png,5.0
,13228,image-button-response,6,,183993,689b8a7a4faa850af7a40460,689bd9087e397e12b61135fc,133,1.0,S75_age7_trial1.png,False,False,https://kisumu-drawings.s3-us-west-1.amazonaws.com/tracings/S75_age7_trial1.png,5.0
,14037,image-button-response,7,,198536,689b8a7a4faa850af7a40460,689bd9087e397e12b61135fc,133,4.0,S33_age5_trial4.png,False,False,https://kisumu-drawings.s3-us-west-1.amazonaws.com/tracings/S33_age5_trial4.png,4.0
,11041,image-button-response,8,,210096,689b8a7a4faa850af7a40460,689bd9087e397e12b61135fc,133,1.0,S78_age7_trial1.png,False,False,https://kisumu-drawings.s3-us-west-1.amazonaws.com/tracings/S78_age7_trial1.png,5.0
,12708,image-button-response,9,,223312,689b8a7a4faa850af7a40460,689bd9087e397e12b61135fc,133,1.0,S5_age4_trial1.png,False,False,https://kisumu-drawings.s3-us-west-1.amazonaws.com/tracings/S5_age4_trial1.png,4.0
,11818,image-button-response,10,,235642,689b8a7a4faa850af7a40460,689bd9087e397e12b61135fc,133,2.0,S8_age4_trial2.png,False,False,https://kisumu-drawings.s3-us-west-1.amazonaws.com/tracings/S8_age4_trial2.png,4.0
,12352,image-button-response,11,,248504,689b8a7a4faa850af7a40460,689bd9087e397e12b61135fc,133,3.0,S2_age4_trial3.png,False,False,https://kisumu-drawings.s3-us-west-1.amazonaws.com/tracings/S2_age4_trial3.png,4.0
,8414,image-button-response,12,,257424,689b8a7a4faa850af7a40460,689bd9087e397e12b61135fc,133,2.0,S34_age5_trial2.png,False,False,https://kisumu-drawings.s3-us-west-1.amazonaws.com/tracings/S34_age5_trial2.png,4.0
,13472,image-button-response,13,,271409,689b8a7a4faa850af7a40460,689bd9087e397e12b61135fc,133,4.0,S120_age9_trial4.png,False,False,https://kisumu-drawings.s3-us-west-1.amazonaws.com/tracings/S120_age9_trial4.png,4.0
,15472,image-button-response,14,,287400,689b8a7a4faa850af7a40460,689bd9087e397e12b61135fc,133,1.0,S118_age9_trial1.png,False,False,https://kisumu-drawings.s3-us-west-1.amazonaws.com/tracings/S118_age9_trial1.png,5.0
,24135,image-button-response,15,,312041,689b8a7a4faa850af7a40460,689bd9087e397e12b61135fc,133,1.0,S60_age6_trial1.png,False,False,https://kisumu-drawings.s3-us-west-1.amazonaws.com/tracings/S60_age6_trial1.png,5.0
,9304,image-button-response,16,,321864,689b8a7a4faa850af7a40460,689bd9087e397e12b61135fc,133,4.0,S80_age7_trial4.png,False,False,https://kisumu-drawings.s3-us-west-1.amazonaws.com/tracings/S80_age7_trial4.png,4.0
,12934,image-button-response,17,,335312,689b8a7a4faa850af7a40460,689bd9087e397e12b61135fc,133,4.0,S56_age6_trial4.png,False,False,https://kisumu-drawings.s3-us-west-1.amazonaws.com/tracings/S56_age6_trial4.png,5.0
,10707,image-button-response,18,,346528,689b8a7a4faa850af7a40460,689bd9087e397e12b61135fc,133,2.0,S56_age6_trial2.png,False,False,https://kisumu-drawings.s3-us-west-1.amazonaws.com/tracings/S56_age6_trial2.png,4.0
,12464,image-button-response,19,,359503,689b8a7a4faa850af7a40460,689bd9087e397e12b61135fc,133,4.0,S8_age4_trial4.png,False,False,https://kisumu-drawings.s3-us-west-1.amazonaws.com/tracings/S8_age4_trial4.png,2.0
,10203,image-button-response,20,,370225,689b8a7a4faa850af7a40460,689bd9087e397e12b61135fc,133,3.0,S54_age6_trial3.png,False,False,https://kisumu-drawings.s3-us-west-1.amazonaws.com/tracings/S54_age6_trial3.png,5.0
,17234,image-button-response,21,,387975,689b8a7a4faa850af7a40460,689bd9087e397e12b61135fc,133,4.0,S99_age8_trial4.png,False,False,https://kisumu-drawings.s3-us-west-1.amazonaws.com/tracings/S99_age8_trial4.png,5.0
,9733,image-button-response,22,,398232,689b8a7a4faa850af7a40460,689bd9087e397e12b61135fc,133,2.0,S55_age6_trial2.png,False,False,https://kisumu-drawings.s3-us-west-1.amazonaws.com/tracings/S55_age6_trial2.png,5.0
,26146,image-button-response,23,,424888,689b8a7a4faa850af7a40460,689bd9087e397e12b61135fc,133,4.0,S38_age5_trial4.png,False,False,https://kisumu-drawings.s3-us-west-1.amazonaws.com/tracings/S38_age5_trial4.png,4.0
,14674,image-button-response,24,,440072,689b8a7a4faa850af7a40460,689bd9087e397e12b61135fc,133,5.0,S53_age6_trial5.png,False,False,https://kisumu-drawings.s3-us-west-1.amazonaws.com/tracings/S53_age6_trial5.png,4.0
,7310,image-button-response,25,,447897,689b8a7a4faa850af7a40460,689bd9087e397e12b61135fc,133,1.0,S7_age4_trial1.png,False,False,https://kisumu-drawings.s3-us-west-1.amazonaws.com/tracings/S7_age4_trial1.png,4.0
,5028,image-button-response,26,,453432,689b8a7a4faa850af7a40460,689bd9087e397e12b61135fc,133,5.0,S116_age9_trial5.png,False,False,https://kisumu-drawings.s3-us-west-1.amazonaws.com/tracings/S116_age9_trial5.png,5.0
,9702,image-button-response,27,,463640,689b8a7a4faa850af7a40460,689bd9087e397e12b61135fc,133,2.0,S78_age7_trial2.png,False,False,https://kisumu-drawings.s3-us-west-1.amazonaws.com/tracings/S78_age7_trial2.png,5.0
,9259,image-button-response,28,,473408,689b8a7a4faa850af7a40460,689bd9087e397e12b61135fc,133,1.0,S36_age5_trial1.png,False,False,https://kisumu-drawings.s3-us-west-1.amazonaws.com/tracings/S36_age5_trial1.png,4.0
,15226,image-button-response,29,,489144,689b8a7a4faa850af7a40460,689bd9087e397e12b61135fc,133,4.0,S74_age7_trial4.png,False,False,https://kisumu-drawings.s3-us-west-1.amazonaws.com/tracings/S74_age7_trial4.png,4.0
,16014,image-button-response,30,,505664,689b8a7a4faa850af7a40460,689bd9087e397e12b61135fc,133,4.0,S59_age6_trial4.png,False,False,https://kisumu-drawings.s3-us-west-1.amazonaws.com/tracings/S59_age6_trial4.png,2.0
,12018,image-button-response,31,,518193,689b8a7a4faa850af7a40460,689bd9087e397e12b61135fc,133,5.0,S3_age4_trial5.png,False,False,https://kisumu-drawings.s3-us-west-1.amazonaws.com/tracings/S3_age4_trial5.png,2.0
,12363,image-button-response,32,,531072,689b8a7a4faa850af7a40460,689bd9087e397e12b61135fc,133,2.0,,True,False,stimuli/catch_trials/catch_trial.png,1.0
,17779,image-button-response,33,,549361,689b8a7a4faa850af7a40460,689bd9087e397e12b61135fc,133,3.0,S4_age4_trial3.png,False,False,https://kisumu-drawings.s3-us-west-1.amazonaws.com/tracings/S4_age4_trial3.png,4.0
,11403,image-button-response,34,,561271,689b8a7a4faa850af7a40460,689bd9087e397e12b61135fc,133,3.0,S39_age5_trial3.png,False,False,https://kisumu-drawings.s3-us-west-1.amazonaws.com/tracings/S39_age5_trial3.png,2.0
,9590,image-button-response,35,,571376,689b8a7a4faa850af7a40460,689bd9087e397e12b61135fc,133,1.0,S35_age5_trial1.png,False,False,https://kisumu-drawings.s3-us-west-1.amazonaws.com/tracings/S35_age5_trial1.png,4.0
,10271,image-button-response,36,,582151,689b8a7a4faa850af7a40460,689bd9087e397e12b61135fc,133,4.0,S2_age4_trial4.png,False,False,https://kisumu-drawings.s3-us-west-1.amazonaws.com/tracings/S2_age4_trial4.png,2.0
,10341,image-button-response,37,,593001,689b8a7a4faa850af7a40460,689bd9087e397e12b61135fc,133,5.0,S93_age8_trial5.png,False,False,https://kisumu-drawings.s3-us-west-1.amazonaws.com/tracings/S93_age8_trial5.png,5.0
,24862,image-button-response,38,,618367,689b8a7a4faa850af7a40460,689bd9087e397e12b61135fc,133,1.0,S120_age9_trial1.png,False,False,https://kisumu-drawings.s3-us-west-1.amazonaws.com/tracings/S120_age9_trial1.png,5.0
,8909,image-button-response,39,,627791,689b8a7a4faa850af7a40460,689bd9087e397e12b61135fc,133,1.0,S97_age8_trial1.png,False,False,https://kisumu-drawings.s3-us-west-1.amazonaws.com/tracings/S97_age8_trial1.png,5.0
,15797,image-button-response,40,,644096,689b8a7a4faa850af7a40460,689bd9087e397e12b61135fc,133,2.0,S119_age9_trial2.png,False,False,https://kisumu-drawings.s3-us-west-1.amazonaws.com/tracings/S119_age9_trial2.png,5.0
,13956,image-button-response,41,,658560,689b8a7a4faa850af7a40460,689bd9087e397e12b61135fc,133,4.0,S95_age8_trial4.png,False,False,https://kisumu-drawings.s3-us-west-1.amazonaws.com/tracings/S95_age8_trial4.png,5.0
,39702,image-button-response,42,,698777,689b8a7a4faa850af7a40460,689bd9087e397e12b61135fc,133,2.0,S5_age4_trial2.png,False,False,https://kisumu-drawings.s3-us-west-1.amazonaws.com/tracings/S5_age4_trial2.png,4.0
,21859,image-button-response,43,,721152,689b8a7a4faa850af7a40460,689bd9087e397e12b61135fc,133,5.0,S75_age7_trial5.png,False,False,https://kisumu-drawings.s3-us-west-1.amazonaws.com/tracings/S75_age7_trial5.png,4.0
,23597,image-button-response,44,,745272,689b8a7a4faa850af7a40460,689bd9087e397e12b61135fc,133,3.0,S117_age9_trial3.png,False,False,https://kisumu-drawings.s3-us-west-1.amazonaws.com/tracings/S117_age9_trial3.png,5.0
,8550,image-button-response,45,,754328,689b8a7a4faa850af7a40460,689bd9087e397e12b61135fc,133,2.0,S95_age8_trial2.png,False,False,https://kisumu-drawings.s3-us-west-1.amazonaws.com/tracings/S95_age8_trial2.png,5.0
,7110,image-button-response,46,,761943,689b8a7a4faa850af7a40460,689bd9087e397e12b61135fc,133,3.0,S37_age5_trial3.png,False,False,https://kisumu-drawings.s3-us-west-1.amazonaws.com/tracings/S37_age5_trial3.png,5.0
,5086,image-button-response,47,,767535,689b8a7a4faa850af7a40460,689bd9087e397e12b61135fc,133,1.0,S93_age8_trial1.png,False,False,https://kisumu-drawings.s3-us-west-1.amazonaws.com/tracings/S93_age8_trial1.png,5.0
,7413,image-button-response,48,,775456,689b8a7a4faa850af7a40460,689bd9087e397e12b61135fc,133,5.0,S113_age9_trial5.png,False,False,https://kisumu-drawings.s3-us-west-1.amazonaws.com/tracings/S113_age9_trial5.png,5.0
,8835,image-button-response,49,,784816,689b8a7a4faa850af7a40460,689bd9087e397e12b61135fc,133,5.0,S35_age5_trial5.png,False,False,https://kisumu-drawings.s3-us-west-1.amazonaws.com/tracings/S35_age5_trial5.png,4.0
,8600,image-button-response,50,,793936,689b8a7a4faa850af7a40460,689bd9087e397e12b61135fc,133,5.0,S58_age6_trial5.png,False,False,https://kisumu-drawings.s3-us-west-1.amazonaws.com/tracings/S58_age6_trial5.png,5.0
,9903,image-button-response,51,,804352,689b8a7a4faa850af7a40460,689bd9087e397e12b61135fc,133,5.0,S94_age8_trial5.png,False,False,https://kisumu-drawings.s3-us-west-1.amazonaws.com/tracings/S94_age8_trial5.png,5.0
,8306,image-button-response,52,,813184,689b8a7a4faa850af7a40460,689bd9087e397e12b61135fc,133,3.0,S79_age7_trial3.png,False,False,https://kisumu-drawings.s3-us-west-1.amazonaws.com/tracings/S79_age7_trial3.png,5.0
,7489,image-button-response,53,,821175,689b8a7a4faa850af7a40460,689bd9087e397e12b61135fc,133,5.0,S5_age4_trial5.png,False,False,https://kisumu-drawings.s3-us-west-1.amazonaws.com/tracings/S5_age4_trial5.png,2.0
,22617,image-button-response,54,,844304,689b8a7a4faa850af7a40460,689bd9087e397e12b61135fc,133,3.0,S120_age9_trial3.png,False,False,https://kisumu-drawings.s3-us-west-1.amazonaws.com/tracings/S120_age9_trial3.png,4.0
,6490,image-button-response,55,,851311,689b8a7a4faa850af7a40460,689bd9087e397e12b61135fc,133,5.0,S37_age5_trial5.png,False,False,https://kisumu-drawings.s3-us-west-1.amazonaws.com/tracings/S37_age5_trial5.png,5.0
,7238,image-button-response,56,,859056,689b8a7a4faa850af7a40460,689bd9087e397e12b61135fc,133,3.0,S55_age6_trial3.png,False,False,https://kisumu-drawings.s3-us-west-1.amazonaws.com/tracings/S55_age6_trial3.png,5.0
,9714,image-button-response,57,,869273,689b8a7a4faa850af7a40460,689bd9087e397e12b61135fc,133,3.0,S80_age7_trial3.png,False,False,https://kisumu-drawings.s3-us-west-1.amazonaws.com/tracings/S80_age7_trial3.png,4.0
,7493,image-button-response,58,,877272,689b8a7a4faa850af7a40460,689bd9087e397e12b61135fc,133,3.0,S96_age8_trial3.png,False,False,https://kisumu-drawings.s3-us-west-1.amazonaws.com/tracings/S96_age8_trial3.png,5.0
,9328,image-button-response,59,,887105,689b8a7a4faa850af7a40460,689bd9087e397e12b61135fc,133,2.0,S97_age8_trial2.png,False,False,https://kisumu-drawings.s3-us-west-1.amazonaws.com/tracings/S97_age8_trial2.png,2.0
,16924,image-button-response,60,,904543,689b8a7a4faa850af7a40460,689bd9087e397e12b61135fc,133,5.0,S76_age7_trial5.png,False,False,https://kisumu-drawings.s3-us-west-1.amazonaws.com/tracings/S76_age7_trial5.png,4.0
,16652,image-button-response,61,,921703,689b8a7a4faa850af7a40460,689bd9087e397e12b61135fc,133,4.0,S116_age9_trial4.png,False,False,https://kisumu-drawings.s3-us-west-1.amazonaws.com/tracings/S116_age9_trial4.png,5.0
