view_history,rt,trial_type,trial_index,plugin_version,time_elapsed,study_id,session_id,participant_id,tracing_type,tracing_id,catch_trial,prep_trial,stimulus,response
"[{""page_index"":0,""viewing_time"":31442},{""page_index"":1,""viewing_time"":25452},{""page_index"":2,""viewing_time"":16765},{""page_index"":3,""viewing_time"":16996},{""page_index"":4,""viewing_time"":22435}]",113090,instructions,0,,113110,689b8a7a4faa850af7a40460,689bbc88591e57990f44cb23,97,,,,,,
,7046,image-button-response,1,,121184,689b8a7a4faa850af7a40460,689bbc88591e57990f44cb23,97,3.0,S55_age6_trial3.png,False,False,https://kisumu-drawings.s3-us-west-1.amazonaws.com/tracings/S55_age6_trial3.png,3.0
,15298,image-button-response,2,,136990,689b8a7a4faa850af7a40460,689bbc88591e57990f44cb23,97,1.0,S115_age9_trial1.png,False,False,https://kisumu-drawings.s3-us-west-1.amazonaws.com/tracings/S115_age9_trial1.png,2.0
,12398,image-button-response,3,,149902,689b8a7a4faa850af7a40460,689bbc88591e57990f44cb23,97,3.0,S57_age6_trial3.png,False,False,https://kisumu-drawings.s3-us-west-1.amazonaws.com/tracings/S57_age6_trial3.png,3.0
,5742,image-button-response,4,,156150,689b8a7a4faa850af7a40460,689bbc88591e57990f44cb23,97,3.0,S3_age4_trial3.png,False,False,https://kisumu-drawings.s3-us-west-1.amazonaws.com/tracings/S3_age4_trial3.png,4.0
,4208,image-button-response,5,,160868,689b8a7a4faa850af7a40460,689bbc88591e57990f44cb23,97,3.0,S33_age5_trial3.png,False,False,https://kisumu-drawings.s3-us-west-1.amazonaws.com/tracings/S33_age5_trial3.png,2.0
,3317,image-button-response,6,,164694,689b8a7a4faa850af7a40460,689bbc88591e57990f44cb23,97,3.0,S78_age7_trial3.png,False,False,https://kisumu-drawings.s3-us-west-1.amazonaws.com/tracings/S78_age7_trial3.png,4.0
,5666,image-button-response,7,,170876,689b8a7a4faa850af7a40460,689bbc88591e57990f44cb23,97,4.0,S94_age8_trial4.png,False,False,https://kisumu-drawings.s3-us-west-1.amazonaws.com/tracings/S94_age8_trial4.png,5.0
,5142,image-button-response,8,,176529,689b8a7a4faa850af7a40460,689bbc88591e57990f44cb23,97,5.0,S116_age9_trial5.png,False,False,https://kisumu-drawings.s3-us-west-1.amazonaws.com/tracings/S116_age9_trial5.png,5.0
,3363,image-button-response,9,,180400,689b8a7a4faa850af7a40460,689bbc88591e57990f44cb23,97,2.0,S56_age6_trial2.png,False,False,https://kisumu-drawings.s3-us-west-1.amazonaws.com/tracings/S56_age6_trial2.png,4.0
,4687,image-button-response,10,,185595,689b8a7a4faa850af7a40460,689bbc88591e57990f44cb23,97,3.0,S95_age8_trial3.png,False,False,https://kisumu-drawings.s3-us-west-1.amazonaws.com/tracings/S95_age8_trial3.png,5.0
,5429,image-button-response,11,,191534,689b8a7a4faa850af7a40460,689bbc88591e57990f44cb23,97,5.0,S74_age7_trial5.png,False,False,https://kisumu-drawings.s3-us-west-1.amazonaws.com/tracings/S74_age7_trial5.png,4.0
,3899,image-button-response,12,,195947,689b8a7a4faa850af7a40460,689bbc88591e57990f44cb23,97,1.0,S119_age9_trial1.png,False,False,https://kisumu-drawings.s3-us-west-1.amazonaws.com/tracings/S119_age9_trial1.png,5.0
,4489,image-button-response,13,,200940,689b8a7a4faa850af7a40460,689bbc88591e57990f44cb23,97,3.0,S116_age9_trial3.png,False,False,https://kisumu-drawings.s3-us-west-1.amazonaws.com/tracings/S116_age9_trial3.png,5.0
,3712,image-button-response,14,,205170,689b8a7a4faa850af7a40460,689bbc88591e57990f44cb23,97,2.0,S80_age7_trial2.png,False,False,https://kisumu-drawings.s3-us-west-1.amazonaws.com/tracings/S80_age7_trial2.png,4.0
,6046,image-button-response,15,,211729,689b8a7a4faa850af7a40460,689bbc88591e57990f44cb23,97,3.0,S36_age5_trial3.png,False,False,https://kisumu-drawings.s3-us-west-1.amazonaws.com/tracings/S36_age5_trial3.png,5.0
,5913,image-button-response,16,,218147,689b8a7a4faa850af7a40460,689bbc88591e57990f44cb23,97,4.0,S119_age9_trial4.png,False,False,https://kisumu-drawings.s3-us-west-1.amazonaws.com/tracings/S119_age9_trial4.png,5.0
,3276,image-button-response,17,,221932,689b8a7a4faa850af7a40460,689bbc88591e57990f44cb23,97,1.0,S39_age5_trial1.png,False,False,https://kisumu-drawings.s3-us-west-1.amazonaws.com/tracings/S39_age5_trial1.png,2.0
,4200,image-button-response,18,,226635,689b8a7a4faa850af7a40460,689bbc88591e57990f44cb23,97,5.0,S60_age6_trial5.png,False,False,https://kisumu-drawings.s3-us-west-1.amazonaws.com/tracings/S60_age6_trial5.png,4.0
,3735,image-button-response,19,,230882,689b8a7a4faa850af7a40460,689bbc88591e57990f44cb23,97,5.0,S95_age8_trial5.png,False,False,https://kisumu-drawings.s3-us-west-1.amazonaws.com/tracings/S95_age8_trial5.png,5.0
,3748,image-button-response,20,,235138,689b8a7a4faa850af7a40460,689bbc88591e57990f44cb23,97,1.0,S94_age8_trial1.png,False,False,https://kisumu-drawings.s3-us-west-1.amazonaws.com/tracings/S94_age8_trial1.png,5.0
,3766,image-button-response,21,,239414,689b8a7a4faa850af7a40460,689bbc88591e57990f44cb23,97,5.0,S35_age5_trial5.png,False,False,https://kisumu-drawings.s3-us-west-1.amazonaws.com/tracings/S35_age5_trial5.png,3.0
,5168,image-button-response,22,,245096,689b8a7a4faa850af7a40460,689bbc88591e57990f44cb23,97,4.0,S33_age5_trial4.png,False,False,https://kisumu-drawings.s3-us-west-1.amazonaws.com/tracings/S33_age5_trial4.png,2.0
,5545,image-button-response,23,,251151,689b8a7a4faa850af7a40460,689bbc88591e57990f44cb23,97,1.0,S99_age8_trial1.png,False,False,https://kisumu-drawings.s3-us-west-1.amazonaws.com/tracings/S99_age8_trial1.png,3.0
,7164,image-button-response,24,,258821,689b8a7a4faa850af7a40460,689bbc88591e57990f44cb23,97,3.0,S9_age4_trial3.png,False,False,https://kisumu-drawings.s3-us-west-1.amazonaws.com/tracings/S9_age4_trial3.png,3.0
,7042,image-button-response,25,,266374,689b8a7a4faa850af7a40460,689bbc88591e57990f44cb23,97,1.0,S55_age6_trial1.png,False,False,https://kisumu-drawings.s3-us-west-1.amazonaws.com/tracings/S55_age6_trial1.png,3.0
,6063,image-button-response,26,,272942,689b8a7a4faa850af7a40460,689bbc88591e57990f44cb23,97,5.0,S120_age9_trial5.png,False,False,https://kisumu-drawings.s3-us-west-1.amazonaws.com/tracings/S120_age9_trial5.png,4.0
,2425,image-button-response,27,,275920,689b8a7a4faa850af7a40460,689bbc88591e57990f44cb23,97,1.0,S79_age7_trial1.png,False,False,https://kisumu-drawings.s3-us-west-1.amazonaws.com/tracings/S79_age7_trial1.png,4.0
,3654,image-button-response,28,,280085,689b8a7a4faa850af7a40460,689bbc88591e57990f44cb23,97,2.0,S34_age5_trial2.png,False,False,https://kisumu-drawings.s3-us-west-1.amazonaws.com/tracings/S34_age5_trial2.png,2.0
,2903,image-button-response,29,,283506,689b8a7a4faa850af7a40460,689bbc88591e57990f44cb23,97,5.0,S57_age6_trial5.png,False,False,https://kisumu-drawings.s3-us-west-1.amazonaws.com/tracings/S57_age6_trial5.png,3.0
,2928,image-button-response,30,,286944,689b8a7a4faa850af7a40460,689bbc88591e57990f44cb23,97,3.0,S117_age9_trial3.png,False,False,https://kisumu-drawings.s3-us-west-1.amazonaws.com/tracings/S117_age9_trial3.png,5.0
,3067,image-button-response,31,,290516,689b8a7a4faa850af7a40460,689bbc88591e57990f44cb23,97,4.0,S7_age4_trial4.png,False,False,https://kisumu-drawings.s3-us-west-1.amazonaws.com/tracings/S7_age4_trial4.png,3.0
,3029,image-button-response,32,,294055,689b8a7a4faa850af7a40460,689bbc88591e57990f44cb23,97,4.0,S54_age6_trial4.png,False,False,https://kisumu-drawings.s3-us-west-1.amazonaws.com/tracings/S54_age6_trial4.png,4.0
,2199,image-button-response,33,,296765,689b8a7a4faa850af7a40460,689bbc88591e57990f44cb23,97,1.0,S35_age5_trial1.png,False,False,https://kisumu-drawings.s3-us-west-1.amazonaws.com/tracings/S35_age5_trial1.png,3.0
,4223,image-button-response,34,,301510,689b8a7a4faa850af7a40460,689bbc88591e57990f44cb23,97,4.0,S57_age6_trial4.png,False,False,https://kisumu-drawings.s3-us-west-1.amazonaws.com/tracings/S57_age6_trial4.png,4.0
,4486,image-button-response,35,,306500,689b8a7a4faa850af7a40460,689bbc88591e57990f44cb23,97,4.0,S36_age5_trial4.png,False,False,https://kisumu-drawings.s3-us-west-1.amazonaws.com/tracings/S36_age5_trial4.png,5.0
,3690,image-button-response,36,,310705,689b8a7a4faa850af7a40460,689bbc88591e57990f44cb23,97,2.0,S73_age7_trial2.png,False,False,https://kisumu-drawings.s3-us-west-1.amazonaws.com/tracings/S73_age7_trial2.png,4.0
,4252,image-button-response,37,,315467,689b8a7a4faa850af7a40460,689bbc88591e57990f44cb23,97,1.0,S4_age4_trial1.png,False,False,https://kisumu-drawings.s3-us-west-1.amazonaws.com/tracings/S4_age4_trial1.png,3.0
,5006,image-button-response,38,,320987,689b8a7a4faa850af7a40460,689bbc88591e57990f44cb23,97,1.0,S59_age6_trial1.png,False,False,https://kisumu-drawings.s3-us-west-1.amazonaws.com/tracings/S59_age6_trial1.png,4.0
,4196,image-button-response,39,,325700,689b8a7a4faa850af7a40460,689bbc88591e57990f44cb23,97,5.0,S80_age7_trial5.png,False,False,https://kisumu-drawings.s3-us-west-1.amazonaws.com/tracings/S80_age7_trial5.png,4.0
,3042,image-button-response,40,,329256,689b8a7a4faa850af7a40460,689bbc88591e57990f44cb23,97,4.0,S9_age4_trial4.png,False,False,https://kisumu-drawings.s3-us-west-1.amazonaws.com/tracings/S9_age4_trial4.png,2.0
,4953,image-button-response,41,,334724,689b8a7a4faa850af7a40460,689bbc88591e57990f44cb23,97,1.0,S5_age4_trial1.png,False,False,https://kisumu-drawings.s3-us-west-1.amazonaws.com/tracings/S5_age4_trial1.png,2.0
,4988,image-button-response,42,,340227,689b8a7a4faa850af7a40460,689bbc88591e57990f44cb23,97,4.0,S95_age8_trial4.png,False,False,https://kisumu-drawings.s3-us-west-1.amazonaws.com/tracings/S95_age8_trial4.png,5.0
,4138,image-button-response,43,,344877,689b8a7a4faa850af7a40460,689bbc88591e57990f44cb23,97,2.0,,True,False,stimuli/catch_trials/catch_trial.png,1.0
,2824,image-button-response,44,,348210,689b8a7a4faa850af7a40460,689bbc88591e57990f44cb23,97,2.0,S3_age4_trial2.png,False,False,https://kisumu-drawings.s3-us-west-1.amazonaws.com/tracings/S3_age4_trial2.png,2.0
,4482,image-button-response,45,,353208,689b8a7a4faa850af7a40460,689bbc88591e57990f44cb23,97,3.0,S98_age8_trial3.png,False,False,https://kisumu-drawings.s3-us-west-1.amazonaws.com/tracings/S98_age8_trial3.png,4.0
,4757,image-button-response,46,,358474,689b8a7a4faa850af7a40460,689bbc88591e57990f44cb23,97,4.0,S78_age7_trial4.png,False,False,https://kisumu-drawings.s3-us-west-1.amazonaws.com/tracings/S78_age7_trial4.png,5.0
,2671,image-button-response,47,,361650,689b8a7a4faa850af7a40460,689bbc88591e57990f44cb23,97,4.0,S120_age9_trial4.png,False,False,https://kisumu-drawings.s3-us-west-1.amazonaws.com/tracings/S120_age9_trial4.png,4.0
,3641,image-button-response,48,,365800,689b8a7a4faa850af7a40460,689bbc88591e57990f44cb23,97,5.0,S8_age4_trial5.png,False,False,https://kisumu-drawings.s3-us-west-1.amazonaws.com/tracings/S8_age4_trial5.png,3.0
,6007,image-button-response,49,,372320,689b8a7a4faa850af7a40460,689bbc88591e57990f44cb23,97,2.0,S115_age9_trial2.png,False,False,https://kisumu-drawings.s3-us-west-1.amazonaws.com/tracings/S115_age9_trial2.png,4.0
,6513,image-button-response,50,,379338,689b8a7a4faa850af7a40460,689bbc88591e57990f44cb23,97,2.0,S94_age8_trial2.png,False,False,https://kisumu-drawings.s3-us-west-1.amazonaws.com/tracings/S94_age8_trial2.png,5.0
,3107,image-button-response,51,,382948,689b8a7a4faa850af7a40460,689bbc88591e57990f44cb23,97,2.0,S2_age4_trial2.png,False,False,https://kisumu-drawings.s3-us-west-1.amazonaws.com/tracings/S2_age4_trial2.png,2.0
,4673,image-button-response,52,,388136,689b8a7a4faa850af7a40460,689bbc88591e57990f44cb23,97,3.0,S77_age7_trial3.png,False,False,https://kisumu-drawings.s3-us-west-1.amazonaws.com/tracings/S77_age7_trial3.png,4.0
,2928,image-button-response,53,,391574,689b8a7a4faa850af7a40460,689bbc88591e57990f44cb23,97,2.0,S37_age5_trial2.png,False,False,https://kisumu-drawings.s3-us-west-1.amazonaws.com/tracings/S37_age5_trial2.png,5.0
,3773,image-button-response,54,,395852,689b8a7a4faa850af7a40460,689bbc88591e57990f44cb23,97,2.0,S59_age6_trial2.png,False,False,https://kisumu-drawings.s3-us-west-1.amazonaws.com/tracings/S59_age6_trial2.png,3.0
,3876,image-button-response,55,,400231,689b8a7a4faa850af7a40460,689bbc88591e57990f44cb23,97,5.0,S34_age5_trial5.png,False,False,https://kisumu-drawings.s3-us-west-1.amazonaws.com/tracings/S34_age5_trial5.png,2.0
,5213,image-button-response,56,,405956,689b8a7a4faa850af7a40460,689bbc88591e57990f44cb23,97,5.0,S93_age8_trial5.png,False,False,https://kisumu-drawings.s3-us-west-1.amazonaws.com/tracings/S93_age8_trial5.png,5.0
,4623,image-button-response,57,,411085,689b8a7a4faa850af7a40460,689bbc88591e57990f44cb23,97,5.0,S7_age4_trial5.png,False,False,https://kisumu-drawings.s3-us-west-1.amazonaws.com/tracings/S7_age4_trial5.png,3.0
,4232,image-button-response,58,,415873,689b8a7a4faa850af7a40460,689bbc88591e57990f44cb23,97,2.0,S116_age9_trial2.png,False,False,https://kisumu-drawings.s3-us-west-1.amazonaws.com/tracings/S116_age9_trial2.png,4.0
,2082,image-button-response,59,,418472,689b8a7a4faa850af7a40460,689bbc88591e57990f44cb23,97,1.0,S73_age7_trial1.png,False,False,https://kisumu-drawings.s3-us-west-1.amazonaws.com/tracings/S73_age7_trial1.png,4.0
,3172,image-button-response,60,,422162,689b8a7a4faa850af7a40460,689bbc88591e57990f44cb23,97,4.0,S75_age7_trial4.png,False,False,https://kisumu-drawings.s3-us-west-1.amazonaws.com/tracings/S75_age7_trial4.png,3.0
,4610,image-button-response,61,,427287,689b8a7a4faa850af7a40460,689bbc88591e57990f44cb23,97,2.0,S95_age8_trial2.png,False,False,https://kisumu-drawings.s3-us-west-1.amazonaws.com/tracings/S95_age8_trial2.png,5.0
