view_history,rt,trial_type,trial_index,plugin_version,time_elapsed,study_id,session_id,participant_id,tracing_type,tracing_id,catch_trial,prep_trial,stimulus,response
"[{""page_index"":0,""viewing_time"":26170},{""page_index"":1,""viewing_time"":15783},{""page_index"":2,""viewing_time"":15766},{""page_index"":3,""viewing_time"":9783},{""page_index"":4,""viewing_time"":19517}]",87020,instructions,0,,87031,689b8a7a4faa850af7a40460,689bd437cb393723769b7a1b,129,,,,,,
,13083,image-button-response,1,,101132,689b8a7a4faa850af7a40460,689bd437cb393723769b7a1b,129,1.0,S93_age8_trial1.png,False,False,https://kisumu-drawings.s3-us-west-1.amazonaws.com/tracings/S93_age8_trial1.png,5.0
,4729,image-button-response,2,,106364,689b8a7a4faa850af7a40460,689bd437cb393723769b7a1b,129,3.0,S113_age9_trial3.png,False,False,https://kisumu-drawings.s3-us-west-1.amazonaws.com/tracings/S113_age9_trial3.png,4.0
,10096,image-button-response,3,,116963,689b8a7a4faa850af7a40460,689bd437cb393723769b7a1b,129,4.0,S33_age5_trial4.png,False,False,https://kisumu-drawings.s3-us-west-1.amazonaws.com/tracings/S33_age5_trial4.png,3.0
,4197,image-button-response,4,,121664,689b8a7a4faa850af7a40460,689bd437cb393723769b7a1b,129,4.0,S8_age4_trial4.png,False,False,https://kisumu-drawings.s3-us-west-1.amazonaws.com/tracings/S8_age4_trial4.png,2.0
,3695,image-button-response,5,,125863,689b8a7a4faa850af7a40460,689bd437cb393723769b7a1b,129,2.0,S56_age6_trial2.png,False,False,https://kisumu-drawings.s3-us-west-1.amazonaws.com/tracings/S56_age6_trial2.png,4.0
,3827,image-button-response,6,,130195,689b8a7a4faa850af7a40460,689bd437cb393723769b7a1b,129,2.0,S4_age4_trial2.png,False,False,https://kisumu-drawings.s3-us-west-1.amazonaws.com/tracings/S4_age4_trial2.png,3.0
,5857,image-button-response,7,,136562,689b8a7a4faa850af7a40460,689bd437cb393723769b7a1b,129,5.0,S80_age7_trial5.png,False,False,https://kisumu-drawings.s3-us-west-1.amazonaws.com/tracings/S80_age7_trial5.png,4.0
,3393,image-button-response,8,,140463,689b8a7a4faa850af7a40460,689bd437cb393723769b7a1b,129,1.0,S73_age7_trial1.png,False,False,https://kisumu-drawings.s3-us-west-1.amazonaws.com/tracings/S73_age7_trial1.png,5.0
,3095,image-button-response,9,,144064,689b8a7a4faa850af7a40460,689bd437cb393723769b7a1b,129,3.0,S54_age6_trial3.png,False,False,https://kisumu-drawings.s3-us-west-1.amazonaws.com/tracings/S54_age6_trial3.png,3.0
,4714,image-button-response,10,,149296,689b8a7a4faa850af7a40460,689bd437cb393723769b7a1b,129,3.0,S75_age7_trial3.png,False,False,https://kisumu-drawings.s3-us-west-1.amazonaws.com/tracings/S75_age7_trial3.png,3.0
,2544,image-button-response,11,,152347,689b8a7a4faa850af7a40460,689bd437cb393723769b7a1b,129,3.0,S120_age9_trial3.png,False,False,https://kisumu-drawings.s3-us-west-1.amazonaws.com/tracings/S120_age9_trial3.png,3.0
,4392,image-button-response,12,,157245,689b8a7a4faa850af7a40460,689bd437cb393723769b7a1b,129,1.0,S58_age6_trial1.png,False,False,https://kisumu-drawings.s3-us-west-1.amazonaws.com/tracings/S58_age6_trial1.png,5.0
,5242,image-button-response,13,,162995,689b8a7a4faa850af7a40460,689bd437cb393723769b7a1b,129,4.0,S116_age9_trial4.png,False,False,https://kisumu-drawings.s3-us-west-1.amazonaws.com/tracings/S116_age9_trial4.png,4.0
,3794,image-button-response,14,,167296,689b8a7a4faa850af7a40460,689bd437cb393723769b7a1b,129,1.0,S40_age5_trial1.png,False,False,https://kisumu-drawings.s3-us-west-1.amazonaws.com/tracings/S40_age5_trial1.png,5.0
,4260,image-button-response,15,,172062,689b8a7a4faa850af7a40460,689bd437cb393723769b7a1b,129,4.0,S73_age7_trial4.png,False,False,https://kisumu-drawings.s3-us-west-1.amazonaws.com/tracings/S73_age7_trial4.png,3.0
,4111,image-button-response,16,,176678,689b8a7a4faa850af7a40460,689bd437cb393723769b7a1b,129,5.0,S35_age5_trial5.png,False,False,https://kisumu-drawings.s3-us-west-1.amazonaws.com/tracings/S35_age5_trial5.png,3.0
,5177,image-button-response,17,,182362,689b8a7a4faa850af7a40460,689bd437cb393723769b7a1b,129,1.0,S78_age7_trial1.png,False,False,https://kisumu-drawings.s3-us-west-1.amazonaws.com/tracings/S78_age7_trial1.png,4.0
,7413,image-button-response,18,,190282,689b8a7a4faa850af7a40460,689bd437cb393723769b7a1b,129,5.0,S53_age6_trial5.png,False,False,https://kisumu-drawings.s3-us-west-1.amazonaws.com/tracings/S53_age6_trial5.png,3.0
,9493,image-button-response,19,,200279,689b8a7a4faa850af7a40460,689bd437cb393723769b7a1b,129,2.0,S95_age8_trial2.png,False,False,https://kisumu-drawings.s3-us-west-1.amazonaws.com/tracings/S95_age8_trial2.png,4.0
,3295,image-button-response,20,,204078,689b8a7a4faa850af7a40460,689bd437cb393723769b7a1b,129,1.0,S118_age9_trial1.png,False,False,https://kisumu-drawings.s3-us-west-1.amazonaws.com/tracings/S118_age9_trial1.png,4.0
,5162,image-button-response,21,,209746,689b8a7a4faa850af7a40460,689bd437cb393723769b7a1b,129,2.0,S77_age7_trial2.png,False,False,https://kisumu-drawings.s3-us-west-1.amazonaws.com/tracings/S77_age7_trial2.png,4.0
,2146,image-button-response,22,,212395,689b8a7a4faa850af7a40460,689bd437cb393723769b7a1b,129,3.0,S77_age7_trial3.png,False,False,https://kisumu-drawings.s3-us-west-1.amazonaws.com/tracings/S77_age7_trial3.png,4.0
,7328,image-button-response,23,,220229,689b8a7a4faa850af7a40460,689bd437cb393723769b7a1b,129,4.0,S96_age8_trial4.png,False,False,https://kisumu-drawings.s3-us-west-1.amazonaws.com/tracings/S96_age8_trial4.png,3.0
,4195,image-button-response,24,,224927,689b8a7a4faa850af7a40460,689bd437cb393723769b7a1b,129,3.0,S39_age5_trial3.png,False,False,https://kisumu-drawings.s3-us-west-1.amazonaws.com/tracings/S39_age5_trial3.png,2.0
,3364,image-button-response,25,,228795,689b8a7a4faa850af7a40460,689bd437cb393723769b7a1b,129,2.0,S99_age8_trial2.png,False,False,https://kisumu-drawings.s3-us-west-1.amazonaws.com/tracings/S99_age8_trial2.png,3.0
,4009,image-button-response,26,,233312,689b8a7a4faa850af7a40460,689bd437cb393723769b7a1b,129,2.0,S59_age6_trial2.png,False,False,https://kisumu-drawings.s3-us-west-1.amazonaws.com/tracings/S59_age6_trial2.png,3.0
,4327,image-button-response,27,,238144,689b8a7a4faa850af7a40460,689bd437cb393723769b7a1b,129,1.0,S2_age4_trial1.png,False,False,https://kisumu-drawings.s3-us-west-1.amazonaws.com/tracings/S2_age4_trial1.png,4.0
,6790,image-button-response,28,,245443,689b8a7a4faa850af7a40460,689bd437cb393723769b7a1b,129,5.0,S58_age6_trial5.png,False,False,https://kisumu-drawings.s3-us-west-1.amazonaws.com/tracings/S58_age6_trial5.png,5.0
,4161,image-button-response,29,,250112,689b8a7a4faa850af7a40460,689bd437cb393723769b7a1b,129,3.0,S35_age5_trial3.png,False,False,https://kisumu-drawings.s3-us-west-1.amazonaws.com/tracings/S35_age5_trial3.png,2.0
,6745,image-button-response,30,,257361,689b8a7a4faa850af7a40460,689bd437cb393723769b7a1b,129,2.0,S118_age9_trial2.png,False,False,https://kisumu-drawings.s3-us-west-1.amazonaws.com/tracings/S118_age9_trial2.png,4.0
,3877,image-button-response,31,,261743,689b8a7a4faa850af7a40460,689bd437cb393723769b7a1b,129,3.0,S8_age4_trial3.png,False,False,https://kisumu-drawings.s3-us-west-1.amazonaws.com/tracings/S8_age4_trial3.png,2.0
,5143,image-button-response,32,,267394,689b8a7a4faa850af7a40460,689bd437cb393723769b7a1b,129,4.0,S94_age8_trial4.png,False,False,https://kisumu-drawings.s3-us-west-1.amazonaws.com/tracings/S94_age8_trial4.png,4.0
,4727,image-button-response,33,,272626,689b8a7a4faa850af7a40460,689bd437cb393723769b7a1b,129,4.0,S2_age4_trial4.png,False,False,https://kisumu-drawings.s3-us-west-1.amazonaws.com/tracings/S2_age4_trial4.png,2.0
,6266,image-button-response,34,,279394,689b8a7a4faa850af7a40460,689bd437cb393723769b7a1b,129,2.0,S116_age9_trial2.png,False,False,https://kisumu-drawings.s3-us-west-1.amazonaws.com/tracings/S116_age9_trial2.png,4.0
,5176,image-button-response,35,,285077,689b8a7a4faa850af7a40460,689bd437cb393723769b7a1b,129,1.0,S9_age4_trial1.png,False,False,https://kisumu-drawings.s3-us-west-1.amazonaws.com/tracings/S9_age4_trial1.png,2.0
,4973,image-button-response,36,,290556,689b8a7a4faa850af7a40460,689bd437cb393723769b7a1b,129,5.0,S6_age4_trial5.png,False,False,https://kisumu-drawings.s3-us-west-1.amazonaws.com/tracings/S6_age4_trial5.png,3.0
,4144,image-button-response,37,,295210,689b8a7a4faa850af7a40460,689bd437cb393723769b7a1b,129,2.0,S40_age5_trial2.png,False,False,https://kisumu-drawings.s3-us-west-1.amazonaws.com/tracings/S40_age5_trial2.png,3.0
,2543,image-button-response,38,,298260,689b8a7a4faa850af7a40460,689bd437cb393723769b7a1b,129,2.0,,True,False,stimuli/catch_trials/catch_trial.png,1.0
,5113,image-button-response,39,,303878,689b8a7a4faa850af7a40460,689bd437cb393723769b7a1b,129,3.0,S60_age6_trial3.png,False,False,https://kisumu-drawings.s3-us-west-1.amazonaws.com/tracings/S60_age6_trial3.png,3.0
,3660,image-button-response,40,,308041,689b8a7a4faa850af7a40460,689bd437cb393723769b7a1b,129,5.0,S75_age7_trial5.png,False,False,https://kisumu-drawings.s3-us-west-1.amazonaws.com/tracings/S75_age7_trial5.png,3.0
,3794,image-button-response,41,,312344,689b8a7a4faa850af7a40460,689bd437cb393723769b7a1b,129,2.0,S78_age7_trial2.png,False,False,https://kisumu-drawings.s3-us-west-1.amazonaws.com/tracings/S78_age7_trial2.png,4.0
,4461,image-button-response,42,,317309,689b8a7a4faa850af7a40460,689bd437cb393723769b7a1b,129,1.0,S115_age9_trial1.png,False,False,https://kisumu-drawings.s3-us-west-1.amazonaws.com/tracings/S115_age9_trial1.png,4.0
,7718,image-button-response,43,,325533,689b8a7a4faa850af7a40460,689bd437cb393723769b7a1b,129,5.0,S38_age5_trial5.png,False,False,https://kisumu-drawings.s3-us-west-1.amazonaws.com/tracings/S38_age5_trial5.png,3.0
,4515,image-button-response,44,,330564,689b8a7a4faa850af7a40460,689bd437cb393723769b7a1b,129,1.0,S98_age8_trial1.png,False,False,https://kisumu-drawings.s3-us-west-1.amazonaws.com/tracings/S98_age8_trial1.png,5.0
,4359,image-button-response,45,,335425,689b8a7a4faa850af7a40460,689bd437cb393723769b7a1b,129,3.0,S98_age8_trial3.png,False,False,https://kisumu-drawings.s3-us-west-1.amazonaws.com/tracings/S98_age8_trial3.png,4.0
,3795,image-button-response,46,,339727,689b8a7a4faa850af7a40460,689bd437cb393723769b7a1b,129,5.0,S97_age8_trial5.png,False,False,https://kisumu-drawings.s3-us-west-1.amazonaws.com/tracings/S97_age8_trial5.png,3.0
,3379,image-button-response,47,,343611,689b8a7a4faa850af7a40460,689bd437cb393723769b7a1b,129,3.0,S4_age4_trial3.png,False,False,https://kisumu-drawings.s3-us-west-1.amazonaws.com/tracings/S4_age4_trial3.png,2.0
,4227,image-button-response,48,,348342,689b8a7a4faa850af7a40460,689bd437cb393723769b7a1b,129,4.0,S120_age9_trial4.png,False,False,https://kisumu-drawings.s3-us-west-1.amazonaws.com/tracings/S120_age9_trial4.png,3.0
,4211,image-button-response,49,,353059,689b8a7a4faa850af7a40460,689bd437cb393723769b7a1b,129,5.0,S116_age9_trial5.png,False,False,https://kisumu-drawings.s3-us-west-1.amazonaws.com/tracings/S116_age9_trial5.png,4.0
,4344,image-button-response,50,,357909,689b8a7a4faa850af7a40460,689bd437cb393723769b7a1b,129,5.0,S115_age9_trial5.png,False,False,https://kisumu-drawings.s3-us-west-1.amazonaws.com/tracings/S115_age9_trial5.png,4.0
,3928,image-button-response,51,,362342,689b8a7a4faa850af7a40460,689bd437cb393723769b7a1b,129,5.0,S7_age4_trial5.png,False,False,https://kisumu-drawings.s3-us-west-1.amazonaws.com/tracings/S7_age4_trial5.png,3.0
,3481,image-button-response,52,,366326,689b8a7a4faa850af7a40460,689bd437cb393723769b7a1b,129,1.0,S56_age6_trial1.png,False,False,https://kisumu-drawings.s3-us-west-1.amazonaws.com/tracings/S56_age6_trial1.png,4.0
,4227,image-button-response,53,,371059,689b8a7a4faa850af7a40460,689bd437cb393723769b7a1b,129,2.0,S2_age4_trial2.png,False,False,https://kisumu-drawings.s3-us-west-1.amazonaws.com/tracings/S2_age4_trial2.png,2.0
,4129,image-button-response,54,,375692,689b8a7a4faa850af7a40460,689bd437cb393723769b7a1b,129,4.0,S53_age6_trial4.png,False,False,https://kisumu-drawings.s3-us-west-1.amazonaws.com/tracings/S53_age6_trial4.png,3.0
,7712,image-button-response,55,,383908,689b8a7a4faa850af7a40460,689bd437cb393723769b7a1b,129,3.0,S94_age8_trial3.png,False,False,https://kisumu-drawings.s3-us-west-1.amazonaws.com/tracings/S94_age8_trial3.png,5.0
,5827,image-button-response,56,,390241,689b8a7a4faa850af7a40460,689bd437cb393723769b7a1b,129,4.0,S56_age6_trial4.png,False,False,https://kisumu-drawings.s3-us-west-1.amazonaws.com/tracings/S56_age6_trial4.png,4.0
,4559,image-button-response,57,,395307,689b8a7a4faa850af7a40460,689bd437cb393723769b7a1b,129,4.0,S79_age7_trial4.png,False,False,https://kisumu-drawings.s3-us-west-1.amazonaws.com/tracings/S79_age7_trial4.png,3.0
,2694,image-button-response,58,,398509,689b8a7a4faa850af7a40460,689bd437cb393723769b7a1b,129,2.0,S33_age5_trial2.png,False,False,https://kisumu-drawings.s3-us-west-1.amazonaws.com/tracings/S33_age5_trial2.png,2.0
,2462,image-button-response,59,,401474,689b8a7a4faa850af7a40460,689bd437cb393723769b7a1b,129,1.0,S33_age5_trial1.png,False,False,https://kisumu-drawings.s3-us-west-1.amazonaws.com/tracings/S33_age5_trial1.png,2.0
,6976,image-button-response,60,,408959,689b8a7a4faa850af7a40460,689bd437cb393723769b7a1b,129,4.0,S38_age5_trial4.png,False,False,https://kisumu-drawings.s3-us-west-1.amazonaws.com/tracings/S38_age5_trial4.png,2.0
,3264,image-button-response,61,,412726,689b8a7a4faa850af7a40460,689bd437cb393723769b7a1b,129,5.0,S95_age8_trial5.png,False,False,https://kisumu-drawings.s3-us-west-1.amazonaws.com/tracings/S95_age8_trial5.png,4.0
