view_history,rt,trial_type,trial_index,plugin_version,time_elapsed,study_id,session_id,participant_id,tracing_type,tracing_id,catch_trial,prep_trial,stimulus,response
"[{""page_index"":0,""viewing_time"":13723},{""page_index"":1,""viewing_time"":21051},{""page_index"":2,""viewing_time"":9852},{""page_index"":3,""viewing_time"":7984},{""page_index"":4,""viewing_time"":18338}]",70949,instructions,0,,70957,689b8a7a4faa850af7a40460,689bb3e54a8950ba1a69ff98,96,,,,,,
,2790,image-button-response,1,,74757,689b8a7a4faa850af7a40460,689bb3e54a8950ba1a69ff98,96,2.0,,True,False,stimuli/catch_trials/catch_trial.png,1.0
,5944,image-button-response,2,,81205,689b8a7a4faa850af7a40460,689bb3e54a8950ba1a69ff98,96,4.0,S9_age4_trial4.png,False,False,https://kisumu-drawings.s3-us-west-1.amazonaws.com/tracings/S9_age4_trial4.png,4.0
,5915,image-button-response,3,,87636,689b8a7a4faa850af7a40460,689bb3e54a8950ba1a69ff98,96,3.0,S118_age9_trial3.png,False,False,https://kisumu-drawings.s3-us-west-1.amazonaws.com/tracings/S118_age9_trial3.png,5.0
,2269,image-button-response,4,,90410,689b8a7a4faa850af7a40460,689bb3e54a8950ba1a69ff98,96,4.0,S58_age6_trial4.png,False,False,https://kisumu-drawings.s3-us-west-1.amazonaws.com/tracings/S58_age6_trial4.png,5.0
,2180,image-button-response,5,,93094,689b8a7a4faa850af7a40460,689bb3e54a8950ba1a69ff98,96,3.0,S93_age8_trial3.png,False,False,https://kisumu-drawings.s3-us-west-1.amazonaws.com/tracings/S93_age8_trial3.png,5.0
,3107,image-button-response,6,,96716,689b8a7a4faa850af7a40460,689bb3e54a8950ba1a69ff98,96,3.0,S36_age5_trial3.png,False,False,https://kisumu-drawings.s3-us-west-1.amazonaws.com/tracings/S36_age5_trial3.png,5.0
,2578,image-button-response,7,,99804,689b8a7a4faa850af7a40460,689bb3e54a8950ba1a69ff98,96,5.0,S40_age5_trial5.png,False,False,https://kisumu-drawings.s3-us-west-1.amazonaws.com/tracings/S40_age5_trial5.png,5.0
,2935,image-button-response,8,,103246,689b8a7a4faa850af7a40460,689bb3e54a8950ba1a69ff98,96,2.0,S6_age4_trial2.png,False,False,https://kisumu-drawings.s3-us-west-1.amazonaws.com/tracings/S6_age4_trial2.png,5.0
,10178,image-button-response,9,,113937,689b8a7a4faa850af7a40460,689bb3e54a8950ba1a69ff98,96,1.0,S54_age6_trial1.png,False,False,https://kisumu-drawings.s3-us-west-1.amazonaws.com/tracings/S54_age6_trial1.png,4.0
,2060,image-button-response,10,,116500,689b8a7a4faa850af7a40460,689bb3e54a8950ba1a69ff98,96,2.0,S60_age6_trial2.png,False,False,https://kisumu-drawings.s3-us-west-1.amazonaws.com/tracings/S60_age6_trial2.png,5.0
,1376,image-button-response,11,,118382,689b8a7a4faa850af7a40460,689bb3e54a8950ba1a69ff98,96,5.0,S58_age6_trial5.png,False,False,https://kisumu-drawings.s3-us-west-1.amazonaws.com/tracings/S58_age6_trial5.png,5.0
,4307,image-button-response,12,,123202,689b8a7a4faa850af7a40460,689bb3e54a8950ba1a69ff98,96,4.0,S56_age6_trial4.png,False,False,https://kisumu-drawings.s3-us-west-1.amazonaws.com/tracings/S56_age6_trial4.png,5.0
,8794,image-button-response,13,,132506,689b8a7a4faa850af7a40460,689bb3e54a8950ba1a69ff98,96,5.0,S9_age4_trial5.png,False,False,https://kisumu-drawings.s3-us-west-1.amazonaws.com/tracings/S9_age4_trial5.png,2.0
,5610,image-button-response,14,,138624,689b8a7a4faa850af7a40460,689bb3e54a8950ba1a69ff98,96,1.0,S116_age9_trial1.png,False,False,https://kisumu-drawings.s3-us-west-1.amazonaws.com/tracings/S116_age9_trial1.png,4.0
,7413,image-button-response,15,,146548,689b8a7a4faa850af7a40460,689bb3e54a8950ba1a69ff98,96,4.0,S76_age7_trial4.png,False,False,https://kisumu-drawings.s3-us-west-1.amazonaws.com/tracings/S76_age7_trial4.png,4.0
,4075,image-button-response,16,,151130,689b8a7a4faa850af7a40460,689bb3e54a8950ba1a69ff98,96,2.0,S59_age6_trial2.png,False,False,https://kisumu-drawings.s3-us-west-1.amazonaws.com/tracings/S59_age6_trial2.png,4.0
,10696,image-button-response,17,,162330,689b8a7a4faa850af7a40460,689bb3e54a8950ba1a69ff98,96,3.0,S57_age6_trial3.png,False,False,https://kisumu-drawings.s3-us-west-1.amazonaws.com/tracings/S57_age6_trial3.png,4.0
,2635,image-button-response,18,,165470,689b8a7a4faa850af7a40460,689bb3e54a8950ba1a69ff98,96,1.0,S40_age5_trial1.png,False,False,https://kisumu-drawings.s3-us-west-1.amazonaws.com/tracings/S40_age5_trial1.png,5.0
,2195,image-button-response,19,,168178,689b8a7a4faa850af7a40460,689bb3e54a8950ba1a69ff98,96,4.0,S93_age8_trial4.png,False,False,https://kisumu-drawings.s3-us-west-1.amazonaws.com/tracings/S93_age8_trial4.png,5.0
,2715,image-button-response,20,,171408,689b8a7a4faa850af7a40460,689bb3e54a8950ba1a69ff98,96,1.0,S120_age9_trial1.png,False,False,https://kisumu-drawings.s3-us-west-1.amazonaws.com/tracings/S120_age9_trial1.png,4.0
,6856,image-button-response,21,,178770,689b8a7a4faa850af7a40460,689bb3e54a8950ba1a69ff98,96,3.0,S92_age8_trial3.png,False,False,https://kisumu-drawings.s3-us-west-1.amazonaws.com/tracings/S92_age8_trial3.png,4.0
,3929,image-button-response,22,,183202,689b8a7a4faa850af7a40460,689bb3e54a8950ba1a69ff98,96,5.0,S118_age9_trial5.png,False,False,https://kisumu-drawings.s3-us-west-1.amazonaws.com/tracings/S118_age9_trial5.png,4.0
,3217,image-button-response,23,,186928,689b8a7a4faa850af7a40460,689bb3e54a8950ba1a69ff98,96,4.0,S80_age7_trial4.png,False,False,https://kisumu-drawings.s3-us-west-1.amazonaws.com/tracings/S80_age7_trial4.png,4.0
,4791,image-button-response,24,,192236,689b8a7a4faa850af7a40460,689bb3e54a8950ba1a69ff98,96,3.0,S9_age4_trial3.png,False,False,https://kisumu-drawings.s3-us-west-1.amazonaws.com/tracings/S9_age4_trial3.png,4.0
,3335,image-button-response,25,,196082,689b8a7a4faa850af7a40460,689bb3e54a8950ba1a69ff98,96,3.0,S7_age4_trial3.png,False,False,https://kisumu-drawings.s3-us-west-1.amazonaws.com/tracings/S7_age4_trial3.png,4.0
,2900,image-button-response,26,,199486,689b8a7a4faa850af7a40460,689bb3e54a8950ba1a69ff98,96,5.0,S79_age7_trial5.png,False,False,https://kisumu-drawings.s3-us-west-1.amazonaws.com/tracings/S79_age7_trial5.png,5.0
,2677,image-button-response,27,,202672,689b8a7a4faa850af7a40460,689bb3e54a8950ba1a69ff98,96,3.0,S114_age9_trial3.png,False,False,https://kisumu-drawings.s3-us-west-1.amazonaws.com/tracings/S114_age9_trial3.png,5.0
,3016,image-button-response,28,,206202,689b8a7a4faa850af7a40460,689bb3e54a8950ba1a69ff98,96,2.0,S38_age5_trial2.png,False,False,https://kisumu-drawings.s3-us-west-1.amazonaws.com/tracings/S38_age5_trial2.png,4.0
,2368,image-button-response,29,,209074,689b8a7a4faa850af7a40460,689bb3e54a8950ba1a69ff98,96,4.0,S115_age9_trial4.png,False,False,https://kisumu-drawings.s3-us-west-1.amazonaws.com/tracings/S115_age9_trial4.png,5.0
,1580,image-button-response,30,,211166,689b8a7a4faa850af7a40460,689bb3e54a8950ba1a69ff98,96,3.0,S60_age6_trial3.png,False,False,https://kisumu-drawings.s3-us-west-1.amazonaws.com/tracings/S60_age6_trial3.png,5.0
,1431,image-button-response,31,,213100,689b8a7a4faa850af7a40460,689bb3e54a8950ba1a69ff98,96,1.0,S73_age7_trial1.png,False,False,https://kisumu-drawings.s3-us-west-1.amazonaws.com/tracings/S73_age7_trial1.png,5.0
,3840,image-button-response,32,,217447,689b8a7a4faa850af7a40460,689bb3e54a8950ba1a69ff98,96,5.0,S3_age4_trial5.png,False,False,https://kisumu-drawings.s3-us-west-1.amazonaws.com/tracings/S3_age4_trial5.png,2.0
,2889,image-button-response,33,,220844,689b8a7a4faa850af7a40460,689bb3e54a8950ba1a69ff98,96,3.0,S80_age7_trial3.png,False,False,https://kisumu-drawings.s3-us-west-1.amazonaws.com/tracings/S80_age7_trial3.png,4.0
,2264,image-button-response,34,,223626,689b8a7a4faa850af7a40460,689bb3e54a8950ba1a69ff98,96,2.0,S36_age5_trial2.png,False,False,https://kisumu-drawings.s3-us-west-1.amazonaws.com/tracings/S36_age5_trial2.png,5.0
,1358,image-button-response,35,,225500,689b8a7a4faa850af7a40460,689bb3e54a8950ba1a69ff98,96,1.0,S98_age8_trial1.png,False,False,https://kisumu-drawings.s3-us-west-1.amazonaws.com/tracings/S98_age8_trial1.png,5.0
,4773,image-button-response,36,,230778,689b8a7a4faa850af7a40460,689bb3e54a8950ba1a69ff98,96,5.0,S76_age7_trial5.png,False,False,https://kisumu-drawings.s3-us-west-1.amazonaws.com/tracings/S76_age7_trial5.png,4.0
,1707,image-button-response,37,,232998,689b8a7a4faa850af7a40460,689bb3e54a8950ba1a69ff98,96,2.0,S96_age8_trial2.png,False,False,https://kisumu-drawings.s3-us-west-1.amazonaws.com/tracings/S96_age8_trial2.png,5.0
,1475,image-button-response,38,,234984,689b8a7a4faa850af7a40460,689bb3e54a8950ba1a69ff98,96,1.0,S57_age6_trial1.png,False,False,https://kisumu-drawings.s3-us-west-1.amazonaws.com/tracings/S57_age6_trial1.png,5.0
,1846,image-button-response,39,,237346,689b8a7a4faa850af7a40460,689bb3e54a8950ba1a69ff98,96,1.0,S80_age7_trial1.png,False,False,https://kisumu-drawings.s3-us-west-1.amazonaws.com/tracings/S80_age7_trial1.png,4.0
,7546,image-button-response,40,,245404,689b8a7a4faa850af7a40460,689bb3e54a8950ba1a69ff98,96,5.0,S97_age8_trial5.png,False,False,https://kisumu-drawings.s3-us-west-1.amazonaws.com/tracings/S97_age8_trial5.png,2.0
,3014,image-button-response,41,,248928,689b8a7a4faa850af7a40460,689bb3e54a8950ba1a69ff98,96,2.0,S76_age7_trial2.png,False,False,https://kisumu-drawings.s3-us-west-1.amazonaws.com/tracings/S76_age7_trial2.png,4.0
,3823,image-button-response,42,,253253,689b8a7a4faa850af7a40460,689bb3e54a8950ba1a69ff98,96,4.0,S7_age4_trial4.png,False,False,https://kisumu-drawings.s3-us-west-1.amazonaws.com/tracings/S7_age4_trial4.png,4.0
,5751,image-button-response,43,,259522,689b8a7a4faa850af7a40460,689bb3e54a8950ba1a69ff98,96,5.0,S54_age6_trial5.png,False,False,https://kisumu-drawings.s3-us-west-1.amazonaws.com/tracings/S54_age6_trial5.png,4.0
,4973,image-button-response,44,,265009,689b8a7a4faa850af7a40460,689bb3e54a8950ba1a69ff98,96,5.0,S38_age5_trial5.png,False,False,https://kisumu-drawings.s3-us-west-1.amazonaws.com/tracings/S38_age5_trial5.png,4.0
,2219,image-button-response,45,,267731,689b8a7a4faa850af7a40460,689bb3e54a8950ba1a69ff98,96,5.0,S98_age8_trial5.png,False,False,https://kisumu-drawings.s3-us-west-1.amazonaws.com/tracings/S98_age8_trial5.png,4.0
,5081,image-button-response,46,,273323,689b8a7a4faa850af7a40460,689bb3e54a8950ba1a69ff98,96,3.0,S33_age5_trial3.png,False,False,https://kisumu-drawings.s3-us-west-1.amazonaws.com/tracings/S33_age5_trial3.png,2.0
,3526,image-button-response,47,,277357,689b8a7a4faa850af7a40460,689bb3e54a8950ba1a69ff98,96,2.0,S7_age4_trial2.png,False,False,https://kisumu-drawings.s3-us-west-1.amazonaws.com/tracings/S7_age4_trial2.png,4.0
,2619,image-button-response,48,,280483,689b8a7a4faa850af7a40460,689bb3e54a8950ba1a69ff98,96,3.0,S76_age7_trial3.png,False,False,https://kisumu-drawings.s3-us-west-1.amazonaws.com/tracings/S76_age7_trial3.png,4.0
,3182,image-button-response,49,,284171,689b8a7a4faa850af7a40460,689bb3e54a8950ba1a69ff98,96,5.0,S115_age9_trial5.png,False,False,https://kisumu-drawings.s3-us-west-1.amazonaws.com/tracings/S115_age9_trial5.png,5.0
,5315,image-button-response,50,,289989,689b8a7a4faa850af7a40460,689bb3e54a8950ba1a69ff98,96,1.0,S9_age4_trial1.png,False,False,https://kisumu-drawings.s3-us-west-1.amazonaws.com/tracings/S9_age4_trial1.png,4.0
,2197,image-button-response,51,,292703,689b8a7a4faa850af7a40460,689bb3e54a8950ba1a69ff98,96,2.0,S98_age8_trial2.png,False,False,https://kisumu-drawings.s3-us-west-1.amazonaws.com/tracings/S98_age8_trial2.png,5.0
,5304,image-button-response,52,,298513,689b8a7a4faa850af7a40460,689bb3e54a8950ba1a69ff98,96,4.0,S116_age9_trial4.png,False,False,https://kisumu-drawings.s3-us-west-1.amazonaws.com/tracings/S116_age9_trial4.png,4.0
,7343,image-button-response,53,,306371,689b8a7a4faa850af7a40460,689bb3e54a8950ba1a69ff98,96,1.0,S8_age4_trial1.png,False,False,https://kisumu-drawings.s3-us-west-1.amazonaws.com/tracings/S8_age4_trial1.png,4.0
,2146,image-button-response,54,,309031,689b8a7a4faa850af7a40460,689bb3e54a8950ba1a69ff98,96,2.0,S117_age9_trial2.png,False,False,https://kisumu-drawings.s3-us-west-1.amazonaws.com/tracings/S117_age9_trial2.png,5.0
,3382,image-button-response,55,,312929,689b8a7a4faa850af7a40460,689bb3e54a8950ba1a69ff98,96,4.0,S97_age8_trial4.png,False,False,https://kisumu-drawings.s3-us-west-1.amazonaws.com/tracings/S97_age8_trial4.png,2.0
,3048,image-button-response,56,,316483,689b8a7a4faa850af7a40460,689bb3e54a8950ba1a69ff98,96,1.0,S33_age5_trial1.png,False,False,https://kisumu-drawings.s3-us-west-1.amazonaws.com/tracings/S33_age5_trial1.png,2.0
,3018,image-button-response,57,,320015,689b8a7a4faa850af7a40460,689bb3e54a8950ba1a69ff98,96,2.0,S120_age9_trial2.png,False,False,https://kisumu-drawings.s3-us-west-1.amazonaws.com/tracings/S120_age9_trial2.png,5.0
,2854,image-button-response,58,,323373,689b8a7a4faa850af7a40460,689bb3e54a8950ba1a69ff98,96,4.0,S36_age5_trial4.png,False,False,https://kisumu-drawings.s3-us-west-1.amazonaws.com/tracings/S36_age5_trial4.png,4.0
,2050,image-button-response,59,,325930,689b8a7a4faa850af7a40460,689bb3e54a8950ba1a69ff98,96,1.0,S96_age8_trial1.png,False,False,https://kisumu-drawings.s3-us-west-1.amazonaws.com/tracings/S96_age8_trial1.png,5.0
,2429,image-button-response,60,,328869,689b8a7a4faa850af7a40460,689bb3e54a8950ba1a69ff98,96,4.0,S37_age5_trial4.png,False,False,https://kisumu-drawings.s3-us-west-1.amazonaws.com/tracings/S37_age5_trial4.png,4.0
,2546,image-button-response,61,,331927,689b8a7a4faa850af7a40460,689bb3e54a8950ba1a69ff98,96,2.0,S80_age7_trial2.png,False,False,https://kisumu-drawings.s3-us-west-1.amazonaws.com/tracings/S80_age7_trial2.png,5.0
