"view_history","rt","trial_type","trial_index","plugin_version","time_elapsed","study_id","session_id","participant_id","catch_trial","prep_trial","sketcher_category","stimulus","response","response_category","sketch_id"
"[{""page_index"":0,""viewing_time"":330090},{""page_index"":1,""viewing_time"":5337},{""page_index"":2,""viewing_time"":5208},{""page_index"":3,""viewing_time"":27568}]","368202","instructions","0","null","368213","686d62ec803998618dffb3d1","686d8b19c61d666d2b5fe45a","5d829da97f572900184a7cb1","","","","","","",""
"","3033","image-button-response","1","null","372254","686d62ec803998618dffb3d1","686d8b19c61d666d2b5fe45a","5d829da97f572900184a7cb1","false","true","car","stimuli/prep_trials/1_car_prep.png","3","Car",""
"","2232","image-button-response","2","null","374998","686d62ec803998618dffb3d1","686d8b19c61d666d2b5fe45a","5d829da97f572900184a7cb1","false","true","cat","stimuli/prep_trials/0_cat_prep.jpg","4","Cat",""
"","4841","image-button-response","3","null","380342","686d62ec803998618dffb3d1","686d8b19c61d666d2b5fe45a","5d829da97f572900184a7cb1","false","false","Bicycle","https://kisumu-drawings.s3-us-west-1.amazonaws.com/113-011.png","1","Bicycle","113-011.png"
"","11423","image-button-response","4","null","392270","686d62ec803998618dffb3d1","686d8b19c61d666d2b5fe45a","5d829da97f572900184a7cb1","false","false","Watch","https://kisumu-drawings.s3-us-west-1.amazonaws.com/112-012.png","2","Bird","112-012.png"
"","3480","image-button-response","5","null","396254","686d62ec803998618dffb3d1","686d8b19c61d666d2b5fe45a","5d829da97f572900184a7cb1","false","false","Bird","https://kisumu-drawings.s3-us-west-1.amazonaws.com/17-007.png","2","Bird","17-007.png"
"","7951","image-button-response","6","null","404710","686d62ec803998618dffb3d1","686d8b19c61d666d2b5fe45a","5d829da97f572900184a7cb1","false","false","Bicycle","https://kisumu-drawings.s3-us-west-1.amazonaws.com/73-007.png","0","Airplane","73-007.png"
"","3932","image-button-response","7","null","409152","686d62ec803998618dffb3d1","686d8b19c61d666d2b5fe45a","5d829da97f572900184a7cb1","false","false","Bird","https://kisumu-drawings.s3-us-west-1.amazonaws.com/81-007.png","2","Bird","81-007.png"
"","5353","image-button-response","8","null","415023","686d62ec803998618dffb3d1","686d8b19c61d666d2b5fe45a","5d829da97f572900184a7cb1","false","false","Tree","https://kisumu-drawings.s3-us-west-1.amazonaws.com/44-005.png","11","Watch","44-005.png"
"","3089","image-button-response","9","null","418615","686d62ec803998618dffb3d1","686d8b19c61d666d2b5fe45a","5d829da97f572900184a7cb1","false","false","Bicycle","https://kisumu-drawings.s3-us-west-1.amazonaws.com/17-006.png","1","Bicycle","17-006.png"
"","3241","image-button-response","10","null","422367","686d62ec803998618dffb3d1","686d8b19c61d666d2b5fe45a","5d829da97f572900184a7cb1","false","false","Chair","https://kisumu-drawings.s3-us-west-1.amazonaws.com/87-007.png","5","Chair","87-007.png"
"","4226","image-button-response","11","null","427111","686d62ec803998618dffb3d1","686d8b19c61d666d2b5fe45a","5d829da97f572900184a7cb1","false","false","House","https://kisumu-drawings.s3-us-west-1.amazonaws.com/39-005.png","7","Hat","39-005.png"
"","2608","image-button-response","12","null","430223","686d62ec803998618dffb3d1","686d8b19c61d666d2b5fe45a","5d829da97f572900184a7cb1","false","false","Cat","https://kisumu-drawings.s3-us-west-1.amazonaws.com/17-013.png","4","Cat","17-013.png"
"","5846","image-button-response","13","null","436575","686d62ec803998618dffb3d1","686d8b19c61d666d2b5fe45a","5d829da97f572900184a7cb1","false","false","House","https://kisumu-drawings.s3-us-west-1.amazonaws.com/1-009.png","9","Rabbit","1-009.png"
"","5484","image-button-response","14","null","442576","686d62ec803998618dffb3d1","686d8b19c61d666d2b5fe45a","5d829da97f572900184a7cb1","false","false","Cat","https://kisumu-drawings.s3-us-west-1.amazonaws.com/47-008.png","2","Bird","47-008.png"
"","2472","image-button-response","15","null","445559","686d62ec803998618dffb3d1","686d8b19c61d666d2b5fe45a","5d829da97f572900184a7cb1","false","false","Airplane","https://kisumu-drawings.s3-us-west-1.amazonaws.com/87-005.png","0","Airplane","87-005.png"
"","1951","image-button-response","16","null","448015","686d62ec803998618dffb3d1","686d8b19c61d666d2b5fe45a","5d829da97f572900184a7cb1","false","false","House","https://kisumu-drawings.s3-us-west-1.amazonaws.com/42-013.png","8","House","42-013.png"
"","2665","image-button-response","17","null","451195","686d62ec803998618dffb3d1","686d8b19c61d666d2b5fe45a","5d829da97f572900184a7cb1","false","false","Tree","https://kisumu-drawings.s3-us-west-1.amazonaws.com/19-008.png","10","Tree","19-008.png"
"","2375","image-button-response","18","null","454072","686d62ec803998618dffb3d1","686d8b19c61d666d2b5fe45a","5d829da97f572900184a7cb1","false","false","Cat","https://kisumu-drawings.s3-us-west-1.amazonaws.com/100-011.png","4","Cat","100-011.png"
"","5360","image-button-response","19","null","459937","686d62ec803998618dffb3d1","686d8b19c61d666d2b5fe45a","5d829da97f572900184a7cb1","false","false","Bicycle","https://kisumu-drawings.s3-us-west-1.amazonaws.com/35-008.png","0","Airplane","35-008.png"
"","2917","image-button-response","20","null","463369","686d62ec803998618dffb3d1","686d8b19c61d666d2b5fe45a","5d829da97f572900184a7cb1","false","false","Tree","https://kisumu-drawings.s3-us-west-1.amazonaws.com/72-006.png","10","Tree","72-006.png"
"","2626","image-button-response","21","null","466504","686d62ec803998618dffb3d1","686d8b19c61d666d2b5fe45a","5d829da97f572900184a7cb1","false","false","Rabbit","https://kisumu-drawings.s3-us-west-1.amazonaws.com/36-005.png","4","Cat","36-005.png"
"","7136","image-button-response","22","null","474145","686d62ec803998618dffb3d1","686d8b19c61d666d2b5fe45a","5d829da97f572900184a7cb1","false","false","Cup","https://kisumu-drawings.s3-us-west-1.amazonaws.com/13-014.png","6","Cup","13-014.png"
"","4786","image-button-response","23","null","479435","686d62ec803998618dffb3d1","686d8b19c61d666d2b5fe45a","5d829da97f572900184a7cb1","false","false","Bird","https://kisumu-drawings.s3-us-west-1.amazonaws.com/78-009.png","4","Cat","78-009.png"
"","2600","image-button-response","24","null","482537","686d62ec803998618dffb3d1","686d8b19c61d666d2b5fe45a","5d829da97f572900184a7cb1","false","false","Cup","https://kisumu-drawings.s3-us-west-1.amazonaws.com/72-010.png","6","Cup","72-010.png"
"","1894","image-button-response","25","null","484945","686d62ec803998618dffb3d1","686d8b19c61d666d2b5fe45a","5d829da97f572900184a7cb1","false","false","Chair","https://kisumu-drawings.s3-us-west-1.amazonaws.com/79-010.png","11","Watch","79-010.png"
"","2125","image-button-response","26","null","487577","686d62ec803998618dffb3d1","686d8b19c61d666d2b5fe45a","5d829da97f572900184a7cb1","false","false","Car","https://kisumu-drawings.s3-us-west-1.amazonaws.com/99-016.png","3","Car","99-016.png"
"","4188","image-button-response","27","null","492273","686d62ec803998618dffb3d1","686d8b19c61d666d2b5fe45a","5d829da97f572900184a7cb1","false","false","Car","https://kisumu-drawings.s3-us-west-1.amazonaws.com/39-006.png","0","Airplane","39-006.png"
"","4710","image-button-response","28","null","497484","686d62ec803998618dffb3d1","686d8b19c61d666d2b5fe45a","5d829da97f572900184a7cb1","false","false","Airplane","https://kisumu-drawings.s3-us-west-1.amazonaws.com/32-010.png","4","Cat","32-010.png"
"","5680","image-button-response","29","null","503682","686d62ec803998618dffb3d1","686d8b19c61d666d2b5fe45a","5d829da97f572900184a7cb1","false","false","Cat","https://kisumu-drawings.s3-us-west-1.amazonaws.com/112-016.png","9","Rabbit","112-016.png"
"","2874","image-button-response","30","null","507065","686d62ec803998618dffb3d1","686d8b19c61d666d2b5fe45a","5d829da97f572900184a7cb1","false","false","Chair","https://kisumu-drawings.s3-us-west-1.amazonaws.com/40-008.png","5","Chair","40-008.png"
"","2515","image-button-response","31","null","510082","686d62ec803998618dffb3d1","686d8b19c61d666d2b5fe45a","5d829da97f572900184a7cb1","false","false","Hat","https://kisumu-drawings.s3-us-west-1.amazonaws.com/73-011.png","6","Cup","73-011.png"
"","1206","image-button-response","32","null","511794","686d62ec803998618dffb3d1","686d8b19c61d666d2b5fe45a","5d829da97f572900184a7cb1","false","false","Cup","https://kisumu-drawings.s3-us-west-1.amazonaws.com/86-005.png","6","Cup","86-005.png"
"","2581","image-button-response","33","null","514884","686d62ec803998618dffb3d1","686d8b19c61d666d2b5fe45a","5d829da97f572900184a7cb1","false","false","Hat","https://kisumu-drawings.s3-us-west-1.amazonaws.com/86-006.png","7","Hat","86-006.png"
"","2182","image-button-response","34","null","517578","686d62ec803998618dffb3d1","686d8b19c61d666d2b5fe45a","5d829da97f572900184a7cb1","false","false","Cup","https://kisumu-drawings.s3-us-west-1.amazonaws.com/38-010.png","6","Cup","38-010.png"
"","3897","image-button-response","35","null","521987","686d62ec803998618dffb3d1","686d8b19c61d666d2b5fe45a","5d829da97f572900184a7cb1","false","false","Tree","https://kisumu-drawings.s3-us-west-1.amazonaws.com/111-008.png","10","Tree","111-008.png"
"","12138","image-button-response","36","null","534628","686d62ec803998618dffb3d1","686d8b19c61d666d2b5fe45a","5d829da97f572900184a7cb1","false","false","Car","https://kisumu-drawings.s3-us-west-1.amazonaws.com/11-012.png","6","Cup","11-012.png"
"","3274","image-button-response","37","null","538419","686d62ec803998618dffb3d1","686d8b19c61d666d2b5fe45a","5d829da97f572900184a7cb1","false","false","Cup","https://kisumu-drawings.s3-us-west-1.amazonaws.com/46-013.png","6","Cup","46-013.png"
"","2077","image-button-response","38","null","541003","686d62ec803998618dffb3d1","686d8b19c61d666d2b5fe45a","5d829da97f572900184a7cb1","false","false","House","https://kisumu-drawings.s3-us-west-1.amazonaws.com/117-014.png","8","House","117-014.png"
"","2422","image-button-response","39","null","543940","686d62ec803998618dffb3d1","686d8b19c61d666d2b5fe45a","5d829da97f572900184a7cb1","false","false","Cat","https://kisumu-drawings.s3-us-west-1.amazonaws.com/75-014.png","4","Cat","75-014.png"
"","2758","image-button-response","40","null","547211","686d62ec803998618dffb3d1","686d8b19c61d666d2b5fe45a","5d829da97f572900184a7cb1","false","false","Bird","https://kisumu-drawings.s3-us-west-1.amazonaws.com/42-005.png","0","Airplane","42-005.png"
"","2644","image-button-response","41","null","550364","686d62ec803998618dffb3d1","686d8b19c61d666d2b5fe45a","5d829da97f572900184a7cb1","false","false","Bicycle","https://kisumu-drawings.s3-us-west-1.amazonaws.com/100-010.png","0","Airplane","100-010.png"
"","4687","image-button-response","42","null","555563","686d62ec803998618dffb3d1","686d8b19c61d666d2b5fe45a","5d829da97f572900184a7cb1","false","false","Airplane","https://kisumu-drawings.s3-us-west-1.amazonaws.com/1-007.png","0","Airplane","1-007.png"
"","2020","image-button-response","43","null","558099","686d62ec803998618dffb3d1","686d8b19c61d666d2b5fe45a","5d829da97f572900184a7cb1","false","false","Car","https://kisumu-drawings.s3-us-west-1.amazonaws.com/118-009.png","3","Car","118-009.png"
"","2164","image-button-response","44","null","560774","686d62ec803998618dffb3d1","686d8b19c61d666d2b5fe45a","5d829da97f572900184a7cb1","false","false","Rabbit","https://kisumu-drawings.s3-us-west-1.amazonaws.com/120-012.png","4","Cat","120-012.png"
"","3264","image-button-response","45","null","564540","686d62ec803998618dffb3d1","686d8b19c61d666d2b5fe45a","5d829da97f572900184a7cb1","false","false","Hat","https://kisumu-drawings.s3-us-west-1.amazonaws.com/16-013.png","5","Chair","16-013.png"
"","2136","image-button-response","46","null","567179","686d62ec803998618dffb3d1","686d8b19c61d666d2b5fe45a","5d829da97f572900184a7cb1","false","false","Watch","https://kisumu-drawings.s3-us-west-1.amazonaws.com/26-015.png","0","Airplane","26-015.png"
"","2287","image-button-response","47","null","569971","686d62ec803998618dffb3d1","686d8b19c61d666d2b5fe45a","5d829da97f572900184a7cb1","false","false","Airplane","https://kisumu-drawings.s3-us-west-1.amazonaws.com/76-008.png","3","Car","76-008.png"
"","2691","image-button-response","48","null","573172","686d62ec803998618dffb3d1","686d8b19c61d666d2b5fe45a","5d829da97f572900184a7cb1","false","false","Watch","https://kisumu-drawings.s3-us-west-1.amazonaws.com/52-013.png","11","Watch","52-013.png"
"","2101","image-button-response","49","null","575780","686d62ec803998618dffb3d1","686d8b19c61d666d2b5fe45a","5d829da97f572900184a7cb1","false","false","House","https://kisumu-drawings.s3-us-west-1.amazonaws.com/75-007.png","8","House","75-007.png"
"","2353","image-button-response","50","null","578635","686d62ec803998618dffb3d1","686d8b19c61d666d2b5fe45a","5d829da97f572900184a7cb1","false","false","Watch","https://kisumu-drawings.s3-us-west-1.amazonaws.com/18-008.png","6","Cup","18-008.png"
"","1882","image-button-response","51","null","581028","686d62ec803998618dffb3d1","686d8b19c61d666d2b5fe45a","5d829da97f572900184a7cb1","false","false","Cat","https://kisumu-drawings.s3-us-west-1.amazonaws.com/38-006.png","4","Cat","38-006.png"
"","4370","image-button-response","52","null","585909","686d62ec803998618dffb3d1","686d8b19c61d666d2b5fe45a","5d829da97f572900184a7cb1","false","false","Rabbit","https://kisumu-drawings.s3-us-west-1.amazonaws.com/97-012.png","9","Rabbit","97-012.png"
"","1456","image-button-response","53","null","587868","686d62ec803998618dffb3d1","686d8b19c61d666d2b5fe45a","5d829da97f572900184a7cb1","false","false","Rabbit","https://kisumu-drawings.s3-us-west-1.amazonaws.com/77-009.png","9","Rabbit","77-009.png"
"","6346","image-button-response","54","null","594724","686d62ec803998618dffb3d1","686d8b19c61d666d2b5fe45a","5d829da97f572900184a7cb1","false","false","Chair","https://kisumu-drawings.s3-us-west-1.amazonaws.com/1-008.png","2","Bird","1-008.png"
"","3353","image-button-response","55","null","598581","686d62ec803998618dffb3d1","686d8b19c61d666d2b5fe45a","5d829da97f572900184a7cb1","false","false","Hat","https://kisumu-drawings.s3-us-west-1.amazonaws.com/50-012.png","7","Hat","50-012.png"
"","2808","image-button-response","56","null","601893","686d62ec803998618dffb3d1","686d8b19c61d666d2b5fe45a","5d829da97f572900184a7cb1","false","false","Bird","https://kisumu-drawings.s3-us-west-1.amazonaws.com/119-005.png","2","Bird","119-005.png"
"","5456","image-button-response","57","null","607853","686d62ec803998618dffb3d1","686d8b19c61d666d2b5fe45a","5d829da97f572900184a7cb1","false","false","Rabbit","https://kisumu-drawings.s3-us-west-1.amazonaws.com/11-006.png","5","Chair","11-006.png"
"","2139","image-button-response","58","null","610508","686d62ec803998618dffb3d1","686d8b19c61d666d2b5fe45a","5d829da97f572900184a7cb1","false","false","Tree","https://kisumu-drawings.s3-us-west-1.amazonaws.com/81-009.png","10","Tree","81-009.png"
"","4099","image-button-response","59","null","615125","686d62ec803998618dffb3d1","686d8b19c61d666d2b5fe45a","5d829da97f572900184a7cb1","false","false","Tree","https://kisumu-drawings.s3-us-west-1.amazonaws.com/28-015.png","4","Cat","28-015.png"
"","8152","image-button-response","60","null","623789","686d62ec803998618dffb3d1","686d8b19c61d666d2b5fe45a","5d829da97f572900184a7cb1","false","false","Hat","https://kisumu-drawings.s3-us-west-1.amazonaws.com/35-013.png","11","Watch","35-013.png"
"","3642","image-button-response","61","null","627934","686d62ec803998618dffb3d1","686d8b19c61d666d2b5fe45a","5d829da97f572900184a7cb1","false","false","Bird","https://kisumu-drawings.s3-us-west-1.amazonaws.com/40-007.png","9","Rabbit","40-007.png"
"","2376","image-button-response","62","null","630823","686d62ec803998618dffb3d1","686d8b19c61d666d2b5fe45a","5d829da97f572900184a7cb1","false","false","Cup","https://kisumu-drawings.s3-us-west-1.amazonaws.com/115-007.png","6","Cup","115-007.png"
"","2409","image-button-response","63","null","633749","686d62ec803998618dffb3d1","686d8b19c61d666d2b5fe45a","5d829da97f572900184a7cb1","false","false","Watch","https://kisumu-drawings.s3-us-west-1.amazonaws.com/84-006.png","11","Watch","84-006.png"
"","1940","image-button-response","64","null","636206","686d62ec803998618dffb3d1","686d8b19c61d666d2b5fe45a","5d829da97f572900184a7cb1","false","false","House","https://kisumu-drawings.s3-us-west-1.amazonaws.com/81-015.png","8","House","81-015.png"
"","2496","image-button-response","65","null","639206","686d62ec803998618dffb3d1","686d8b19c61d666d2b5fe45a","5d829da97f572900184a7cb1","false","false","Car","https://kisumu-drawings.s3-us-west-1.amazonaws.com/79-008.png","3","Car","79-008.png"
"","2051","image-button-response","66","null","641766","686d62ec803998618dffb3d1","686d8b19c61d666d2b5fe45a","5d829da97f572900184a7cb1","false","false","Chair","https://kisumu-drawings.s3-us-west-1.amazonaws.com/120-016.png","5","Chair","120-016.png"
"","3259","image-button-response","67","null","645535","686d62ec803998618dffb3d1","686d8b19c61d666d2b5fe45a","5d829da97f572900184a7cb1","false","false","Rabbit","https://kisumu-drawings.s3-us-west-1.amazonaws.com/45-011.png","4","Cat","45-011.png"
"","2506","image-button-response","68","null","648558","686d62ec803998618dffb3d1","686d8b19c61d666d2b5fe45a","5d829da97f572900184a7cb1","false","false","Airplane","https://kisumu-drawings.s3-us-west-1.amazonaws.com/117-015.png","0","Airplane","117-015.png"
"","2388","image-button-response","69","null","651463","686d62ec803998618dffb3d1","686d8b19c61d666d2b5fe45a","5d829da97f572900184a7cb1","false","false","Car","https://kisumu-drawings.s3-us-west-1.amazonaws.com/50-015.png","3","Car","50-015.png"
"","2735","image-button-response","70","null","654702","686d62ec803998618dffb3d1","686d8b19c61d666d2b5fe45a","5d829da97f572900184a7cb1","false","false","Hat","https://kisumu-drawings.s3-us-west-1.amazonaws.com/119-007.png","7","Hat","119-007.png"
"","2770","image-button-response","71","null","657982","686d62ec803998618dffb3d1","686d8b19c61d666d2b5fe45a","5d829da97f572900184a7cb1","false","false","Airplane","https://kisumu-drawings.s3-us-west-1.amazonaws.com/42-016.png","9","Rabbit","42-016.png"
"","3176","image-button-response","72","null","661671","686d62ec803998618dffb3d1","686d8b19c61d666d2b5fe45a","5d829da97f572900184a7cb1","false","false","Watch","https://kisumu-drawings.s3-us-west-1.amazonaws.com/77-013.png","10","Tree","77-013.png"
"","2496","image-button-response","73","null","664672","686d62ec803998618dffb3d1","686d8b19c61d666d2b5fe45a","5d829da97f572900184a7cb1","false","false","Bicycle","https://kisumu-drawings.s3-us-west-1.amazonaws.com/45-015.png","0","Airplane","45-015.png"
"","1255","image-button-response","74","null","666431","686d62ec803998618dffb3d1","686d8b19c61d666d2b5fe45a","5d829da97f572900184a7cb1","true","false","airplane","stimuli/catch_trials/0_airplane_catch.jpg","0","Airplane",""
"","2149","image-button-response","75","null","669095","686d62ec803998618dffb3d1","686d8b19c61d666d2b5fe45a","5d829da97f572900184a7cb1","false","false","Chair","https://kisumu-drawings.s3-us-west-1.amazonaws.com/42-007.png","5","Chair","42-007.png"
