"view_history","rt","trial_type","trial_index","plugin_version","time_elapsed","study_id","session_id","participant_id","catch_trial","prep_trial","sketcher_category","stimulus","response","response_category","sketch_id"
"[{""page_index"":0,""viewing_time"":14611},{""page_index"":1,""viewing_time"":6314},{""page_index"":2,""viewing_time"":10794},{""page_index"":3,""viewing_time"":13236}]","44955","instructions","0","null","44977","686d62ec803998618dffb3d1","686da8410c7e0b0047338190","5f2732c17f64f043dd83bdbb","","","","","","",""
"","5757","image-button-response","1","null","51753","686d62ec803998618dffb3d1","686da8410c7e0b0047338190","5f2732c17f64f043dd83bdbb","false","true","car","stimuli/prep_trials/1_car_prep.png","3","Car",""
"","2289","image-button-response","2","null","54565","686d62ec803998618dffb3d1","686da8410c7e0b0047338190","5f2732c17f64f043dd83bdbb","false","true","cat","stimuli/prep_trials/0_cat_prep.jpg","4","Cat",""
"","4641","image-button-response","3","null","59710","686d62ec803998618dffb3d1","686da8410c7e0b0047338190","5f2732c17f64f043dd83bdbb","true","false","airplane","stimuli/catch_trials/0_airplane_catch.jpg","0","Airplane",""
"","7480","image-button-response","4","null","67705","686d62ec803998618dffb3d1","686da8410c7e0b0047338190","5f2732c17f64f043dd83bdbb","false","false","Watch","https://kisumu-drawings.s3-us-west-1.amazonaws.com/118-014.png","11","Watch","118-014.png"
"","139118","image-button-response","5","null","207334","686d62ec803998618dffb3d1","686da8410c7e0b0047338190","5f2732c17f64f043dd83bdbb","false","false","Bird","https://kisumu-drawings.s3-us-west-1.amazonaws.com/53-005.png","7","Hat","53-005.png"
"","10755","image-button-response","6","null","218599","686d62ec803998618dffb3d1","686da8410c7e0b0047338190","5f2732c17f64f043dd83bdbb","false","false","Watch","https://kisumu-drawings.s3-us-west-1.amazonaws.com/38-013.png","0","Airplane","38-013.png"
"","4972","image-button-response","7","null","224074","686d62ec803998618dffb3d1","686da8410c7e0b0047338190","5f2732c17f64f043dd83bdbb","false","false","Bird","https://kisumu-drawings.s3-us-west-1.amazonaws.com/84-012.png","2","Bird","84-012.png"
"","3194","image-button-response","8","null","227779","686d62ec803998618dffb3d1","686da8410c7e0b0047338190","5f2732c17f64f043dd83bdbb","false","false","Tree","https://kisumu-drawings.s3-us-west-1.amazonaws.com/82-010.png","10","Tree","82-010.png"
"","3390","image-button-response","9","null","231672","686d62ec803998618dffb3d1","686da8410c7e0b0047338190","5f2732c17f64f043dd83bdbb","false","false","Chair","https://kisumu-drawings.s3-us-west-1.amazonaws.com/61-015.png","5","Chair","61-015.png"
"","3119","image-button-response","10","null","235309","686d62ec803998618dffb3d1","686da8410c7e0b0047338190","5f2732c17f64f043dd83bdbb","false","false","Hat","https://kisumu-drawings.s3-us-west-1.amazonaws.com/93-008.png","7","Hat","93-008.png"
"","3862","image-button-response","11","null","239689","686d62ec803998618dffb3d1","686da8410c7e0b0047338190","5f2732c17f64f043dd83bdbb","false","false","Cup","https://kisumu-drawings.s3-us-west-1.amazonaws.com/101-010.png","6","Cup","101-010.png"
"","3124","image-button-response","12","null","243331","686d62ec803998618dffb3d1","686da8410c7e0b0047338190","5f2732c17f64f043dd83bdbb","false","false","House","https://kisumu-drawings.s3-us-west-1.amazonaws.com/30-013.png","8","House","30-013.png"
"","2799","image-button-response","13","null","246634","686d62ec803998618dffb3d1","686da8410c7e0b0047338190","5f2732c17f64f043dd83bdbb","false","false","Airplane","https://kisumu-drawings.s3-us-west-1.amazonaws.com/44-008.png","0","Airplane","44-008.png"
"","2868","image-button-response","14","null","250017","686d62ec803998618dffb3d1","686da8410c7e0b0047338190","5f2732c17f64f043dd83bdbb","false","false","Airplane","https://kisumu-drawings.s3-us-west-1.amazonaws.com/113-014.png","0","Airplane","113-014.png"
"","28815","image-button-response","15","null","279335","686d62ec803998618dffb3d1","686da8410c7e0b0047338190","5f2732c17f64f043dd83bdbb","false","false","Bird","https://kisumu-drawings.s3-us-west-1.amazonaws.com/39-015.png","4","Cat","39-015.png"
"","24134","image-button-response","16","null","303973","686d62ec803998618dffb3d1","686da8410c7e0b0047338190","5f2732c17f64f043dd83bdbb","false","false","Watch","https://kisumu-drawings.s3-us-west-1.amazonaws.com/18-008.png","7","Hat","18-008.png"
"","4946","image-button-response","17","null","309423","686d62ec803998618dffb3d1","686da8410c7e0b0047338190","5f2732c17f64f043dd83bdbb","false","false","Chair","https://kisumu-drawings.s3-us-west-1.amazonaws.com/5-014.png","5","Chair","5-014.png"
"","4223","image-button-response","18","null","314163","686d62ec803998618dffb3d1","686da8410c7e0b0047338190","5f2732c17f64f043dd83bdbb","false","false","Tree","https://kisumu-drawings.s3-us-west-1.amazonaws.com/28-015.png","10","Tree","28-015.png"
"","3407","image-button-response","19","null","318086","686d62ec803998618dffb3d1","686da8410c7e0b0047338190","5f2732c17f64f043dd83bdbb","false","false","Chair","https://kisumu-drawings.s3-us-west-1.amazonaws.com/46-012.png","5","Chair","46-012.png"
"","2782","image-button-response","20","null","321373","686d62ec803998618dffb3d1","686da8410c7e0b0047338190","5f2732c17f64f043dd83bdbb","false","false","Tree","https://kisumu-drawings.s3-us-west-1.amazonaws.com/55-009.png","10","Tree","55-009.png"
"","11431","image-button-response","21","null","333320","686d62ec803998618dffb3d1","686da8410c7e0b0047338190","5f2732c17f64f043dd83bdbb","false","false","Rabbit","https://kisumu-drawings.s3-us-west-1.amazonaws.com/44-016.png","9","Rabbit","44-016.png"
"","4350","image-button-response","22","null","338188","686d62ec803998618dffb3d1","686da8410c7e0b0047338190","5f2732c17f64f043dd83bdbb","false","false","Airplane","https://kisumu-drawings.s3-us-west-1.amazonaws.com/82-005.png","0","Airplane","82-005.png"
"","7857","image-button-response","23","null","346574","686d62ec803998618dffb3d1","686da8410c7e0b0047338190","5f2732c17f64f043dd83bdbb","false","false","Car","https://kisumu-drawings.s3-us-west-1.amazonaws.com/113-015.png","3","Car","113-015.png"
"","14171","image-button-response","24","null","361255","686d62ec803998618dffb3d1","686da8410c7e0b0047338190","5f2732c17f64f043dd83bdbb","false","false","House","https://kisumu-drawings.s3-us-west-1.amazonaws.com/19-006.png","10","Tree","19-006.png"
"","11727","image-button-response","25","null","373496","686d62ec803998618dffb3d1","686da8410c7e0b0047338190","5f2732c17f64f043dd83bdbb","false","false","Bicycle","https://kisumu-drawings.s3-us-west-1.amazonaws.com/47-009.png","3","Car","47-009.png"
"","3143","image-button-response","26","null","377142","686d62ec803998618dffb3d1","686da8410c7e0b0047338190","5f2732c17f64f043dd83bdbb","false","false","Watch","https://kisumu-drawings.s3-us-west-1.amazonaws.com/62-005.png","11","Watch","62-005.png"
"","13757","image-button-response","27","null","391401","686d62ec803998618dffb3d1","686da8410c7e0b0047338190","5f2732c17f64f043dd83bdbb","false","false","Bird","https://kisumu-drawings.s3-us-west-1.amazonaws.com/77-011.png","2","Bird","77-011.png"
"","5469","image-button-response","28","null","397377","686d62ec803998618dffb3d1","686da8410c7e0b0047338190","5f2732c17f64f043dd83bdbb","false","false","Rabbit","https://kisumu-drawings.s3-us-west-1.amazonaws.com/119-008.png","9","Rabbit","119-008.png"
"","4716","image-button-response","29","null","402606","686d62ec803998618dffb3d1","686da8410c7e0b0047338190","5f2732c17f64f043dd83bdbb","false","false","Bicycle","https://kisumu-drawings.s3-us-west-1.amazonaws.com/31-006.png","1","Bicycle","31-006.png"
"","3751","image-button-response","30","null","406858","686d62ec803998618dffb3d1","686da8410c7e0b0047338190","5f2732c17f64f043dd83bdbb","false","false","Chair","https://kisumu-drawings.s3-us-west-1.amazonaws.com/35-007.png","5","Chair","35-007.png"
"","6555","image-button-response","31","null","413916","686d62ec803998618dffb3d1","686da8410c7e0b0047338190","5f2732c17f64f043dd83bdbb","false","false","Airplane","https://kisumu-drawings.s3-us-west-1.amazonaws.com/1-007.png","9","Rabbit","1-007.png"
"","4679","image-button-response","32","null","419097","686d62ec803998618dffb3d1","686da8410c7e0b0047338190","5f2732c17f64f043dd83bdbb","false","false","House","https://kisumu-drawings.s3-us-west-1.amazonaws.com/101-005.png","8","House","101-005.png"
"","6719","image-button-response","33","null","426321","686d62ec803998618dffb3d1","686da8410c7e0b0047338190","5f2732c17f64f043dd83bdbb","false","false","Bicycle","https://kisumu-drawings.s3-us-west-1.amazonaws.com/79-013.png","9","Rabbit","79-013.png"
"","3353","image-button-response","34","null","430184","686d62ec803998618dffb3d1","686da8410c7e0b0047338190","5f2732c17f64f043dd83bdbb","false","false","Watch","https://kisumu-drawings.s3-us-west-1.amazonaws.com/92-008.png","11","Watch","92-008.png"
"","4882","image-button-response","35","null","435584","686d62ec803998618dffb3d1","686da8410c7e0b0047338190","5f2732c17f64f043dd83bdbb","false","false","Cat","https://kisumu-drawings.s3-us-west-1.amazonaws.com/80-012.png","9","Rabbit","80-012.png"
"","33300","image-button-response","36","null","469394","686d62ec803998618dffb3d1","686da8410c7e0b0047338190","5f2732c17f64f043dd83bdbb","false","false","Airplane","https://kisumu-drawings.s3-us-west-1.amazonaws.com/72-005.png","0","Airplane","72-005.png"
"","11426","image-button-response","37","null","481327","686d62ec803998618dffb3d1","686da8410c7e0b0047338190","5f2732c17f64f043dd83bdbb","false","false","Bird","https://kisumu-drawings.s3-us-west-1.amazonaws.com/12-009.png","7","Hat","12-009.png"
"","3892","image-button-response","38","null","485722","686d62ec803998618dffb3d1","686da8410c7e0b0047338190","5f2732c17f64f043dd83bdbb","false","false","House","https://kisumu-drawings.s3-us-west-1.amazonaws.com/81-015.png","8","House","81-015.png"
"","6326","image-button-response","39","null","492554","686d62ec803998618dffb3d1","686da8410c7e0b0047338190","5f2732c17f64f043dd83bdbb","false","false","Rabbit","https://kisumu-drawings.s3-us-west-1.amazonaws.com/15-006.png","8","House","15-006.png"
"","3488","image-button-response","40","null","496544","686d62ec803998618dffb3d1","686da8410c7e0b0047338190","5f2732c17f64f043dd83bdbb","false","false","Bicycle","https://kisumu-drawings.s3-us-west-1.amazonaws.com/107-015.png","1","Bicycle","107-015.png"
"","2806","image-button-response","41","null","499859","686d62ec803998618dffb3d1","686da8410c7e0b0047338190","5f2732c17f64f043dd83bdbb","false","false","Watch","https://kisumu-drawings.s3-us-west-1.amazonaws.com/49-015.png","11","Watch","49-015.png"
"","2839","image-button-response","42","null","503204","686d62ec803998618dffb3d1","686da8410c7e0b0047338190","5f2732c17f64f043dd83bdbb","false","false","Rabbit","https://kisumu-drawings.s3-us-west-1.amazonaws.com/80-016.png","9","Rabbit","80-016.png"
"","3789","image-button-response","43","null","507509","686d62ec803998618dffb3d1","686da8410c7e0b0047338190","5f2732c17f64f043dd83bdbb","false","false","Hat","https://kisumu-drawings.s3-us-west-1.amazonaws.com/50-012.png","7","Hat","50-012.png"
"","3824","image-button-response","44","null","511837","686d62ec803998618dffb3d1","686da8410c7e0b0047338190","5f2732c17f64f043dd83bdbb","false","false","Car","https://kisumu-drawings.s3-us-west-1.amazonaws.com/28-007.png","3","Car","28-007.png"
"","16038","image-button-response","45","null","528382","686d62ec803998618dffb3d1","686da8410c7e0b0047338190","5f2732c17f64f043dd83bdbb","false","false","Car","https://kisumu-drawings.s3-us-west-1.amazonaws.com/13-011.png","10","Tree","13-011.png"
"","5516","image-button-response","46","null","534405","686d62ec803998618dffb3d1","686da8410c7e0b0047338190","5f2732c17f64f043dd83bdbb","false","false","Cat","https://kisumu-drawings.s3-us-west-1.amazonaws.com/93-007.png","4","Cat","93-007.png"
"","13695","image-button-response","47","null","548602","686d62ec803998618dffb3d1","686da8410c7e0b0047338190","5f2732c17f64f043dd83bdbb","false","false","Cat","https://kisumu-drawings.s3-us-west-1.amazonaws.com/43-010.png","4","Cat","43-010.png"
"","6949","image-button-response","48","null","556063","686d62ec803998618dffb3d1","686da8410c7e0b0047338190","5f2732c17f64f043dd83bdbb","false","false","Hat","https://kisumu-drawings.s3-us-west-1.amazonaws.com/73-011.png","8","House","73-011.png"
"","7080","image-button-response","49","null","563647","686d62ec803998618dffb3d1","686da8410c7e0b0047338190","5f2732c17f64f043dd83bdbb","false","false","Hat","https://kisumu-drawings.s3-us-west-1.amazonaws.com/17-015.png","7","Hat","17-015.png"
"","4912","image-button-response","50","null","569062","686d62ec803998618dffb3d1","686da8410c7e0b0047338190","5f2732c17f64f043dd83bdbb","false","false","Chair","https://kisumu-drawings.s3-us-west-1.amazonaws.com/100-009.png","5","Chair","100-009.png"
"","6029","image-button-response","51","null","575595","686d62ec803998618dffb3d1","686da8410c7e0b0047338190","5f2732c17f64f043dd83bdbb","false","false","Cup","https://kisumu-drawings.s3-us-west-1.amazonaws.com/31-011.png","5","Chair","31-011.png"
"","5572","image-button-response","52","null","581677","686d62ec803998618dffb3d1","686da8410c7e0b0047338190","5f2732c17f64f043dd83bdbb","false","false","Bicycle","https://kisumu-drawings.s3-us-west-1.amazonaws.com/18-012.png","7","Hat","18-012.png"
"","4426","image-button-response","53","null","586619","686d62ec803998618dffb3d1","686da8410c7e0b0047338190","5f2732c17f64f043dd83bdbb","false","false","Bird","https://kisumu-drawings.s3-us-west-1.amazonaws.com/114-015.png","2","Bird","114-015.png"
"","4300","image-button-response","54","null","591428","686d62ec803998618dffb3d1","686da8410c7e0b0047338190","5f2732c17f64f043dd83bdbb","false","false","Hat","https://kisumu-drawings.s3-us-west-1.amazonaws.com/38-011.png","7","Hat","38-011.png"
"","4031","image-button-response","55","null","595972","686d62ec803998618dffb3d1","686da8410c7e0b0047338190","5f2732c17f64f043dd83bdbb","false","false","Cat","https://kisumu-drawings.s3-us-west-1.amazonaws.com/6-011.png","7","Hat","6-011.png"
"","7155","image-button-response","56","null","603645","686d62ec803998618dffb3d1","686da8410c7e0b0047338190","5f2732c17f64f043dd83bdbb","false","false","Cup","https://kisumu-drawings.s3-us-west-1.amazonaws.com/6-013.png","10","Tree","6-013.png"
"","9046","image-button-response","57","null","613198","686d62ec803998618dffb3d1","686da8410c7e0b0047338190","5f2732c17f64f043dd83bdbb","false","false","Cup","https://kisumu-drawings.s3-us-west-1.amazonaws.com/79-011.png","7","Hat","79-011.png"
"","3572","image-button-response","58","null","617280","686d62ec803998618dffb3d1","686da8410c7e0b0047338190","5f2732c17f64f043dd83bdbb","false","false","Tree","https://kisumu-drawings.s3-us-west-1.amazonaws.com/101-007.png","10","Tree","101-007.png"
"","3773","image-button-response","59","null","621571","686d62ec803998618dffb3d1","686da8410c7e0b0047338190","5f2732c17f64f043dd83bdbb","false","false","Cup","https://kisumu-drawings.s3-us-west-1.amazonaws.com/81-008.png","6","Cup","81-008.png"
"","3271","image-button-response","60","null","625350","686d62ec803998618dffb3d1","686da8410c7e0b0047338190","5f2732c17f64f043dd83bdbb","false","false","Cup","https://kisumu-drawings.s3-us-west-1.amazonaws.com/47-014.png","6","Cup","47-014.png"
"","8917","image-button-response","61","null","634770","686d62ec803998618dffb3d1","686da8410c7e0b0047338190","5f2732c17f64f043dd83bdbb","false","false","Car","https://kisumu-drawings.s3-us-west-1.amazonaws.com/65-013.png","7","Hat","65-013.png"
"","4661","image-button-response","62","null","639946","686d62ec803998618dffb3d1","686da8410c7e0b0047338190","5f2732c17f64f043dd83bdbb","false","false","Tree","https://kisumu-drawings.s3-us-west-1.amazonaws.com/78-016.png","10","Tree","78-016.png"
"","3713","image-button-response","63","null","644176","686d62ec803998618dffb3d1","686da8410c7e0b0047338190","5f2732c17f64f043dd83bdbb","false","false","Cat","https://kisumu-drawings.s3-us-west-1.amazonaws.com/38-006.png","9","Rabbit","38-006.png"
"","6842","image-button-response","64","null","651527","686d62ec803998618dffb3d1","686da8410c7e0b0047338190","5f2732c17f64f043dd83bdbb","false","false","Cat","https://kisumu-drawings.s3-us-west-1.amazonaws.com/117-009.png","9","Rabbit","117-009.png"
"","3524","image-button-response","65","null","655568","686d62ec803998618dffb3d1","686da8410c7e0b0047338190","5f2732c17f64f043dd83bdbb","false","false","House","https://kisumu-drawings.s3-us-west-1.amazonaws.com/42-013.png","8","House","42-013.png"
"","7206","image-button-response","66","null","663279","686d62ec803998618dffb3d1","686da8410c7e0b0047338190","5f2732c17f64f043dd83bdbb","false","false","Rabbit","https://kisumu-drawings.s3-us-west-1.amazonaws.com/88-008.png","9","Rabbit","88-008.png"
"","3830","image-button-response","67","null","667618","686d62ec803998618dffb3d1","686da8410c7e0b0047338190","5f2732c17f64f043dd83bdbb","false","false","Car","https://kisumu-drawings.s3-us-west-1.amazonaws.com/54-005.png","3","Car","54-005.png"
"","7334","image-button-response","68","null","675464","686d62ec803998618dffb3d1","686da8410c7e0b0047338190","5f2732c17f64f043dd83bdbb","false","false","Bicycle","https://kisumu-drawings.s3-us-west-1.amazonaws.com/83-008.png","1","Bicycle","83-008.png"
"","4100","image-button-response","69","null","680079","686d62ec803998618dffb3d1","686da8410c7e0b0047338190","5f2732c17f64f043dd83bdbb","false","false","Rabbit","https://kisumu-drawings.s3-us-west-1.amazonaws.com/39-012.png","7","Hat","39-012.png"
"","2583","image-button-response","70","null","683166","686d62ec803998618dffb3d1","686da8410c7e0b0047338190","5f2732c17f64f043dd83bdbb","false","false","House","https://kisumu-drawings.s3-us-west-1.amazonaws.com/61-008.png","8","House","61-008.png"
"","2451","image-button-response","71","null","686124","686d62ec803998618dffb3d1","686da8410c7e0b0047338190","5f2732c17f64f043dd83bdbb","false","false","Car","https://kisumu-drawings.s3-us-west-1.amazonaws.com/99-016.png","3","Car","99-016.png"
"","3462","image-button-response","72","null","690099","686d62ec803998618dffb3d1","686da8410c7e0b0047338190","5f2732c17f64f043dd83bdbb","false","false","Chair","https://kisumu-drawings.s3-us-west-1.amazonaws.com/101-009.png","7","Hat","101-009.png"
"","2391","image-button-response","73","null","693001","686d62ec803998618dffb3d1","686da8410c7e0b0047338190","5f2732c17f64f043dd83bdbb","false","false","Airplane","https://kisumu-drawings.s3-us-west-1.amazonaws.com/21-012.png","0","Airplane","21-012.png"
"","15246","image-button-response","74","null","708750","686d62ec803998618dffb3d1","686da8410c7e0b0047338190","5f2732c17f64f043dd83bdbb","false","false","Tree","https://kisumu-drawings.s3-us-west-1.amazonaws.com/11-007.png","1","Bicycle","11-007.png"
"","6353","image-button-response","75","null","715606","686d62ec803998618dffb3d1","686da8410c7e0b0047338190","5f2732c17f64f043dd83bdbb","false","false","Hat","https://kisumu-drawings.s3-us-west-1.amazonaws.com/107-007.png","7","Hat","107-007.png"
