"view_history","rt","trial_type","trial_index","plugin_version","time_elapsed","study_id","session_id","participant_id","catch_trial","prep_trial","sketcher_category","stimulus","response","response_category","sketch_id"
"[{""page_index"":0,""viewing_time"":19397},{""page_index"":1,""viewing_time"":8311},{""page_index"":2,""viewing_time"":11328},{""page_index"":3,""viewing_time"":18857}]","57893","instructions","0","null","57923","686d62ec803998618dffb3d1","686d77018dc09d30cb160294","5f4c810ebfcaa8194f5d8c14","","","","","","",""
"","4902","image-button-response","1","null","63843","686d62ec803998618dffb3d1","686d77018dc09d30cb160294","5f4c810ebfcaa8194f5d8c14","false","true","car","stimuli/prep_trials/1_car_prep.png","3","Car",""
"","2846","image-button-response","2","null","67202","686d62ec803998618dffb3d1","686d77018dc09d30cb160294","5f4c810ebfcaa8194f5d8c14","false","true","cat","stimuli/prep_trials/0_cat_prep.jpg","4","Cat",""
"","11748","image-button-response","3","null","79458","686d62ec803998618dffb3d1","686d77018dc09d30cb160294","5f4c810ebfcaa8194f5d8c14","false","false","Bicycle","https://kisumu-drawings.s3-us-west-1.amazonaws.com/120-010.png","1","Bicycle","120-010.png"
"","18838","image-button-response","4","null","98810","686d62ec803998618dffb3d1","686d77018dc09d30cb160294","5f4c810ebfcaa8194f5d8c14","false","false","Car","https://kisumu-drawings.s3-us-west-1.amazonaws.com/10-006.png","3","Car","10-006.png"
"","10354","image-button-response","5","null","109667","686d62ec803998618dffb3d1","686d77018dc09d30cb160294","5f4c810ebfcaa8194f5d8c14","false","false","Chair","https://kisumu-drawings.s3-us-west-1.amazonaws.com/19-010.png","1","Bicycle","19-010.png"
"","9653","image-button-response","6","null","119826","686d62ec803998618dffb3d1","686d77018dc09d30cb160294","5f4c810ebfcaa8194f5d8c14","false","false","Watch","https://kisumu-drawings.s3-us-west-1.amazonaws.com/117-007.png","11","Watch","117-007.png"
"","3360","image-button-response","7","null","123690","686d62ec803998618dffb3d1","686d77018dc09d30cb160294","5f4c810ebfcaa8194f5d8c14","false","false","Chair","https://kisumu-drawings.s3-us-west-1.amazonaws.com/74-005.png","5","Chair","74-005.png"
"","2760","image-button-response","8","null","126966","686d62ec803998618dffb3d1","686d77018dc09d30cb160294","5f4c810ebfcaa8194f5d8c14","false","false","Cup","https://kisumu-drawings.s3-us-west-1.amazonaws.com/120-006.png","6","Cup","120-006.png"
"","2501","image-button-response","9","null","129978","686d62ec803998618dffb3d1","686d77018dc09d30cb160294","5f4c810ebfcaa8194f5d8c14","false","false","House","https://kisumu-drawings.s3-us-west-1.amazonaws.com/115-010.png","8","House","115-010.png"
"","4341","image-button-response","10","null","134834","686d62ec803998618dffb3d1","686d77018dc09d30cb160294","5f4c810ebfcaa8194f5d8c14","false","false","Bird","https://kisumu-drawings.s3-us-west-1.amazonaws.com/87-016.png","2","Bird","87-016.png"
"","1997","image-button-response","11","null","137347","686d62ec803998618dffb3d1","686d77018dc09d30cb160294","5f4c810ebfcaa8194f5d8c14","false","false","House","https://kisumu-drawings.s3-us-west-1.amazonaws.com/83-012.png","8","House","83-012.png"
"","3586","image-button-response","12","null","141442","686d62ec803998618dffb3d1","686d77018dc09d30cb160294","5f4c810ebfcaa8194f5d8c14","false","false","Cup","https://kisumu-drawings.s3-us-west-1.amazonaws.com/38-010.png","6","Cup","38-010.png"
"","1790","image-button-response","13","null","143739","686d62ec803998618dffb3d1","686d77018dc09d30cb160294","5f4c810ebfcaa8194f5d8c14","false","false","Cup","https://kisumu-drawings.s3-us-west-1.amazonaws.com/81-008.png","6","Cup","81-008.png"
"","4501","image-button-response","14","null","148746","686d62ec803998618dffb3d1","686d77018dc09d30cb160294","5f4c810ebfcaa8194f5d8c14","false","false","House","https://kisumu-drawings.s3-us-west-1.amazonaws.com/18-005.png","11","Watch","18-005.png"
"","2142","image-button-response","15","null","151394","686d62ec803998618dffb3d1","686d77018dc09d30cb160294","5f4c810ebfcaa8194f5d8c14","false","false","Car","https://kisumu-drawings.s3-us-west-1.amazonaws.com/100-012.png","3","Car","100-012.png"
"","9933","image-button-response","16","null","161834","686d62ec803998618dffb3d1","686d77018dc09d30cb160294","5f4c810ebfcaa8194f5d8c14","false","false","Cat","https://kisumu-drawings.s3-us-west-1.amazonaws.com/42-008.png","4","Cat","42-008.png"
"","4447","image-button-response","17","null","166794","686d62ec803998618dffb3d1","686d77018dc09d30cb160294","5f4c810ebfcaa8194f5d8c14","false","false","Bird","https://kisumu-drawings.s3-us-west-1.amazonaws.com/79-005.png","2","Bird","79-005.png"
"","17584","image-button-response","18","null","184890","686d62ec803998618dffb3d1","686d77018dc09d30cb160294","5f4c810ebfcaa8194f5d8c14","false","false","Tree","https://kisumu-drawings.s3-us-west-1.amazonaws.com/14-007.png","1","Bicycle","14-007.png"
"","3798","image-button-response","19","null","189194","686d62ec803998618dffb3d1","686d77018dc09d30cb160294","5f4c810ebfcaa8194f5d8c14","false","false","House","https://kisumu-drawings.s3-us-west-1.amazonaws.com/31-013.png","8","House","31-013.png"
"","2614","image-button-response","20","null","192322","686d62ec803998618dffb3d1","686d77018dc09d30cb160294","5f4c810ebfcaa8194f5d8c14","false","false","Car","https://kisumu-drawings.s3-us-west-1.amazonaws.com/32-011.png","3","Car","32-011.png"
"","3757","image-button-response","21","null","196595","686d62ec803998618dffb3d1","686d77018dc09d30cb160294","5f4c810ebfcaa8194f5d8c14","false","false","Airplane","https://kisumu-drawings.s3-us-west-1.amazonaws.com/49-011.png","2","Bird","49-011.png"
"","2061","image-button-response","22","null","199171","686d62ec803998618dffb3d1","686d77018dc09d30cb160294","5f4c810ebfcaa8194f5d8c14","false","false","Airplane","https://kisumu-drawings.s3-us-west-1.amazonaws.com/120-005.png","3","Car","120-005.png"
"","2470","image-button-response","23","null","202147","686d62ec803998618dffb3d1","686d77018dc09d30cb160294","5f4c810ebfcaa8194f5d8c14","false","false","Car","https://kisumu-drawings.s3-us-west-1.amazonaws.com/115-015.png","3","Car","115-015.png"
"","1693","image-button-response","24","null","204346","686d62ec803998618dffb3d1","686d77018dc09d30cb160294","5f4c810ebfcaa8194f5d8c14","false","false","Cat","https://kisumu-drawings.s3-us-west-1.amazonaws.com/99-005.png","4","Cat","99-005.png"
"","9393","image-button-response","25","null","214250","686d62ec803998618dffb3d1","686d77018dc09d30cb160294","5f4c810ebfcaa8194f5d8c14","false","false","Bicycle","https://kisumu-drawings.s3-us-west-1.amazonaws.com/83-008.png","0","Airplane","83-008.png"
"","3838","image-button-response","26","null","218603","686d62ec803998618dffb3d1","686d77018dc09d30cb160294","5f4c810ebfcaa8194f5d8c14","false","false","Tree","https://kisumu-drawings.s3-us-west-1.amazonaws.com/118-013.png","10","Tree","118-013.png"
"","2670","image-button-response","27","null","221786","686d62ec803998618dffb3d1","686d77018dc09d30cb160294","5f4c810ebfcaa8194f5d8c14","false","false","Airplane","https://kisumu-drawings.s3-us-west-1.amazonaws.com/15-011.png","11","Watch","15-011.png"
"","2237","image-button-response","28","null","224531","686d62ec803998618dffb3d1","686d77018dc09d30cb160294","5f4c810ebfcaa8194f5d8c14","false","false","Hat","https://kisumu-drawings.s3-us-west-1.amazonaws.com/40-013.png","11","Watch","40-013.png"
"","2887","image-button-response","29","null","227922","686d62ec803998618dffb3d1","686d77018dc09d30cb160294","5f4c810ebfcaa8194f5d8c14","false","false","Chair","https://kisumu-drawings.s3-us-west-1.amazonaws.com/119-013.png","5","Chair","119-013.png"
"","1730","image-button-response","30","null","230155","686d62ec803998618dffb3d1","686d77018dc09d30cb160294","5f4c810ebfcaa8194f5d8c14","false","false","Watch","https://kisumu-drawings.s3-us-west-1.amazonaws.com/36-007.png","11","Watch","36-007.png"
"","1825","image-button-response","31","null","232482","686d62ec803998618dffb3d1","686d77018dc09d30cb160294","5f4c810ebfcaa8194f5d8c14","false","false","House","https://kisumu-drawings.s3-us-west-1.amazonaws.com/43-014.png","8","House","43-014.png"
"","2838","image-button-response","32","null","235827","686d62ec803998618dffb3d1","686d77018dc09d30cb160294","5f4c810ebfcaa8194f5d8c14","false","false","Tree","https://kisumu-drawings.s3-us-west-1.amazonaws.com/76-006.png","10","Tree","76-006.png"
"","3198","image-button-response","33","null","239538","686d62ec803998618dffb3d1","686d77018dc09d30cb160294","5f4c810ebfcaa8194f5d8c14","false","false","Chair","https://kisumu-drawings.s3-us-west-1.amazonaws.com/38-007.png","5","Chair","38-007.png"
"","9342","image-button-response","34","null","249395","686d62ec803998618dffb3d1","686d77018dc09d30cb160294","5f4c810ebfcaa8194f5d8c14","false","false","Cup","https://kisumu-drawings.s3-us-west-1.amazonaws.com/18-015.png","7","Hat","18-015.png"
"","6621","image-button-response","35","null","256522","686d62ec803998618dffb3d1","686d77018dc09d30cb160294","5f4c810ebfcaa8194f5d8c14","false","false","Bird","https://kisumu-drawings.s3-us-west-1.amazonaws.com/112-011.png","4","Cat","112-011.png"
"","2154","image-button-response","36","null","259187","686d62ec803998618dffb3d1","686d77018dc09d30cb160294","5f4c810ebfcaa8194f5d8c14","false","false","Cat","https://kisumu-drawings.s3-us-west-1.amazonaws.com/114-013.png","4","Cat","114-013.png"
"","6361","image-button-response","37","null","266050","686d62ec803998618dffb3d1","686d77018dc09d30cb160294","5f4c810ebfcaa8194f5d8c14","false","false","Cat","https://kisumu-drawings.s3-us-west-1.amazonaws.com/13-013.png","1","Bicycle","13-013.png"
"","2630","image-button-response","38","null","269194","686d62ec803998618dffb3d1","686d77018dc09d30cb160294","5f4c810ebfcaa8194f5d8c14","false","false","Watch","https://kisumu-drawings.s3-us-west-1.amazonaws.com/46-011.png","11","Watch","46-011.png"
"","3017","image-button-response","39","null","272714","686d62ec803998618dffb3d1","686d77018dc09d30cb160294","5f4c810ebfcaa8194f5d8c14","false","false","Hat","https://kisumu-drawings.s3-us-west-1.amazonaws.com/18-007.png","7","Hat","18-007.png"
"","4161","image-button-response","40","null","277386","686d62ec803998618dffb3d1","686d77018dc09d30cb160294","5f4c810ebfcaa8194f5d8c14","false","false","Bicycle","https://kisumu-drawings.s3-us-west-1.amazonaws.com/47-009.png","3","Car","47-009.png"
"","4540","image-button-response","41","null","282442","686d62ec803998618dffb3d1","686d77018dc09d30cb160294","5f4c810ebfcaa8194f5d8c14","false","false","Hat","https://kisumu-drawings.s3-us-west-1.amazonaws.com/72-011.png","5","Chair","72-011.png"
"","7639","image-button-response","42","null","290587","686d62ec803998618dffb3d1","686d77018dc09d30cb160294","5f4c810ebfcaa8194f5d8c14","false","false","Bicycle","https://kisumu-drawings.s3-us-west-1.amazonaws.com/79-013.png","2","Bird","79-013.png"
"","7422","image-button-response","43","null","298514","686d62ec803998618dffb3d1","686d77018dc09d30cb160294","5f4c810ebfcaa8194f5d8c14","false","false","Rabbit","https://kisumu-drawings.s3-us-west-1.amazonaws.com/18-006.png","10","Tree","18-006.png"
"","4695","image-button-response","44","null","303715","686d62ec803998618dffb3d1","686d77018dc09d30cb160294","5f4c810ebfcaa8194f5d8c14","false","false","Bird","https://kisumu-drawings.s3-us-west-1.amazonaws.com/45-016.png","2","Bird","45-016.png"
"","2620","image-button-response","45","null","306842","686d62ec803998618dffb3d1","686d77018dc09d30cb160294","5f4c810ebfcaa8194f5d8c14","false","false","Hat","https://kisumu-drawings.s3-us-west-1.amazonaws.com/46-014.png","0","Airplane","46-014.png"
"","4186","image-button-response","46","null","311538","686d62ec803998618dffb3d1","686d77018dc09d30cb160294","5f4c810ebfcaa8194f5d8c14","false","false","Bicycle","https://kisumu-drawings.s3-us-west-1.amazonaws.com/19-014.png","5","Chair","19-014.png"
"","1959","image-button-response","47","null","314010","686d62ec803998618dffb3d1","686d77018dc09d30cb160294","5f4c810ebfcaa8194f5d8c14","false","false","Chair","https://kisumu-drawings.s3-us-west-1.amazonaws.com/86-008.png","5","Chair","86-008.png"
"","1591","image-button-response","48","null","316115","686d62ec803998618dffb3d1","686d77018dc09d30cb160294","5f4c810ebfcaa8194f5d8c14","false","false","Watch","https://kisumu-drawings.s3-us-west-1.amazonaws.com/62-005.png","11","Watch","62-005.png"
"","1352","image-button-response","49","null","317970","686d62ec803998618dffb3d1","686d77018dc09d30cb160294","5f4c810ebfcaa8194f5d8c14","false","false","Watch","https://kisumu-drawings.s3-us-west-1.amazonaws.com/92-008.png","11","Watch","92-008.png"
"","5961","image-button-response","50","null","324443","686d62ec803998618dffb3d1","686d77018dc09d30cb160294","5f4c810ebfcaa8194f5d8c14","false","false","Bicycle","https://kisumu-drawings.s3-us-west-1.amazonaws.com/39-009.png","5","Chair","39-009.png"
"","2782","image-button-response","51","null","327730","686d62ec803998618dffb3d1","686d77018dc09d30cb160294","5f4c810ebfcaa8194f5d8c14","false","false","Bird","https://kisumu-drawings.s3-us-west-1.amazonaws.com/37-006.png","2","Bird","37-006.png"
"","2844","image-button-response","52","null","331090","686d62ec803998618dffb3d1","686d77018dc09d30cb160294","5f4c810ebfcaa8194f5d8c14","false","false","Cat","https://kisumu-drawings.s3-us-west-1.amazonaws.com/78-010.png","4","Cat","78-010.png"
"","3309","image-button-response","53","null","334914","686d62ec803998618dffb3d1","686d77018dc09d30cb160294","5f4c810ebfcaa8194f5d8c14","false","false","Airplane","https://kisumu-drawings.s3-us-west-1.amazonaws.com/100-014.png","0","Airplane","100-014.png"
"","11790","image-button-response","54","null","347218","686d62ec803998618dffb3d1","686d77018dc09d30cb160294","5f4c810ebfcaa8194f5d8c14","false","false","Watch","https://kisumu-drawings.s3-us-west-1.amazonaws.com/11-016.png","9","Rabbit","11-016.png"
"","4245","image-button-response","55","null","351978","686d62ec803998618dffb3d1","686d77018dc09d30cb160294","5f4c810ebfcaa8194f5d8c14","false","false","Cup","https://kisumu-drawings.s3-us-west-1.amazonaws.com/72-010.png","6","Cup","72-010.png"
"","5484","image-button-response","56","null","357978","686d62ec803998618dffb3d1","686d77018dc09d30cb160294","5f4c810ebfcaa8194f5d8c14","false","false","Rabbit","https://kisumu-drawings.s3-us-west-1.amazonaws.com/86-016.png","9","Rabbit","86-016.png"
"","2611","image-button-response","57","null","361099","686d62ec803998618dffb3d1","686d77018dc09d30cb160294","5f4c810ebfcaa8194f5d8c14","false","false","Rabbit","https://kisumu-drawings.s3-us-west-1.amazonaws.com/46-016.png","4","Cat","46-016.png"
"","3030","image-button-response","58","null","364643","686d62ec803998618dffb3d1","686d77018dc09d30cb160294","5f4c810ebfcaa8194f5d8c14","false","false","Cat","https://kisumu-drawings.s3-us-west-1.amazonaws.com/39-007.png","4","Cat","39-007.png"
"","2396","image-button-response","59","null","367554","686d62ec803998618dffb3d1","686d77018dc09d30cb160294","5f4c810ebfcaa8194f5d8c14","false","false","Hat","https://kisumu-drawings.s3-us-west-1.amazonaws.com/88-011.png","6","Cup","88-011.png"
"","3078","image-button-response","60","null","371146","686d62ec803998618dffb3d1","686d77018dc09d30cb160294","5f4c810ebfcaa8194f5d8c14","false","false","Rabbit","https://kisumu-drawings.s3-us-west-1.amazonaws.com/80-016.png","9","Rabbit","80-016.png"
"","2103","image-button-response","61","null","373762","686d62ec803998618dffb3d1","686d77018dc09d30cb160294","5f4c810ebfcaa8194f5d8c14","false","false","Tree","https://kisumu-drawings.s3-us-west-1.amazonaws.com/82-010.png","10","Tree","82-010.png"
"","1681","image-button-response","62","null","375946","686d62ec803998618dffb3d1","686d77018dc09d30cb160294","5f4c810ebfcaa8194f5d8c14","false","false","Tree","https://kisumu-drawings.s3-us-west-1.amazonaws.com/46-005.png","10","Tree","46-005.png"
"","2251","image-button-response","63","null","378707","686d62ec803998618dffb3d1","686d77018dc09d30cb160294","5f4c810ebfcaa8194f5d8c14","false","false","Car","https://kisumu-drawings.s3-us-west-1.amazonaws.com/80-011.png","3","Car","80-011.png"
"","2375","image-button-response","64","null","381586","686d62ec803998618dffb3d1","686d77018dc09d30cb160294","5f4c810ebfcaa8194f5d8c14","false","false","House","https://kisumu-drawings.s3-us-west-1.amazonaws.com/79-016.png","8","House","79-016.png"
"","2329","image-button-response","65","null","384418","686d62ec803998618dffb3d1","686d77018dc09d30cb160294","5f4c810ebfcaa8194f5d8c14","false","false","Car","https://kisumu-drawings.s3-us-west-1.amazonaws.com/45-005.png","3","Car","45-005.png"
"","1742","image-button-response","66","null","386674","686d62ec803998618dffb3d1","686d77018dc09d30cb160294","5f4c810ebfcaa8194f5d8c14","false","false","Cup","https://kisumu-drawings.s3-us-west-1.amazonaws.com/50-011.png","6","Cup","50-011.png"
"","1407","image-button-response","67","null","388594","686d62ec803998618dffb3d1","686d77018dc09d30cb160294","5f4c810ebfcaa8194f5d8c14","true","false","airplane","stimuli/catch_trials/0_airplane_catch.jpg","0","Airplane",""
"","3035","image-button-response","68","null","392146","686d62ec803998618dffb3d1","686d77018dc09d30cb160294","5f4c810ebfcaa8194f5d8c14","false","false","Airplane","https://kisumu-drawings.s3-us-west-1.amazonaws.com/33-005.png","10","Tree","33-005.png"
"","4136","image-button-response","69","null","396786","686d62ec803998618dffb3d1","686d77018dc09d30cb160294","5f4c810ebfcaa8194f5d8c14","false","false","Tree","https://kisumu-drawings.s3-us-west-1.amazonaws.com/39-013.png","1","Bicycle","39-013.png"
"","2616","image-button-response","70","null","399906","686d62ec803998618dffb3d1","686d77018dc09d30cb160294","5f4c810ebfcaa8194f5d8c14","false","false","Airplane","https://kisumu-drawings.s3-us-west-1.amazonaws.com/78-008.png","0","Airplane","78-008.png"
"","3565","image-button-response","71","null","403986","686d62ec803998618dffb3d1","686d77018dc09d30cb160294","5f4c810ebfcaa8194f5d8c14","false","false","Hat","https://kisumu-drawings.s3-us-west-1.amazonaws.com/120-007.png","10","Tree","120-007.png"
"","10637","image-button-response","72","null","415130","686d62ec803998618dffb3d1","686d77018dc09d30cb160294","5f4c810ebfcaa8194f5d8c14","false","false","Rabbit","https://kisumu-drawings.s3-us-west-1.amazonaws.com/40-016.png","3","Car","40-016.png"
"","3567","image-button-response","73","null","419202","686d62ec803998618dffb3d1","686d77018dc09d30cb160294","5f4c810ebfcaa8194f5d8c14","false","false","Bird","https://kisumu-drawings.s3-us-west-1.amazonaws.com/16-012.png","1","Bicycle","16-012.png"
"","2333","image-button-response","74","null","422043","686d62ec803998618dffb3d1","686d77018dc09d30cb160294","5f4c810ebfcaa8194f5d8c14","false","false","Rabbit","https://kisumu-drawings.s3-us-west-1.amazonaws.com/120-012.png","4","Cat","120-012.png"
"","5604","image-button-response","75","null","428155","686d62ec803998618dffb3d1","686d77018dc09d30cb160294","5f4c810ebfcaa8194f5d8c14","false","false","Chair","https://kisumu-drawings.s3-us-west-1.amazonaws.com/42-007.png","8","House","42-007.png"
