"view_history","rt","trial_type","trial_index","plugin_version","time_elapsed","study_id","session_id","participant_id","catch_trial","prep_trial","sketcher_category","stimulus","response","response_category","sketch_id"
"[{""page_index"":0,""viewing_time"":57571},{""page_index"":1,""viewing_time"":1008},{""page_index"":2,""viewing_time"":1672},{""page_index"":3,""viewing_time"":1256}]","61507","instructions","0","null","61511","686d62ec803998618dffb3d1","686d85dcf5747ba6b4f71234","606492360e422d12dc63000e","","","","","","",""
"","2347","image-button-response","1","null","64871","686d62ec803998618dffb3d1","686d85dcf5747ba6b4f71234","606492360e422d12dc63000e","false","true","car","stimuli/prep_trials/1_car_prep.png","3","Car",""
"","1881","image-button-response","2","null","67255","686d62ec803998618dffb3d1","686d85dcf5747ba6b4f71234","606492360e422d12dc63000e","false","true","cat","stimuli/prep_trials/0_cat_prep.jpg","4","Cat",""
"","5191","image-button-response","3","null","72959","686d62ec803998618dffb3d1","686d85dcf5747ba6b4f71234","606492360e422d12dc63000e","false","false","Rabbit","https://kisumu-drawings.s3-us-west-1.amazonaws.com/15-006.png","6","Cup","15-006.png"
"","1239","image-button-response","4","null","74711","686d62ec803998618dffb3d1","686d85dcf5747ba6b4f71234","606492360e422d12dc63000e","false","false","Airplane","https://kisumu-drawings.s3-us-west-1.amazonaws.com/61-014.png","0","Airplane","61-014.png"
"","5801","image-button-response","5","null","81015","686d62ec803998618dffb3d1","686d85dcf5747ba6b4f71234","606492360e422d12dc63000e","false","false","Watch","https://kisumu-drawings.s3-us-west-1.amazonaws.com/39-014.png","2","Bird","39-014.png"
"","4880","image-button-response","6","null","86399","686d62ec803998618dffb3d1","686d85dcf5747ba6b4f71234","606492360e422d12dc63000e","false","false","Hat","https://kisumu-drawings.s3-us-west-1.amazonaws.com/101-008.png","0","Airplane","101-008.png"
"","5176","image-button-response","7","null","92079","686d62ec803998618dffb3d1","686d85dcf5747ba6b4f71234","606492360e422d12dc63000e","false","false","Bird","https://kisumu-drawings.s3-us-west-1.amazonaws.com/112-011.png","4","Cat","112-011.png"
"","5115","image-button-response","8","null","97703","686d62ec803998618dffb3d1","686d85dcf5747ba6b4f71234","606492360e422d12dc63000e","false","false","Bird","https://kisumu-drawings.s3-us-west-1.amazonaws.com/98-013.png","0","Airplane","98-013.png"
"","8537","image-button-response","9","null","106751","686d62ec803998618dffb3d1","686d85dcf5747ba6b4f71234","606492360e422d12dc63000e","false","false","Watch","https://kisumu-drawings.s3-us-west-1.amazonaws.com/74-013.png","11","Watch","74-013.png"
"","6551","image-button-response","10","null","113807","686d62ec803998618dffb3d1","686d85dcf5747ba6b4f71234","606492360e422d12dc63000e","false","false","Cup","https://kisumu-drawings.s3-us-west-1.amazonaws.com/87-014.png","6","Cup","87-014.png"
"","7241","image-button-response","11","null","121550","686d62ec803998618dffb3d1","686d85dcf5747ba6b4f71234","606492360e422d12dc63000e","false","false","Tree","https://kisumu-drawings.s3-us-west-1.amazonaws.com/18-016.png","11","Watch","18-016.png"
"","1945","image-button-response","12","null","123998","686d62ec803998618dffb3d1","686d85dcf5747ba6b4f71234","606492360e422d12dc63000e","true","false","airplane","stimuli/catch_trials/0_airplane_catch.jpg","0","Airplane",""
"","8658","image-button-response","13","null","133158","686d62ec803998618dffb3d1","686d85dcf5747ba6b4f71234","606492360e422d12dc63000e","false","false","Chair","https://kisumu-drawings.s3-us-west-1.amazonaws.com/100-009.png","5","Chair","100-009.png"
"","3076","image-button-response","14","null","136750","686d62ec803998618dffb3d1","686d85dcf5747ba6b4f71234","606492360e422d12dc63000e","false","false","Airplane","https://kisumu-drawings.s3-us-west-1.amazonaws.com/31-005.png","0","Airplane","31-005.png"
"","4657","image-button-response","15","null","141910","686d62ec803998618dffb3d1","686d85dcf5747ba6b4f71234","606492360e422d12dc63000e","false","false","Airplane","https://kisumu-drawings.s3-us-west-1.amazonaws.com/82-005.png","0","Airplane","82-005.png"
"","3352","image-button-response","16","null","145774","686d62ec803998618dffb3d1","686d85dcf5747ba6b4f71234","606492360e422d12dc63000e","false","false","Bicycle","https://kisumu-drawings.s3-us-west-1.amazonaws.com/44-007.png","0","Airplane","44-007.png"
"","5247","image-button-response","17","null","151526","686d62ec803998618dffb3d1","686d85dcf5747ba6b4f71234","606492360e422d12dc63000e","false","false","Hat","https://kisumu-drawings.s3-us-west-1.amazonaws.com/39-016.png","10","Tree","39-016.png"
"","2240","image-button-response","18","null","154270","686d62ec803998618dffb3d1","686d85dcf5747ba6b4f71234","606492360e422d12dc63000e","false","false","Chair","https://kisumu-drawings.s3-us-west-1.amazonaws.com/76-009.png","5","Chair","76-009.png"
"","2121","image-button-response","19","null","156894","686d62ec803998618dffb3d1","686d85dcf5747ba6b4f71234","606492360e422d12dc63000e","false","false","House","https://kisumu-drawings.s3-us-west-1.amazonaws.com/31-013.png","2","Bird","31-013.png"
"","3912","image-button-response","20","null","161318","686d62ec803998618dffb3d1","686d85dcf5747ba6b4f71234","606492360e422d12dc63000e","false","false","Rabbit","https://kisumu-drawings.s3-us-west-1.amazonaws.com/115-014.png","9","Rabbit","115-014.png"
"","2597","image-button-response","21","null","164431","686d62ec803998618dffb3d1","686d85dcf5747ba6b4f71234","606492360e422d12dc63000e","false","false","Cup","https://kisumu-drawings.s3-us-west-1.amazonaws.com/79-011.png","6","Cup","79-011.png"
"","8242","image-button-response","22","null","173182","686d62ec803998618dffb3d1","686d85dcf5747ba6b4f71234","606492360e422d12dc63000e","false","false","Bird","https://kisumu-drawings.s3-us-west-1.amazonaws.com/15-010.png","6","Cup","15-010.png"
"","4595","image-button-response","23","null","178286","686d62ec803998618dffb3d1","686d85dcf5747ba6b4f71234","606492360e422d12dc63000e","false","false","Chair","https://kisumu-drawings.s3-us-west-1.amazonaws.com/114-010.png","5","Chair","114-010.png"
"","1913","image-button-response","24","null","180710","686d62ec803998618dffb3d1","686d85dcf5747ba6b4f71234","606492360e422d12dc63000e","false","false","Watch","https://kisumu-drawings.s3-us-west-1.amazonaws.com/54-012.png","11","Watch","54-012.png"
"","3358","image-button-response","25","null","184574","686d62ec803998618dffb3d1","686d85dcf5747ba6b4f71234","606492360e422d12dc63000e","false","false","Cup","https://kisumu-drawings.s3-us-west-1.amazonaws.com/120-006.png","6","Cup","120-006.png"
"","2090","image-button-response","26","null","187166","686d62ec803998618dffb3d1","686d85dcf5747ba6b4f71234","606492360e422d12dc63000e","false","false","Cup","https://kisumu-drawings.s3-us-west-1.amazonaws.com/48-015.png","6","Cup","48-015.png"
"","3940","image-button-response","27","null","191614","686d62ec803998618dffb3d1","686d85dcf5747ba6b4f71234","606492360e422d12dc63000e","false","false","Chair","https://kisumu-drawings.s3-us-west-1.amazonaws.com/13-012.png","8","House","13-012.png"
"","3131","image-button-response","28","null","195254","686d62ec803998618dffb3d1","686d85dcf5747ba6b4f71234","606492360e422d12dc63000e","false","false","Bicycle","https://kisumu-drawings.s3-us-west-1.amazonaws.com/36-015.png","1","Bicycle","36-015.png"
"","3277","image-button-response","29","null","199037","686d62ec803998618dffb3d1","686d85dcf5747ba6b4f71234","606492360e422d12dc63000e","false","false","Hat","https://kisumu-drawings.s3-us-west-1.amazonaws.com/17-015.png","8","House","17-015.png"
"","1759","image-button-response","30","null","201310","686d62ec803998618dffb3d1","686d85dcf5747ba6b4f71234","606492360e422d12dc63000e","false","false","Car","https://kisumu-drawings.s3-us-west-1.amazonaws.com/80-011.png","3","Car","80-011.png"
"","2111","image-button-response","31","null","203926","686d62ec803998618dffb3d1","686d85dcf5747ba6b4f71234","606492360e422d12dc63000e","false","false","Watch","https://kisumu-drawings.s3-us-west-1.amazonaws.com/101-015.png","11","Watch","101-015.png"
"","4534","image-button-response","32","null","208974","686d62ec803998618dffb3d1","686d85dcf5747ba6b4f71234","606492360e422d12dc63000e","false","false","Cup","https://kisumu-drawings.s3-us-west-1.amazonaws.com/6-013.png","4","Cat","6-013.png"
"","2842","image-button-response","33","null","212325","686d62ec803998618dffb3d1","686d85dcf5747ba6b4f71234","606492360e422d12dc63000e","false","false","Airplane","https://kisumu-drawings.s3-us-west-1.amazonaws.com/45-014.png","0","Airplane","45-014.png"
"","3085","image-button-response","34","null","215918","686d62ec803998618dffb3d1","686d85dcf5747ba6b4f71234","606492360e422d12dc63000e","false","false","Car","https://kisumu-drawings.s3-us-west-1.amazonaws.com/54-005.png","3","Car","54-005.png"
"","1969","image-button-response","35","null","218398","686d62ec803998618dffb3d1","686d85dcf5747ba6b4f71234","606492360e422d12dc63000e","false","false","Tree","https://kisumu-drawings.s3-us-west-1.amazonaws.com/112-005.png","7","Hat","112-005.png"
"","1974","image-button-response","36","null","220885","686d62ec803998618dffb3d1","686d85dcf5747ba6b4f71234","606492360e422d12dc63000e","false","false","House","https://kisumu-drawings.s3-us-west-1.amazonaws.com/88-010.png","8","House","88-010.png"
"","4340","image-button-response","37","null","225742","686d62ec803998618dffb3d1","686d85dcf5747ba6b4f71234","606492360e422d12dc63000e","false","false","Watch","https://kisumu-drawings.s3-us-west-1.amazonaws.com/10-012.png","11","Watch","10-012.png"
"","1867","image-button-response","38","null","228110","686d62ec803998618dffb3d1","686d85dcf5747ba6b4f71234","606492360e422d12dc63000e","false","false","House","https://kisumu-drawings.s3-us-west-1.amazonaws.com/107-006.png","8","House","107-006.png"
"","3705","image-button-response","39","null","232317","686d62ec803998618dffb3d1","686d85dcf5747ba6b4f71234","606492360e422d12dc63000e","false","false","Tree","https://kisumu-drawings.s3-us-west-1.amazonaws.com/43-012.png","7","Hat","43-012.png"
"","4820","image-button-response","40","null","237645","686d62ec803998618dffb3d1","686d85dcf5747ba6b4f71234","606492360e422d12dc63000e","false","false","Rabbit","https://kisumu-drawings.s3-us-west-1.amazonaws.com/43-015.png","2","Bird","43-015.png"
"","1574","image-button-response","41","null","239733","686d62ec803998618dffb3d1","686d85dcf5747ba6b4f71234","606492360e422d12dc63000e","false","false","Bicycle","https://kisumu-drawings.s3-us-west-1.amazonaws.com/84-009.png","1","Bicycle","84-009.png"
"","1878","image-button-response","42","null","242125","686d62ec803998618dffb3d1","686d85dcf5747ba6b4f71234","606492360e422d12dc63000e","false","false","Bird","https://kisumu-drawings.s3-us-west-1.amazonaws.com/77-011.png","2","Bird","77-011.png"
"","1612","image-button-response","43","null","244245","686d62ec803998618dffb3d1","686d85dcf5747ba6b4f71234","606492360e422d12dc63000e","false","false","Bicycle","https://kisumu-drawings.s3-us-west-1.amazonaws.com/107-015.png","1","Bicycle","107-015.png"
"","1963","image-button-response","44","null","246709","686d62ec803998618dffb3d1","686d85dcf5747ba6b4f71234","606492360e422d12dc63000e","false","false","House","https://kisumu-drawings.s3-us-west-1.amazonaws.com/80-005.png","8","House","80-005.png"
"","3075","image-button-response","45","null","250293","686d62ec803998618dffb3d1","686d85dcf5747ba6b4f71234","606492360e422d12dc63000e","false","false","Airplane","https://kisumu-drawings.s3-us-west-1.amazonaws.com/11-010.png","2","Bird","11-010.png"
"","2124","image-button-response","46","null","252925","686d62ec803998618dffb3d1","686d85dcf5747ba6b4f71234","606492360e422d12dc63000e","false","false","Chair","https://kisumu-drawings.s3-us-west-1.amazonaws.com/48-007.png","1","Bicycle","48-007.png"
"","2000","image-button-response","47","null","255429","686d62ec803998618dffb3d1","686d85dcf5747ba6b4f71234","606492360e422d12dc63000e","false","false","Tree","https://kisumu-drawings.s3-us-west-1.amazonaws.com/31-015.png","2","Bird","31-015.png"
"","3409","image-button-response","48","null","259341","686d62ec803998618dffb3d1","686d85dcf5747ba6b4f71234","606492360e422d12dc63000e","false","false","Cat","https://kisumu-drawings.s3-us-west-1.amazonaws.com/120-015.png","4","Cat","120-015.png"
"","2196","image-button-response","49","null","262053","686d62ec803998618dffb3d1","686d85dcf5747ba6b4f71234","606492360e422d12dc63000e","false","false","Bird","https://kisumu-drawings.s3-us-west-1.amazonaws.com/37-006.png","0","Airplane","37-006.png"
"","3082","image-button-response","50","null","265645","686d62ec803998618dffb3d1","686d85dcf5747ba6b4f71234","606492360e422d12dc63000e","false","false","Car","https://kisumu-drawings.s3-us-west-1.amazonaws.com/40-005.png","3","Car","40-005.png"
"","4030","image-button-response","51","null","270181","686d62ec803998618dffb3d1","686d85dcf5747ba6b4f71234","606492360e422d12dc63000e","false","false","Rabbit","https://kisumu-drawings.s3-us-west-1.amazonaws.com/39-012.png","2","Bird","39-012.png"
"","3806","image-button-response","52","null","274493","686d62ec803998618dffb3d1","686d85dcf5747ba6b4f71234","606492360e422d12dc63000e","false","false","Bicycle","https://kisumu-drawings.s3-us-west-1.amazonaws.com/18-012.png","6","Cup","18-012.png"
"","2784","image-button-response","53","null","277781","686d62ec803998618dffb3d1","686d85dcf5747ba6b4f71234","606492360e422d12dc63000e","false","false","Car","https://kisumu-drawings.s3-us-west-1.amazonaws.com/115-015.png","3","Car","115-015.png"
"","1622","image-button-response","54","null","279917","686d62ec803998618dffb3d1","686d85dcf5747ba6b4f71234","606492360e422d12dc63000e","false","false","Car","https://kisumu-drawings.s3-us-west-1.amazonaws.com/96-013.png","3","Car","96-013.png"
"","2154","image-button-response","55","null","282573","686d62ec803998618dffb3d1","686d85dcf5747ba6b4f71234","606492360e422d12dc63000e","false","false","Hat","https://kisumu-drawings.s3-us-west-1.amazonaws.com/48-016.png","6","Cup","48-016.png"
"","3408","image-button-response","56","null","286493","686d62ec803998618dffb3d1","686d85dcf5747ba6b4f71234","606492360e422d12dc63000e","false","false","Rabbit","https://kisumu-drawings.s3-us-west-1.amazonaws.com/75-016.png","4","Cat","75-016.png"
"","2259","image-button-response","57","null","289269","686d62ec803998618dffb3d1","686d85dcf5747ba6b4f71234","606492360e422d12dc63000e","false","false","Car","https://kisumu-drawings.s3-us-west-1.amazonaws.com/12-010.png","3","Car","12-010.png"
"","2325","image-button-response","58","null","292109","686d62ec803998618dffb3d1","686d85dcf5747ba6b4f71234","606492360e422d12dc63000e","false","false","Cat","https://kisumu-drawings.s3-us-west-1.amazonaws.com/42-008.png","4","Cat","42-008.png"
"","2028","image-button-response","59","null","294645","686d62ec803998618dffb3d1","686d85dcf5747ba6b4f71234","606492360e422d12dc63000e","false","false","House","https://kisumu-drawings.s3-us-west-1.amazonaws.com/15-005.png","7","Hat","15-005.png"
"","1614","image-button-response","60","null","296765","686d62ec803998618dffb3d1","686d85dcf5747ba6b4f71234","606492360e422d12dc63000e","false","false","Hat","https://kisumu-drawings.s3-us-west-1.amazonaws.com/87-011.png","7","Hat","87-011.png"
"","2494","image-button-response","61","null","299773","686d62ec803998618dffb3d1","686d85dcf5747ba6b4f71234","606492360e422d12dc63000e","false","false","Hat","https://kisumu-drawings.s3-us-west-1.amazonaws.com/75-013.png","7","Hat","75-013.png"
"","1730","image-button-response","62","null","302005","686d62ec803998618dffb3d1","686d85dcf5747ba6b4f71234","606492360e422d12dc63000e","false","false","Cat","https://kisumu-drawings.s3-us-west-1.amazonaws.com/93-007.png","4","Cat","93-007.png"
"","2488","image-button-response","63","null","304996","686d62ec803998618dffb3d1","686d85dcf5747ba6b4f71234","606492360e422d12dc63000e","false","false","Cat","https://kisumu-drawings.s3-us-west-1.amazonaws.com/11-008.png","3","Car","11-008.png"
"","1724","image-button-response","64","null","307229","686d62ec803998618dffb3d1","686d85dcf5747ba6b4f71234","606492360e422d12dc63000e","false","false","Chair","https://kisumu-drawings.s3-us-west-1.amazonaws.com/37-013.png","7","Hat","37-013.png"
"","1210","image-button-response","65","null","308941","686d62ec803998618dffb3d1","686d85dcf5747ba6b4f71234","606492360e422d12dc63000e","false","false","Cup","https://kisumu-drawings.s3-us-west-1.amazonaws.com/26-012.png","7","Hat","26-012.png"
"","1229","image-button-response","66","null","310676","686d62ec803998618dffb3d1","686d85dcf5747ba6b4f71234","606492360e422d12dc63000e","false","false","Bicycle","https://kisumu-drawings.s3-us-west-1.amazonaws.com/61-005.png","1","Bicycle","61-005.png"
"","2958","image-button-response","67","null","314149","686d62ec803998618dffb3d1","686d85dcf5747ba6b4f71234","606492360e422d12dc63000e","false","false","Watch","https://kisumu-drawings.s3-us-west-1.amazonaws.com/82-008.png","11","Watch","82-008.png"
"","1964","image-button-response","68","null","316628","686d62ec803998618dffb3d1","686d85dcf5747ba6b4f71234","606492360e422d12dc63000e","false","false","Tree","https://kisumu-drawings.s3-us-west-1.amazonaws.com/72-006.png","10","Tree","72-006.png"
"","4695","image-button-response","69","null","321836","686d62ec803998618dffb3d1","686d85dcf5747ba6b4f71234","606492360e422d12dc63000e","false","false","Cat","https://kisumu-drawings.s3-us-west-1.amazonaws.com/39-007.png","10","Tree","39-007.png"
"","1520","image-button-response","70","null","323861","686d62ec803998618dffb3d1","686d85dcf5747ba6b4f71234","606492360e422d12dc63000e","false","false","House","https://kisumu-drawings.s3-us-west-1.amazonaws.com/44-009.png","8","House","44-009.png"
"","2417","image-button-response","71","null","326788","686d62ec803998618dffb3d1","686d85dcf5747ba6b4f71234","606492360e422d12dc63000e","false","false","Tree","https://kisumu-drawings.s3-us-west-1.amazonaws.com/98-010.png","10","Tree","98-010.png"
"","1609","image-button-response","72","null","328908","686d62ec803998618dffb3d1","686d85dcf5747ba6b4f71234","606492360e422d12dc63000e","false","false","Cat","https://kisumu-drawings.s3-us-west-1.amazonaws.com/78-010.png","4","Cat","78-010.png"
"","3210","image-button-response","73","null","332628","686d62ec803998618dffb3d1","686d85dcf5747ba6b4f71234","606492360e422d12dc63000e","false","false","Bird","https://kisumu-drawings.s3-us-west-1.amazonaws.com/55-007.png","2","Bird","55-007.png"
"","2248","image-button-response","74","null","335380","686d62ec803998618dffb3d1","686d85dcf5747ba6b4f71234","606492360e422d12dc63000e","false","false","Rabbit","https://kisumu-drawings.s3-us-west-1.amazonaws.com/87-013.png","2","Bird","87-013.png"
"","1626","image-button-response","75","null","337508","686d62ec803998618dffb3d1","686d85dcf5747ba6b4f71234","606492360e422d12dc63000e","false","false","Airplane","https://kisumu-drawings.s3-us-west-1.amazonaws.com/118-010.png","0","Airplane","118-010.png"
