"view_history","rt","trial_type","trial_index","plugin_version","time_elapsed","study_id","session_id","participant_id","catch_trial","prep_trial","sketcher_category","stimulus","response","response_category","sketch_id"
"[{""page_index"":0,""viewing_time"":11733},{""page_index"":1,""viewing_time"":3732},{""page_index"":2,""viewing_time"":5313},{""page_index"":3,""viewing_time"":7329}]","28107","instructions","0","null","28113","686d62ec803998618dffb3d1","686dbdaa2b87712bdaf6082b","6672bf56d51710391ce2164d","","","","","","",""
"","2971","image-button-response","1","null","32087","686d62ec803998618dffb3d1","686dbdaa2b87712bdaf6082b","6672bf56d51710391ce2164d","false","true","car","stimuli/prep_trials/1_car_prep.png","3","Car",""
"","2880","image-button-response","2","null","35470","686d62ec803998618dffb3d1","686dbdaa2b87712bdaf6082b","6672bf56d51710391ce2164d","false","true","cat","stimuli/prep_trials/0_cat_prep.jpg","4","Cat",""
"","15317","image-button-response","3","null","51288","686d62ec803998618dffb3d1","686dbdaa2b87712bdaf6082b","6672bf56d51710391ce2164d","false","false","Bicycle","https://kisumu-drawings.s3-us-west-1.amazonaws.com/38-015.png","0","Airplane","38-015.png"
"","26980","image-button-response","4","null","78771","686d62ec803998618dffb3d1","686dbdaa2b87712bdaf6082b","6672bf56d51710391ce2164d","false","false","Airplane","https://kisumu-drawings.s3-us-west-1.amazonaws.com/116-014.png","5","Chair","116-014.png"
"","4346","image-button-response","5","null","83618","686d62ec803998618dffb3d1","686dbdaa2b87712bdaf6082b","6672bf56d51710391ce2164d","false","false","Cup","https://kisumu-drawings.s3-us-west-1.amazonaws.com/50-011.png","6","Cup","50-011.png"
"","8622","image-button-response","6","null","92742","686d62ec803998618dffb3d1","686dbdaa2b87712bdaf6082b","6672bf56d51710391ce2164d","false","false","Car","https://kisumu-drawings.s3-us-west-1.amazonaws.com/115-015.png","1","Bicycle","115-015.png"
"","3995","image-button-response","7","null","97240","686d62ec803998618dffb3d1","686dbdaa2b87712bdaf6082b","6672bf56d51710391ce2164d","false","false","Tree","https://kisumu-drawings.s3-us-west-1.amazonaws.com/87-009.png","2","Bird","87-009.png"
"","3315","image-button-response","8","null","101058","686d62ec803998618dffb3d1","686dbdaa2b87712bdaf6082b","6672bf56d51710391ce2164d","false","false","Rabbit","https://kisumu-drawings.s3-us-west-1.amazonaws.com/118-012.png","2","Bird","118-012.png"
"","4268","image-button-response","9","null","105829","686d62ec803998618dffb3d1","686dbdaa2b87712bdaf6082b","6672bf56d51710391ce2164d","false","false","House","https://kisumu-drawings.s3-us-west-1.amazonaws.com/107-006.png","8","House","107-006.png"
"","3444","image-button-response","10","null","109776","686d62ec803998618dffb3d1","686dbdaa2b87712bdaf6082b","6672bf56d51710391ce2164d","false","false","Airplane","https://kisumu-drawings.s3-us-west-1.amazonaws.com/71-012.png","8","House","71-012.png"
"","5062","image-button-response","11","null","115341","686d62ec803998618dffb3d1","686dbdaa2b87712bdaf6082b","6672bf56d51710391ce2164d","false","false","Bird","https://kisumu-drawings.s3-us-west-1.amazonaws.com/78-009.png","2","Bird","78-009.png"
"","2192","image-button-response","12","null","118035","686d62ec803998618dffb3d1","686dbdaa2b87712bdaf6082b","6672bf56d51710391ce2164d","false","false","Rabbit","https://kisumu-drawings.s3-us-west-1.amazonaws.com/11-006.png","2","Bird","11-006.png"
"","2035","image-button-response","13","null","120571","686d62ec803998618dffb3d1","686dbdaa2b87712bdaf6082b","6672bf56d51710391ce2164d","false","false","Cat","https://kisumu-drawings.s3-us-west-1.amazonaws.com/13-013.png","2","Bird","13-013.png"
"","10127","image-button-response","14","null","131202","686d62ec803998618dffb3d1","686dbdaa2b87712bdaf6082b","6672bf56d51710391ce2164d","false","false","Watch","https://kisumu-drawings.s3-us-west-1.amazonaws.com/77-013.png","10","Tree","77-013.png"
"","3246","image-button-response","15","null","134950","686d62ec803998618dffb3d1","686dbdaa2b87712bdaf6082b","6672bf56d51710391ce2164d","false","false","Airplane","https://kisumu-drawings.s3-us-west-1.amazonaws.com/31-005.png","0","Airplane","31-005.png"
"","3579","image-button-response","16","null","139032","686d62ec803998618dffb3d1","686dbdaa2b87712bdaf6082b","6672bf56d51710391ce2164d","false","false","House","https://kisumu-drawings.s3-us-west-1.amazonaws.com/46-015.png","8","House","46-015.png"
"","3466","image-button-response","17","null","143001","686d62ec803998618dffb3d1","686dbdaa2b87712bdaf6082b","6672bf56d51710391ce2164d","false","false","Cup","https://kisumu-drawings.s3-us-west-1.amazonaws.com/119-006.png","6","Cup","119-006.png"
"","2849","image-button-response","18","null","146353","686d62ec803998618dffb3d1","686dbdaa2b87712bdaf6082b","6672bf56d51710391ce2164d","false","false","Chair","https://kisumu-drawings.s3-us-west-1.amazonaws.com/47-013.png","6","Cup","47-013.png"
"","3786","image-button-response","19","null","150642","686d62ec803998618dffb3d1","686dbdaa2b87712bdaf6082b","6672bf56d51710391ce2164d","false","false","Tree","https://kisumu-drawings.s3-us-west-1.amazonaws.com/11-007.png","9","Rabbit","11-007.png"
"","5794","image-button-response","20","null","156939","686d62ec803998618dffb3d1","686dbdaa2b87712bdaf6082b","6672bf56d51710391ce2164d","false","false","Car","https://kisumu-drawings.s3-us-west-1.amazonaws.com/10-006.png","5","Chair","10-006.png"
"","3591","image-button-response","21","null","161033","686d62ec803998618dffb3d1","686dbdaa2b87712bdaf6082b","6672bf56d51710391ce2164d","false","false","Tree","https://kisumu-drawings.s3-us-west-1.amazonaws.com/54-011.png","10","Tree","54-011.png"
"","4006","image-button-response","22","null","165540","686d62ec803998618dffb3d1","686dbdaa2b87712bdaf6082b","6672bf56d51710391ce2164d","false","false","Hat","https://kisumu-drawings.s3-us-west-1.amazonaws.com/75-013.png","10","Tree","75-013.png"
"","3015","image-button-response","23","null","169058","686d62ec803998618dffb3d1","686dbdaa2b87712bdaf6082b","6672bf56d51710391ce2164d","false","false","Hat","https://kisumu-drawings.s3-us-west-1.amazonaws.com/14-005.png","2","Bird","14-005.png"
"","2767","image-button-response","24","null","172328","686d62ec803998618dffb3d1","686dbdaa2b87712bdaf6082b","6672bf56d51710391ce2164d","false","false","Tree","https://kisumu-drawings.s3-us-west-1.amazonaws.com/28-015.png","10","Tree","28-015.png"
"","2520","image-button-response","25","null","175350","686d62ec803998618dffb3d1","686dbdaa2b87712bdaf6082b","6672bf56d51710391ce2164d","false","false","Bird","https://kisumu-drawings.s3-us-west-1.amazonaws.com/18-013.png","10","Tree","18-013.png"
"","3336","image-button-response","26","null","179189","686d62ec803998618dffb3d1","686dbdaa2b87712bdaf6082b","6672bf56d51710391ce2164d","false","false","Watch","https://kisumu-drawings.s3-us-west-1.amazonaws.com/52-013.png","11","Watch","52-013.png"
"","3275","image-button-response","27","null","182966","686d62ec803998618dffb3d1","686dbdaa2b87712bdaf6082b","6672bf56d51710391ce2164d","false","false","Rabbit","https://kisumu-drawings.s3-us-west-1.amazonaws.com/85-010.png","9","Rabbit","85-010.png"
"","2594","image-button-response","28","null","186063","686d62ec803998618dffb3d1","686dbdaa2b87712bdaf6082b","6672bf56d51710391ce2164d","false","false","Cup","https://kisumu-drawings.s3-us-west-1.amazonaws.com/62-012.png","6","Cup","62-012.png"
"","5052","image-button-response","29","null","191617","686d62ec803998618dffb3d1","686dbdaa2b87712bdaf6082b","6672bf56d51710391ce2164d","false","false","House","https://kisumu-drawings.s3-us-west-1.amazonaws.com/88-010.png","8","House","88-010.png"
"","2542","image-button-response","30","null","194662","686d62ec803998618dffb3d1","686dbdaa2b87712bdaf6082b","6672bf56d51710391ce2164d","false","false","House","https://kisumu-drawings.s3-us-west-1.amazonaws.com/33-008.png","8","House","33-008.png"
"","3449","image-button-response","31","null","198614","686d62ec803998618dffb3d1","686dbdaa2b87712bdaf6082b","6672bf56d51710391ce2164d","false","false","Watch","https://kisumu-drawings.s3-us-west-1.amazonaws.com/1-006.png","2","Bird","1-006.png"
"","2663","image-button-response","32","null","201780","686d62ec803998618dffb3d1","686dbdaa2b87712bdaf6082b","6672bf56d51710391ce2164d","false","false","Cat","https://kisumu-drawings.s3-us-west-1.amazonaws.com/40-009.png","2","Bird","40-009.png"
"","2596","image-button-response","33","null","204880","686d62ec803998618dffb3d1","686dbdaa2b87712bdaf6082b","6672bf56d51710391ce2164d","false","false","Cat","https://kisumu-drawings.s3-us-west-1.amazonaws.com/119-011.png","9","Rabbit","119-011.png"
"","2313","image-button-response","34","null","207694","686d62ec803998618dffb3d1","686dbdaa2b87712bdaf6082b","6672bf56d51710391ce2164d","false","false","Watch","https://kisumu-drawings.s3-us-west-1.amazonaws.com/92-008.png","11","Watch","92-008.png"
"","3248","image-button-response","35","null","211445","686d62ec803998618dffb3d1","686dbdaa2b87712bdaf6082b","6672bf56d51710391ce2164d","false","false","Bicycle","https://kisumu-drawings.s3-us-west-1.amazonaws.com/45-015.png","0","Airplane","45-015.png"
"","2879","image-button-response","36","null","214827","686d62ec803998618dffb3d1","686dbdaa2b87712bdaf6082b","6672bf56d51710391ce2164d","false","false","Bird","https://kisumu-drawings.s3-us-west-1.amazonaws.com/35-005.png","0","Airplane","35-005.png"
"","6178","image-button-response","37","null","221507","686d62ec803998618dffb3d1","686dbdaa2b87712bdaf6082b","6672bf56d51710391ce2164d","false","false","Airplane","https://kisumu-drawings.s3-us-west-1.amazonaws.com/42-016.png","8","House","42-016.png"
"","3137","image-button-response","38","null","225146","686d62ec803998618dffb3d1","686dbdaa2b87712bdaf6082b","6672bf56d51710391ce2164d","false","false","Chair","https://kisumu-drawings.s3-us-west-1.amazonaws.com/14-009.png","2","Bird","14-009.png"
"","2701","image-button-response","39","null","228349","686d62ec803998618dffb3d1","686dbdaa2b87712bdaf6082b","6672bf56d51710391ce2164d","false","false","Airplane","https://kisumu-drawings.s3-us-west-1.amazonaws.com/98-016.png","8","House","98-016.png"
"","2707","image-button-response","40","null","231558","686d62ec803998618dffb3d1","686dbdaa2b87712bdaf6082b","6672bf56d51710391ce2164d","false","false","House","https://kisumu-drawings.s3-us-west-1.amazonaws.com/71-008.png","8","House","71-008.png"
"","2732","image-button-response","41","null","234792","686d62ec803998618dffb3d1","686dbdaa2b87712bdaf6082b","6672bf56d51710391ce2164d","false","false","Cup","https://kisumu-drawings.s3-us-west-1.amazonaws.com/87-014.png","6","Cup","87-014.png"
"","2718","image-button-response","42","null","238012","686d62ec803998618dffb3d1","686dbdaa2b87712bdaf6082b","6672bf56d51710391ce2164d","false","false","Bicycle","https://kisumu-drawings.s3-us-west-1.amazonaws.com/61-005.png","1","Bicycle","61-005.png"
"","4309","image-button-response","43","null","242823","686d62ec803998618dffb3d1","686dbdaa2b87712bdaf6082b","6672bf56d51710391ce2164d","false","false","Car","https://kisumu-drawings.s3-us-west-1.amazonaws.com/96-013.png","3","Car","96-013.png"
"","3158","image-button-response","44","null","246484","686d62ec803998618dffb3d1","686dbdaa2b87712bdaf6082b","6672bf56d51710391ce2164d","false","false","Hat","https://kisumu-drawings.s3-us-west-1.amazonaws.com/115-009.png","0","Airplane","115-009.png"
"","2924","image-button-response","45","null","249909","686d62ec803998618dffb3d1","686dbdaa2b87712bdaf6082b","6672bf56d51710391ce2164d","false","false","Chair","https://kisumu-drawings.s3-us-west-1.amazonaws.com/74-005.png","5","Chair","74-005.png"
"","2434","image-button-response","46","null","252846","686d62ec803998618dffb3d1","686dbdaa2b87712bdaf6082b","6672bf56d51710391ce2164d","false","false","Bird","https://kisumu-drawings.s3-us-west-1.amazonaws.com/49-008.png","0","Airplane","49-008.png"
"","3359","image-button-response","47","null","256708","686d62ec803998618dffb3d1","686dbdaa2b87712bdaf6082b","6672bf56d51710391ce2164d","false","false","Hat","https://kisumu-drawings.s3-us-west-1.amazonaws.com/87-011.png","5","Chair","87-011.png"
"","2813","image-button-response","48","null","260022","686d62ec803998618dffb3d1","686dbdaa2b87712bdaf6082b","6672bf56d51710391ce2164d","false","false","Tree","https://kisumu-drawings.s3-us-west-1.amazonaws.com/79-006.png","10","Tree","79-006.png"
"","2321","image-button-response","49","null","262845","686d62ec803998618dffb3d1","686dbdaa2b87712bdaf6082b","6672bf56d51710391ce2164d","false","false","Rabbit","https://kisumu-drawings.s3-us-west-1.amazonaws.com/36-005.png","4","Cat","36-005.png"
"","1906","image-button-response","50","null","265253","686d62ec803998618dffb3d1","686dbdaa2b87712bdaf6082b","6672bf56d51710391ce2164d","false","false","Watch","https://kisumu-drawings.s3-us-west-1.amazonaws.com/39-014.png","4","Cat","39-014.png"
"","2767","image-button-response","51","null","268522","686d62ec803998618dffb3d1","686dbdaa2b87712bdaf6082b","6672bf56d51710391ce2164d","false","false","Bird","https://kisumu-drawings.s3-us-west-1.amazonaws.com/86-014.png","2","Bird","86-014.png"
"","3630","image-button-response","52","null","272654","686d62ec803998618dffb3d1","686dbdaa2b87712bdaf6082b","6672bf56d51710391ce2164d","false","false","Hat","https://kisumu-drawings.s3-us-west-1.amazonaws.com/49-006.png","7","Hat","49-006.png"
"","2349","image-button-response","53","null","275505","686d62ec803998618dffb3d1","686dbdaa2b87712bdaf6082b","6672bf56d51710391ce2164d","false","false","Hat","https://kisumu-drawings.s3-us-west-1.amazonaws.com/32-015.png","7","Hat","32-015.png"
"","2497","image-button-response","54","null","278505","686d62ec803998618dffb3d1","686dbdaa2b87712bdaf6082b","6672bf56d51710391ce2164d","false","false","Watch","https://kisumu-drawings.s3-us-west-1.amazonaws.com/112-012.png","2","Bird","112-012.png"
"","3371","image-button-response","55","null","282378","686d62ec803998618dffb3d1","686dbdaa2b87712bdaf6082b","6672bf56d51710391ce2164d","false","false","Chair","https://kisumu-drawings.s3-us-west-1.amazonaws.com/120-016.png","5","Chair","120-016.png"
"","4042","image-button-response","56","null","286922","686d62ec803998618dffb3d1","686dbdaa2b87712bdaf6082b","6672bf56d51710391ce2164d","false","false","Cup","https://kisumu-drawings.s3-us-west-1.amazonaws.com/18-015.png","7","Hat","18-015.png"
"","2903","image-button-response","57","null","290328","686d62ec803998618dffb3d1","686dbdaa2b87712bdaf6082b","6672bf56d51710391ce2164d","false","false","Cup","https://kisumu-drawings.s3-us-west-1.amazonaws.com/39-011.png","6","Cup","39-011.png"
"","2170","image-button-response","58","null","292999","686d62ec803998618dffb3d1","686dbdaa2b87712bdaf6082b","6672bf56d51710391ce2164d","true","false","airplane","stimuli/catch_trials/0_airplane_catch.jpg","0","Airplane",""
"","3047","image-button-response","59","null","296548","686d62ec803998618dffb3d1","686dbdaa2b87712bdaf6082b","6672bf56d51710391ce2164d","false","false","Cat","https://kisumu-drawings.s3-us-west-1.amazonaws.com/43-010.png","4","Cat","43-010.png"
"","3300","image-button-response","60","null","300351","686d62ec803998618dffb3d1","686dbdaa2b87712bdaf6082b","6672bf56d51710391ce2164d","false","false","Bicycle","https://kisumu-drawings.s3-us-west-1.amazonaws.com/107-015.png","1","Bicycle","107-015.png"
"","2641","image-button-response","61","null","303494","686d62ec803998618dffb3d1","686dbdaa2b87712bdaf6082b","6672bf56d51710391ce2164d","false","false","Chair","https://kisumu-drawings.s3-us-west-1.amazonaws.com/88-014.png","5","Chair","88-014.png"
"","3419","image-button-response","62","null","307415","686d62ec803998618dffb3d1","686dbdaa2b87712bdaf6082b","6672bf56d51710391ce2164d","false","false","Bicycle","https://kisumu-drawings.s3-us-west-1.amazonaws.com/83-008.png","1","Bicycle","83-008.png"
"","3074","image-button-response","63","null","310990","686d62ec803998618dffb3d1","686dbdaa2b87712bdaf6082b","6672bf56d51710391ce2164d","false","false","Cat","https://kisumu-drawings.s3-us-west-1.amazonaws.com/75-014.png","4","Cat","75-014.png"
"","2975","image-button-response","64","null","314468","686d62ec803998618dffb3d1","686dbdaa2b87712bdaf6082b","6672bf56d51710391ce2164d","false","false","House","https://kisumu-drawings.s3-us-west-1.amazonaws.com/11-015.png","2","Bird","11-015.png"
"","2642","image-button-response","65","null","317611","686d62ec803998618dffb3d1","686dbdaa2b87712bdaf6082b","6672bf56d51710391ce2164d","false","false","Tree","https://kisumu-drawings.s3-us-west-1.amazonaws.com/118-013.png","10","Tree","118-013.png"
"","3952","image-button-response","66","null","322066","686d62ec803998618dffb3d1","686dbdaa2b87712bdaf6082b","6672bf56d51710391ce2164d","false","false","Bicycle","https://kisumu-drawings.s3-us-west-1.amazonaws.com/13-010.png","2","Bird","13-010.png"
"","2702","image-button-response","67","null","325270","686d62ec803998618dffb3d1","686dbdaa2b87712bdaf6082b","6672bf56d51710391ce2164d","false","false","Airplane","https://kisumu-drawings.s3-us-west-1.amazonaws.com/14-012.png","4","Cat","14-012.png"
"","2252","image-button-response","68","null","328025","686d62ec803998618dffb3d1","686dbdaa2b87712bdaf6082b","6672bf56d51710391ce2164d","false","false","Bird","https://kisumu-drawings.s3-us-west-1.amazonaws.com/113-016.png","2","Bird","113-016.png"
"","2387","image-button-response","69","null","330915","686d62ec803998618dffb3d1","686dbdaa2b87712bdaf6082b","6672bf56d51710391ce2164d","false","false","Rabbit","https://kisumu-drawings.s3-us-west-1.amazonaws.com/61-009.png","4","Cat","61-009.png"
"","2654","image-button-response","70","null","334072","686d62ec803998618dffb3d1","686dbdaa2b87712bdaf6082b","6672bf56d51710391ce2164d","false","false","Cat","https://kisumu-drawings.s3-us-west-1.amazonaws.com/99-005.png","4","Cat","99-005.png"
"","2048","image-button-response","71","null","336621","686d62ec803998618dffb3d1","686dbdaa2b87712bdaf6082b","6672bf56d51710391ce2164d","false","false","Rabbit","https://kisumu-drawings.s3-us-west-1.amazonaws.com/46-016.png","4","Cat","46-016.png"
"","2528","image-button-response","72","null","339652","686d62ec803998618dffb3d1","686dbdaa2b87712bdaf6082b","6672bf56d51710391ce2164d","false","false","Car","https://kisumu-drawings.s3-us-west-1.amazonaws.com/50-015.png","3","Car","50-015.png"
"","3728","image-button-response","73","null","343881","686d62ec803998618dffb3d1","686dbdaa2b87712bdaf6082b","6672bf56d51710391ce2164d","false","false","Chair","https://kisumu-drawings.s3-us-west-1.amazonaws.com/22-006.png","5","Chair","22-006.png"
"","2772","image-button-response","74","null","347155","686d62ec803998618dffb3d1","686dbdaa2b87712bdaf6082b","6672bf56d51710391ce2164d","false","false","Car","https://kisumu-drawings.s3-us-west-1.amazonaws.com/72-013.png","3","Car","72-013.png"
"","1774","image-button-response","75","null","349431","686d62ec803998618dffb3d1","686dbdaa2b87712bdaf6082b","6672bf56d51710391ce2164d","false","false","Car","https://kisumu-drawings.s3-us-west-1.amazonaws.com/22-009.png","3","Car","22-009.png"
