"view_history","rt","trial_type","trial_index","plugin_version","time_elapsed","study_id","session_id","participant_id","catch_trial","prep_trial","sketcher_category","stimulus","response","response_category","sketch_id"
"[{""page_index"":0,""viewing_time"":4805},{""page_index"":1,""viewing_time"":2350},{""page_index"":2,""viewing_time"":3295},{""page_index"":3,""viewing_time"":7746}]","18195","instructions","0","null","18199","686d62ec803998618dffb3d1","686dbf34e79a6d54f1008361","6681cd8b12dcb4b45a155c03","","","","","","",""
"","3210","image-button-response","1","null","22424","686d62ec803998618dffb3d1","686dbf34e79a6d54f1008361","6681cd8b12dcb4b45a155c03","false","true","car","stimuli/prep_trials/1_car_prep.png","3","Car",""
"","1932","image-button-response","2","null","24859","686d62ec803998618dffb3d1","686dbf34e79a6d54f1008361","6681cd8b12dcb4b45a155c03","false","true","cat","stimuli/prep_trials/0_cat_prep.jpg","4","Cat",""
"","4302","image-button-response","3","null","29664","686d62ec803998618dffb3d1","686dbf34e79a6d54f1008361","6681cd8b12dcb4b45a155c03","false","false","Chair","https://kisumu-drawings.s3-us-west-1.amazonaws.com/119-013.png","5","Chair","119-013.png"
"","2459","image-button-response","4","null","32634","686d62ec803998618dffb3d1","686dbf34e79a6d54f1008361","6681cd8b12dcb4b45a155c03","false","false","House","https://kisumu-drawings.s3-us-west-1.amazonaws.com/95-006.png","8","House","95-006.png"
"","3986","image-button-response","5","null","37123","686d62ec803998618dffb3d1","686dbf34e79a6d54f1008361","6681cd8b12dcb4b45a155c03","true","false","airplane","stimuli/catch_trials/0_airplane_catch.jpg","0","Airplane",""
"","2180","image-button-response","6","null","39818","686d62ec803998618dffb3d1","686dbf34e79a6d54f1008361","6681cd8b12dcb4b45a155c03","false","false","Bicycle","https://kisumu-drawings.s3-us-west-1.amazonaws.com/99-013.png","1","Bicycle","99-013.png"
"","24131","image-button-response","7","null","64453","686d62ec803998618dffb3d1","686dbf34e79a6d54f1008361","6681cd8b12dcb4b45a155c03","false","false","Bicycle","https://kisumu-drawings.s3-us-west-1.amazonaws.com/39-009.png","1","Bicycle","39-009.png"
"","30375","image-button-response","8","null","95329","686d62ec803998618dffb3d1","686dbf34e79a6d54f1008361","6681cd8b12dcb4b45a155c03","false","false","Cat","https://kisumu-drawings.s3-us-west-1.amazonaws.com/15-014.png","3","Car","15-014.png"
"","10039","image-button-response","9","null","105879","686d62ec803998618dffb3d1","686dbf34e79a6d54f1008361","6681cd8b12dcb4b45a155c03","false","false","Bird","https://kisumu-drawings.s3-us-west-1.amazonaws.com/88-015.png","4","Cat","88-015.png"
"","8227","image-button-response","10","null","114608","686d62ec803998618dffb3d1","686dbf34e79a6d54f1008361","6681cd8b12dcb4b45a155c03","false","false","Car","https://kisumu-drawings.s3-us-west-1.amazonaws.com/119-010.png","3","Car","119-010.png"
"","4909","image-button-response","11","null","120019","686d62ec803998618dffb3d1","686dbf34e79a6d54f1008361","6681cd8b12dcb4b45a155c03","false","false","Airplane","https://kisumu-drawings.s3-us-west-1.amazonaws.com/84-010.png","0","Airplane","84-010.png"
"","49338","image-button-response","12","null","169858","686d62ec803998618dffb3d1","686dbf34e79a6d54f1008361","6681cd8b12dcb4b45a155c03","false","false","Watch","https://kisumu-drawings.s3-us-west-1.amazonaws.com/54-012.png","11","Watch","54-012.png"
"","11995","image-button-response","13","null","182359","686d62ec803998618dffb3d1","686dbf34e79a6d54f1008361","6681cd8b12dcb4b45a155c03","false","false","Hat","https://kisumu-drawings.s3-us-west-1.amazonaws.com/40-013.png","11","Watch","40-013.png"
"","3149","image-button-response","14","null","186008","686d62ec803998618dffb3d1","686dbf34e79a6d54f1008361","6681cd8b12dcb4b45a155c03","false","false","Watch","https://kisumu-drawings.s3-us-west-1.amazonaws.com/104-005.png","11","Watch","104-005.png"
"","1804","image-button-response","15","null","188313","686d62ec803998618dffb3d1","686dbf34e79a6d54f1008361","6681cd8b12dcb4b45a155c03","false","false","Car","https://kisumu-drawings.s3-us-west-1.amazonaws.com/100-012.png","3","Car","100-012.png"
"","2109","image-button-response","16","null","190924","686d62ec803998618dffb3d1","686dbf34e79a6d54f1008361","6681cd8b12dcb4b45a155c03","false","false","Cup","https://kisumu-drawings.s3-us-west-1.amazonaws.com/72-010.png","6","Cup","72-010.png"
"","2913","image-button-response","17","null","194338","686d62ec803998618dffb3d1","686dbf34e79a6d54f1008361","6681cd8b12dcb4b45a155c03","false","false","Tree","https://kisumu-drawings.s3-us-west-1.amazonaws.com/72-006.png","10","Tree","72-006.png"
"","1467","image-button-response","18","null","196319","686d62ec803998618dffb3d1","686dbf34e79a6d54f1008361","6681cd8b12dcb4b45a155c03","false","false","Tree","https://kisumu-drawings.s3-us-west-1.amazonaws.com/112-005.png","10","Tree","112-005.png"
"","1900","image-button-response","19","null","198730","686d62ec803998618dffb3d1","686dbf34e79a6d54f1008361","6681cd8b12dcb4b45a155c03","false","false","Airplane","https://kisumu-drawings.s3-us-west-1.amazonaws.com/1-007.png","9","Rabbit","1-007.png"
"","2662","image-button-response","20","null","201903","686d62ec803998618dffb3d1","686dbf34e79a6d54f1008361","6681cd8b12dcb4b45a155c03","false","false","House","https://kisumu-drawings.s3-us-west-1.amazonaws.com/31-013.png","2","Bird","31-013.png"
"","10635","image-button-response","21","null","213043","686d62ec803998618dffb3d1","686dbf34e79a6d54f1008361","6681cd8b12dcb4b45a155c03","false","false","Chair","https://kisumu-drawings.s3-us-west-1.amazonaws.com/40-008.png","4","Cat","40-008.png"
"","8893","image-button-response","22","null","222443","686d62ec803998618dffb3d1","686dbf34e79a6d54f1008361","6681cd8b12dcb4b45a155c03","false","false","Airplane","https://kisumu-drawings.s3-us-west-1.amazonaws.com/37-008.png","0","Airplane","37-008.png"
"","25230","image-button-response","23","null","248183","686d62ec803998618dffb3d1","686dbf34e79a6d54f1008361","6681cd8b12dcb4b45a155c03","false","false","Hat","https://kisumu-drawings.s3-us-west-1.amazonaws.com/81-006.png","9","Rabbit","81-006.png"
"","9054","image-button-response","24","null","257743","686d62ec803998618dffb3d1","686dbf34e79a6d54f1008361","6681cd8b12dcb4b45a155c03","false","false","Cup","https://kisumu-drawings.s3-us-west-1.amazonaws.com/84-007.png","6","Cup","84-007.png"
"","30441","image-button-response","25","null","288694","686d62ec803998618dffb3d1","686dbf34e79a6d54f1008361","6681cd8b12dcb4b45a155c03","false","false","Bird","https://kisumu-drawings.s3-us-west-1.amazonaws.com/11-011.png","5","Chair","11-011.png"
"","15859","image-button-response","26","null","305058","686d62ec803998618dffb3d1","686dbf34e79a6d54f1008361","6681cd8b12dcb4b45a155c03","false","false","Hat","https://kisumu-drawings.s3-us-west-1.amazonaws.com/46-014.png","5","Chair","46-014.png"
"","12463","image-button-response","27","null","318023","686d62ec803998618dffb3d1","686dbf34e79a6d54f1008361","6681cd8b12dcb4b45a155c03","false","false","Watch","https://kisumu-drawings.s3-us-west-1.amazonaws.com/38-013.png","0","Airplane","38-013.png"
"","3196","image-button-response","28","null","321724","686d62ec803998618dffb3d1","686dbf34e79a6d54f1008361","6681cd8b12dcb4b45a155c03","false","false","Airplane","https://kisumu-drawings.s3-us-west-1.amazonaws.com/119-012.png","0","Airplane","119-012.png"
"","4631","image-button-response","29","null","326859","686d62ec803998618dffb3d1","686dbf34e79a6d54f1008361","6681cd8b12dcb4b45a155c03","false","false","Bicycle","https://kisumu-drawings.s3-us-west-1.amazonaws.com/11-009.png","10","Tree","11-009.png"
"","2843","image-button-response","30","null","330208","686d62ec803998618dffb3d1","686dbf34e79a6d54f1008361","6681cd8b12dcb4b45a155c03","false","false","Bicycle","https://kisumu-drawings.s3-us-west-1.amazonaws.com/76-012.png","3","Car","76-012.png"
"","3484","image-button-response","31","null","334193","686d62ec803998618dffb3d1","686dbf34e79a6d54f1008361","6681cd8b12dcb4b45a155c03","false","false","House","https://kisumu-drawings.s3-us-west-1.amazonaws.com/11-015.png","9","Rabbit","11-015.png"
"","5341","image-button-response","32","null","340039","686d62ec803998618dffb3d1","686dbf34e79a6d54f1008361","6681cd8b12dcb4b45a155c03","false","false","Bird","https://kisumu-drawings.s3-us-west-1.amazonaws.com/40-007.png","2","Bird","40-007.png"
"","3355","image-button-response","33","null","343899","686d62ec803998618dffb3d1","686dbf34e79a6d54f1008361","6681cd8b12dcb4b45a155c03","false","false","Watch","https://kisumu-drawings.s3-us-west-1.amazonaws.com/17-011.png","0","Airplane","17-011.png"
"","1988","image-button-response","34","null","346399","686d62ec803998618dffb3d1","686dbf34e79a6d54f1008361","6681cd8b12dcb4b45a155c03","false","false","Bicycle","https://kisumu-drawings.s3-us-west-1.amazonaws.com/101-016.png","3","Car","101-016.png"
"","1644","image-button-response","35","null","348553","686d62ec803998618dffb3d1","686dbf34e79a6d54f1008361","6681cd8b12dcb4b45a155c03","false","false","House","https://kisumu-drawings.s3-us-west-1.amazonaws.com/44-009.png","8","House","44-009.png"
"","2415","image-button-response","36","null","351484","686d62ec803998618dffb3d1","686dbf34e79a6d54f1008361","6681cd8b12dcb4b45a155c03","false","false","Cat","https://kisumu-drawings.s3-us-west-1.amazonaws.com/113-006.png","4","Cat","113-006.png"
"","4129","image-button-response","37","null","356128","686d62ec803998618dffb3d1","686dbf34e79a6d54f1008361","6681cd8b12dcb4b45a155c03","false","false","House","https://kisumu-drawings.s3-us-west-1.amazonaws.com/115-010.png","8","House","115-010.png"
"","3693","image-button-response","38","null","360324","686d62ec803998618dffb3d1","686dbf34e79a6d54f1008361","6681cd8b12dcb4b45a155c03","false","false","Chair","https://kisumu-drawings.s3-us-west-1.amazonaws.com/18-014.png","11","Watch","18-014.png"
"","1634","image-button-response","39","null","362459","686d62ec803998618dffb3d1","686dbf34e79a6d54f1008361","6681cd8b12dcb4b45a155c03","false","false","House","https://kisumu-drawings.s3-us-west-1.amazonaws.com/75-007.png","8","House","75-007.png"
"","1454","image-button-response","40","null","364429","686d62ec803998618dffb3d1","686dbf34e79a6d54f1008361","6681cd8b12dcb4b45a155c03","false","false","Bird","https://kisumu-drawings.s3-us-west-1.amazonaws.com/71-010.png","2","Bird","71-010.png"
"","1444","image-button-response","41","null","366373","686d62ec803998618dffb3d1","686dbf34e79a6d54f1008361","6681cd8b12dcb4b45a155c03","false","false","Car","https://kisumu-drawings.s3-us-west-1.amazonaws.com/54-005.png","3","Car","54-005.png"
"","1583","image-button-response","42","null","368465","686d62ec803998618dffb3d1","686dbf34e79a6d54f1008361","6681cd8b12dcb4b45a155c03","false","false","Bird","https://kisumu-drawings.s3-us-west-1.amazonaws.com/120-009.png","2","Bird","120-009.png"
"","2112","image-button-response","43","null","371084","686d62ec803998618dffb3d1","686dbf34e79a6d54f1008361","6681cd8b12dcb4b45a155c03","false","false","Cup","https://kisumu-drawings.s3-us-west-1.amazonaws.com/112-009.png","6","Cup","112-009.png"
"","44841","image-button-response","44","null","416429","686d62ec803998618dffb3d1","686dbf34e79a6d54f1008361","6681cd8b12dcb4b45a155c03","false","false","Airplane","https://kisumu-drawings.s3-us-west-1.amazonaws.com/46-006.png","0","Airplane","46-006.png"
"","3733","image-button-response","45","null","420669","686d62ec803998618dffb3d1","686dbf34e79a6d54f1008361","6681cd8b12dcb4b45a155c03","false","false","Watch","https://kisumu-drawings.s3-us-west-1.amazonaws.com/81-010.png","11","Watch","81-010.png"
"","3680","image-button-response","46","null","424854","686d62ec803998618dffb3d1","686dbf34e79a6d54f1008361","6681cd8b12dcb4b45a155c03","false","false","Airplane","https://kisumu-drawings.s3-us-west-1.amazonaws.com/67-014.png","0","Airplane","67-014.png"
"","4363","image-button-response","47","null","429719","686d62ec803998618dffb3d1","686dbf34e79a6d54f1008361","6681cd8b12dcb4b45a155c03","false","false","Cat","https://kisumu-drawings.s3-us-west-1.amazonaws.com/35-012.png","4","Cat","35-012.png"
"","4875","image-button-response","48","null","435104","686d62ec803998618dffb3d1","686dbf34e79a6d54f1008361","6681cd8b12dcb4b45a155c03","false","false","Tree","https://kisumu-drawings.s3-us-west-1.amazonaws.com/44-005.png","10","Tree","44-005.png"
"","3250","image-button-response","49","null","438859","686d62ec803998618dffb3d1","686dbf34e79a6d54f1008361","6681cd8b12dcb4b45a155c03","false","false","Hat","https://kisumu-drawings.s3-us-west-1.amazonaws.com/116-009.png","6","Cup","116-009.png"
"","4263","image-button-response","50","null","443623","686d62ec803998618dffb3d1","686dbf34e79a6d54f1008361","6681cd8b12dcb4b45a155c03","false","false","Rabbit","https://kisumu-drawings.s3-us-west-1.amazonaws.com/13-007.png","7","Hat","13-007.png"
"","2332","image-button-response","51","null","446459","686d62ec803998618dffb3d1","686dbf34e79a6d54f1008361","6681cd8b12dcb4b45a155c03","false","false","Chair","https://kisumu-drawings.s3-us-west-1.amazonaws.com/81-012.png","5","Chair","81-012.png"
"","1854","image-button-response","52","null","448814","686d62ec803998618dffb3d1","686dbf34e79a6d54f1008361","6681cd8b12dcb4b45a155c03","false","false","Cat","https://kisumu-drawings.s3-us-west-1.amazonaws.com/100-011.png","4","Cat","100-011.png"
"","1682","image-button-response","53","null","450998","686d62ec803998618dffb3d1","686dbf34e79a6d54f1008361","6681cd8b12dcb4b45a155c03","false","false","Car","https://kisumu-drawings.s3-us-west-1.amazonaws.com/79-008.png","3","Car","79-008.png"
"","1533","image-button-response","54","null","453048","686d62ec803998618dffb3d1","686dbf34e79a6d54f1008361","6681cd8b12dcb4b45a155c03","false","false","Rabbit","https://kisumu-drawings.s3-us-west-1.amazonaws.com/38-009.png","9","Rabbit","38-009.png"
"","2529","image-button-response","55","null","456089","686d62ec803998618dffb3d1","686dbf34e79a6d54f1008361","6681cd8b12dcb4b45a155c03","false","false","Rabbit","https://kisumu-drawings.s3-us-west-1.amazonaws.com/118-012.png","4","Cat","118-012.png"
"","2090","image-button-response","56","null","458684","686d62ec803998618dffb3d1","686dbf34e79a6d54f1008361","6681cd8b12dcb4b45a155c03","false","false","Rabbit","https://kisumu-drawings.s3-us-west-1.amazonaws.com/44-016.png","4","Cat","44-016.png"
"","2853","image-button-response","57","null","462038","686d62ec803998618dffb3d1","686dbf34e79a6d54f1008361","6681cd8b12dcb4b45a155c03","false","false","Car","https://kisumu-drawings.s3-us-west-1.amazonaws.com/31-008.png","5","Chair","31-008.png"
"","3267","image-button-response","58","null","465814","686d62ec803998618dffb3d1","686dbf34e79a6d54f1008361","6681cd8b12dcb4b45a155c03","false","false","Bicycle","https://kisumu-drawings.s3-us-west-1.amazonaws.com/47-009.png","3","Car","47-009.png"
"","1778","image-button-response","59","null","468103","686d62ec803998618dffb3d1","686dbf34e79a6d54f1008361","6681cd8b12dcb4b45a155c03","false","false","Chair","https://kisumu-drawings.s3-us-west-1.amazonaws.com/80-013.png","5","Chair","80-013.png"
"","3451","image-button-response","60","null","472059","686d62ec803998618dffb3d1","686dbf34e79a6d54f1008361","6681cd8b12dcb4b45a155c03","false","false","Rabbit","https://kisumu-drawings.s3-us-west-1.amazonaws.com/86-016.png","9","Rabbit","86-016.png"
"","2090","image-button-response","61","null","474664","686d62ec803998618dffb3d1","686dbf34e79a6d54f1008361","6681cd8b12dcb4b45a155c03","false","false","Tree","https://kisumu-drawings.s3-us-west-1.amazonaws.com/18-016.png","2","Bird","18-016.png"
"","1823","image-button-response","62","null","476999","686d62ec803998618dffb3d1","686dbf34e79a6d54f1008361","6681cd8b12dcb4b45a155c03","false","false","Car","https://kisumu-drawings.s3-us-west-1.amazonaws.com/17-012.png","3","Car","17-012.png"
"","2497","image-button-response","63","null","480008","686d62ec803998618dffb3d1","686dbf34e79a6d54f1008361","6681cd8b12dcb4b45a155c03","false","false","Cup","https://kisumu-drawings.s3-us-west-1.amazonaws.com/31-011.png","6","Cup","31-011.png"
"","3879","image-button-response","64","null","484394","686d62ec803998618dffb3d1","686dbf34e79a6d54f1008361","6681cd8b12dcb4b45a155c03","false","false","Tree","https://kisumu-drawings.s3-us-west-1.amazonaws.com/84-005.png","10","Tree","84-005.png"
"","2553","image-button-response","65","null","487449","686d62ec803998618dffb3d1","686dbf34e79a6d54f1008361","6681cd8b12dcb4b45a155c03","false","false","Cup","https://kisumu-drawings.s3-us-west-1.amazonaws.com/3-011.png","6","Cup","3-011.png"
"","1392","image-button-response","66","null","489344","686d62ec803998618dffb3d1","686dbf34e79a6d54f1008361","6681cd8b12dcb4b45a155c03","false","false","Cup","https://kisumu-drawings.s3-us-west-1.amazonaws.com/42-014.png","6","Cup","42-014.png"
"","1805","image-button-response","67","null","491653","686d62ec803998618dffb3d1","686dbf34e79a6d54f1008361","6681cd8b12dcb4b45a155c03","false","false","Cat","https://kisumu-drawings.s3-us-west-1.amazonaws.com/42-008.png","4","Cat","42-008.png"
"","2070","image-button-response","68","null","494229","686d62ec803998618dffb3d1","686dbf34e79a6d54f1008361","6681cd8b12dcb4b45a155c03","false","false","Rabbit","https://kisumu-drawings.s3-us-west-1.amazonaws.com/80-016.png","9","Rabbit","80-016.png"
"","2727","image-button-response","69","null","497463","686d62ec803998618dffb3d1","686dbf34e79a6d54f1008361","6681cd8b12dcb4b45a155c03","false","false","Hat","https://kisumu-drawings.s3-us-west-1.amazonaws.com/17-015.png","5","Chair","17-015.png"
"","2828","image-button-response","70","null","500799","686d62ec803998618dffb3d1","686dbf34e79a6d54f1008361","6681cd8b12dcb4b45a155c03","false","false","Chair","https://kisumu-drawings.s3-us-west-1.amazonaws.com/41-006.png","5","Chair","41-006.png"
"","5648","image-button-response","71","null","506949","686d62ec803998618dffb3d1","686dbf34e79a6d54f1008361","6681cd8b12dcb4b45a155c03","false","false","Hat","https://kisumu-drawings.s3-us-west-1.amazonaws.com/80-007.png","6","Cup","80-007.png"
"","7314","image-button-response","72","null","514778","686d62ec803998618dffb3d1","686dbf34e79a6d54f1008361","6681cd8b12dcb4b45a155c03","false","false","Tree","https://kisumu-drawings.s3-us-west-1.amazonaws.com/31-015.png","2","Bird","31-015.png"
"","9454","image-button-response","73","null","524734","686d62ec803998618dffb3d1","686dbf34e79a6d54f1008361","6681cd8b12dcb4b45a155c03","false","false","Cat","https://kisumu-drawings.s3-us-west-1.amazonaws.com/76-015.png","4","Cat","76-015.png"
"","6271","image-button-response","74","null","531514","686d62ec803998618dffb3d1","686dbf34e79a6d54f1008361","6681cd8b12dcb4b45a155c03","false","false","Bird","https://kisumu-drawings.s3-us-west-1.amazonaws.com/47-005.png","9","Rabbit","47-005.png"
"","8079","image-button-response","75","null","540109","686d62ec803998618dffb3d1","686dbf34e79a6d54f1008361","6681cd8b12dcb4b45a155c03","false","false","Watch","https://kisumu-drawings.s3-us-west-1.amazonaws.com/78-014.png","11","Watch","78-014.png"
