"view_history","rt","trial_type","trial_index","plugin_version","time_elapsed","study_id","session_id","participant_id","catch_trial","prep_trial","sketcher_category","stimulus","response","response_category","sketch_id"
"[{""page_index"":0,""viewing_time"":9241},{""page_index"":1,""viewing_time"":4347},{""page_index"":2,""viewing_time"":48640},{""page_index"":3,""viewing_time"":81450}]","143680","instructions","0","null","143696","686d62ec803998618dffb3d1","686d9d1f19dde7f6578df9cb","6692c893ffa8d76ccb029717","","","","","","",""
"","2924","image-button-response","1","null","147631","686d62ec803998618dffb3d1","686d9d1f19dde7f6578df9cb","6692c893ffa8d76ccb029717","false","true","car","stimuli/prep_trials/1_car_prep.png","3","Car",""
"","3582","image-button-response","2","null","151729","686d62ec803998618dffb3d1","686d9d1f19dde7f6578df9cb","6692c893ffa8d76ccb029717","false","true","cat","stimuli/prep_trials/0_cat_prep.jpg","4","Cat",""
"","7662","image-button-response","3","null","159909","686d62ec803998618dffb3d1","686d9d1f19dde7f6578df9cb","6692c893ffa8d76ccb029717","false","false","Car","https://kisumu-drawings.s3-us-west-1.amazonaws.com/87-008.png","3","Car","87-008.png"
"","18864","image-button-response","4","null","179306","686d62ec803998618dffb3d1","686d9d1f19dde7f6578df9cb","6692c893ffa8d76ccb029717","false","false","Bird","https://kisumu-drawings.s3-us-west-1.amazonaws.com/45-016.png","5","Chair","45-016.png"
"","8027","image-button-response","5","null","187854","686d62ec803998618dffb3d1","686d9d1f19dde7f6578df9cb","6692c893ffa8d76ccb029717","false","false","Bicycle","https://kisumu-drawings.s3-us-west-1.amazonaws.com/62-008.png","1","Bicycle","62-008.png"
"","13117","image-button-response","6","null","201479","686d62ec803998618dffb3d1","686d9d1f19dde7f6578df9cb","6692c893ffa8d76ccb029717","false","false","Car","https://kisumu-drawings.s3-us-west-1.amazonaws.com/33-009.png","3","Car","33-009.png"
"","4288","image-button-response","7","null","206284","686d62ec803998618dffb3d1","686d9d1f19dde7f6578df9cb","6692c893ffa8d76ccb029717","false","false","Airplane","https://kisumu-drawings.s3-us-west-1.amazonaws.com/86-009.png","0","Airplane","86-009.png"
"","8362","image-button-response","8","null","215163","686d62ec803998618dffb3d1","686d9d1f19dde7f6578df9cb","6692c893ffa8d76ccb029717","false","false","Tree","https://kisumu-drawings.s3-us-west-1.amazonaws.com/86-012.png","10","Tree","86-012.png"
"","4680","image-button-response","9","null","220353","686d62ec803998618dffb3d1","686d9d1f19dde7f6578df9cb","6692c893ffa8d76ccb029717","false","false","Bird","https://kisumu-drawings.s3-us-west-1.amazonaws.com/15-010.png","6","Cup","15-010.png"
"","2305","image-button-response","10","null","223162","686d62ec803998618dffb3d1","686d9d1f19dde7f6578df9cb","6692c893ffa8d76ccb029717","false","false","Chair","https://kisumu-drawings.s3-us-west-1.amazonaws.com/46-012.png","5","Chair","46-012.png"
"","6687","image-button-response","11","null","230354","686d62ec803998618dffb3d1","686d9d1f19dde7f6578df9cb","6692c893ffa8d76ccb029717","false","false","Hat","https://kisumu-drawings.s3-us-west-1.amazonaws.com/80-007.png","2","Bird","80-007.png"
"","11743","image-button-response","12","null","242607","686d62ec803998618dffb3d1","686d9d1f19dde7f6578df9cb","6692c893ffa8d76ccb029717","false","false","Bicycle","https://kisumu-drawings.s3-us-west-1.amazonaws.com/16-011.png","6","Cup","16-011.png"
"","2943","image-button-response","13","null","246065","686d62ec803998618dffb3d1","686d9d1f19dde7f6578df9cb","6692c893ffa8d76ccb029717","false","false","Airplane","https://kisumu-drawings.s3-us-west-1.amazonaws.com/61-014.png","0","Airplane","61-014.png"
"","7002","image-button-response","14","null","253582","686d62ec803998618dffb3d1","686d9d1f19dde7f6578df9cb","6692c893ffa8d76ccb029717","false","false","Bird","https://kisumu-drawings.s3-us-west-1.amazonaws.com/112-011.png","4","Cat","112-011.png"
"","3453","image-button-response","15","null","257543","686d62ec803998618dffb3d1","686d9d1f19dde7f6578df9cb","6692c893ffa8d76ccb029717","false","false","Airplane","https://kisumu-drawings.s3-us-west-1.amazonaws.com/49-011.png","0","Airplane","49-011.png"
"","7474","image-button-response","16","null","265522","686d62ec803998618dffb3d1","686d9d1f19dde7f6578df9cb","6692c893ffa8d76ccb029717","false","false","Rabbit","https://kisumu-drawings.s3-us-west-1.amazonaws.com/40-016.png","2","Bird","40-016.png"
"","4361","image-button-response","17","null","270394","686d62ec803998618dffb3d1","686d9d1f19dde7f6578df9cb","6692c893ffa8d76ccb029717","false","false","Car","https://kisumu-drawings.s3-us-west-1.amazonaws.com/75-009.png","3","Car","75-009.png"
"","4105","image-button-response","18","null","275005","686d62ec803998618dffb3d1","686d9d1f19dde7f6578df9cb","6692c893ffa8d76ccb029717","false","false","Watch","https://kisumu-drawings.s3-us-west-1.amazonaws.com/14-008.png","4","Cat","14-008.png"
"","6889","image-button-response","19","null","282402","686d62ec803998618dffb3d1","686d9d1f19dde7f6578df9cb","6692c893ffa8d76ccb029717","false","false","Tree","https://kisumu-drawings.s3-us-west-1.amazonaws.com/31-015.png","2","Bird","31-015.png"
"","9949","image-button-response","20","null","292867","686d62ec803998618dffb3d1","686d9d1f19dde7f6578df9cb","6692c893ffa8d76ccb029717","false","false","House","https://kisumu-drawings.s3-us-west-1.amazonaws.com/39-005.png","6","Cup","39-005.png"
"","4399","image-button-response","21","null","297779","686d62ec803998618dffb3d1","686d9d1f19dde7f6578df9cb","6692c893ffa8d76ccb029717","false","false","Bird","https://kisumu-drawings.s3-us-west-1.amazonaws.com/61-006.png","2","Bird","61-006.png"
"","3172","image-button-response","22","null","301456","686d62ec803998618dffb3d1","686d9d1f19dde7f6578df9cb","6692c893ffa8d76ccb029717","false","false","Bicycle","https://kisumu-drawings.s3-us-west-1.amazonaws.com/93-013.png","1","Bicycle","93-013.png"
"","5941","image-button-response","23","null","307904","686d62ec803998618dffb3d1","686d9d1f19dde7f6578df9cb","6692c893ffa8d76ccb029717","false","false","Car","https://kisumu-drawings.s3-us-west-1.amazonaws.com/119-010.png","3","Car","119-010.png"
"","6759","image-button-response","24","null","315170","686d62ec803998618dffb3d1","686d9d1f19dde7f6578df9cb","6692c893ffa8d76ccb029717","false","false","Tree","https://kisumu-drawings.s3-us-west-1.amazonaws.com/47-011.png","10","Tree","47-011.png"
"","4575","image-button-response","25","null","320252","686d62ec803998618dffb3d1","686d9d1f19dde7f6578df9cb","6692c893ffa8d76ccb029717","false","false","Cat","https://kisumu-drawings.s3-us-west-1.amazonaws.com/117-009.png","4","Cat","117-009.png"
"","2217","image-button-response","26","null","322975","686d62ec803998618dffb3d1","686d9d1f19dde7f6578df9cb","6692c893ffa8d76ccb029717","false","false","Cup","https://kisumu-drawings.s3-us-west-1.amazonaws.com/101-010.png","6","Cup","101-010.png"
"","5018","image-button-response","27","null","328502","686d62ec803998618dffb3d1","686d9d1f19dde7f6578df9cb","6692c893ffa8d76ccb029717","false","false","Watch","https://kisumu-drawings.s3-us-west-1.amazonaws.com/87-010.png","7","Hat","87-010.png"
"","1635","image-button-response","28","null","330647","686d62ec803998618dffb3d1","686d9d1f19dde7f6578df9cb","6692c893ffa8d76ccb029717","false","false","Cup","https://kisumu-drawings.s3-us-west-1.amazonaws.com/87-014.png","6","Cup","87-014.png"
"","2656","image-button-response","29","null","333845","686d62ec803998618dffb3d1","686d9d1f19dde7f6578df9cb","6692c893ffa8d76ccb029717","false","false","Cat","https://kisumu-drawings.s3-us-west-1.amazonaws.com/75-014.png","4","Cat","75-014.png"
"","3699","image-button-response","30","null","338049","686d62ec803998618dffb3d1","686d9d1f19dde7f6578df9cb","6692c893ffa8d76ccb029717","false","false","Rabbit","https://kisumu-drawings.s3-us-west-1.amazonaws.com/86-016.png","9","Rabbit","86-016.png"
"","3760","image-button-response","31","null","342320","686d62ec803998618dffb3d1","686d9d1f19dde7f6578df9cb","6692c893ffa8d76ccb029717","false","false","Hat","https://kisumu-drawings.s3-us-west-1.amazonaws.com/46-014.png","7","Hat","46-014.png"
"","1782","image-button-response","32","null","344609","686d62ec803998618dffb3d1","686d9d1f19dde7f6578df9cb","6692c893ffa8d76ccb029717","false","false","Airplane","https://kisumu-drawings.s3-us-west-1.amazonaws.com/15-011.png","7","Hat","15-011.png"
"","1823","image-button-response","33","null","346948","686d62ec803998618dffb3d1","686d9d1f19dde7f6578df9cb","6692c893ffa8d76ccb029717","false","false","Bird","https://kisumu-drawings.s3-us-west-1.amazonaws.com/97-007.png","0","Airplane","97-007.png"
"","2980","image-button-response","34","null","350434","686d62ec803998618dffb3d1","686d9d1f19dde7f6578df9cb","6692c893ffa8d76ccb029717","false","false","Cat","https://kisumu-drawings.s3-us-west-1.amazonaws.com/13-013.png","2","Bird","13-013.png"
"","2065","image-button-response","35","null","353007","686d62ec803998618dffb3d1","686d9d1f19dde7f6578df9cb","6692c893ffa8d76ccb029717","false","false","Watch","https://kisumu-drawings.s3-us-west-1.amazonaws.com/62-005.png","11","Watch","62-005.png"
"","1845","image-button-response","36","null","355359","686d62ec803998618dffb3d1","686d9d1f19dde7f6578df9cb","6692c893ffa8d76ccb029717","false","false","Cup","https://kisumu-drawings.s3-us-west-1.amazonaws.com/72-010.png","6","Cup","72-010.png"
"","2486","image-button-response","37","null","358354","686d62ec803998618dffb3d1","686d9d1f19dde7f6578df9cb","6692c893ffa8d76ccb029717","false","false","Tree","https://kisumu-drawings.s3-us-west-1.amazonaws.com/118-013.png","10","Tree","118-013.png"
"","2541","image-button-response","38","null","361406","686d62ec803998618dffb3d1","686d9d1f19dde7f6578df9cb","6692c893ffa8d76ccb029717","false","false","Cat","https://kisumu-drawings.s3-us-west-1.amazonaws.com/84-016.png","4","Cat","84-016.png"
"","3892","image-button-response","39","null","365807","686d62ec803998618dffb3d1","686d9d1f19dde7f6578df9cb","6692c893ffa8d76ccb029717","false","false","Hat","https://kisumu-drawings.s3-us-west-1.amazonaws.com/18-007.png","7","Hat","18-007.png"
"","2126","image-button-response","40","null","368451","686d62ec803998618dffb3d1","686d9d1f19dde7f6578df9cb","6692c893ffa8d76ccb029717","false","false","Rabbit","https://kisumu-drawings.s3-us-west-1.amazonaws.com/75-016.png","9","Rabbit","75-016.png"
"","3827","image-button-response","41","null","372793","686d62ec803998618dffb3d1","686d9d1f19dde7f6578df9cb","6692c893ffa8d76ccb029717","false","false","House","https://kisumu-drawings.s3-us-west-1.amazonaws.com/95-006.png","8","House","95-006.png"
"","2586","image-button-response","42","null","375896","686d62ec803998618dffb3d1","686d9d1f19dde7f6578df9cb","6692c893ffa8d76ccb029717","false","false","Chair","https://kisumu-drawings.s3-us-west-1.amazonaws.com/74-005.png","5","Chair","74-005.png"
"","1636","image-button-response","43","null","378037","686d62ec803998618dffb3d1","686d9d1f19dde7f6578df9cb","6692c893ffa8d76ccb029717","false","false","House","https://kisumu-drawings.s3-us-west-1.amazonaws.com/115-010.png","8","House","115-010.png"
"","3328","image-button-response","44","null","381878","686d62ec803998618dffb3d1","686d9d1f19dde7f6578df9cb","6692c893ffa8d76ccb029717","false","false","Bicycle","https://kisumu-drawings.s3-us-west-1.amazonaws.com/50-006.png","3","Car","50-006.png"
"","2050","image-button-response","45","null","384437","686d62ec803998618dffb3d1","686d9d1f19dde7f6578df9cb","6692c893ffa8d76ccb029717","false","false","House","https://kisumu-drawings.s3-us-west-1.amazonaws.com/46-015.png","8","House","46-015.png"
"","1166","image-button-response","46","null","386110","686d62ec803998618dffb3d1","686d9d1f19dde7f6578df9cb","6692c893ffa8d76ccb029717","false","false","House","https://kisumu-drawings.s3-us-west-1.amazonaws.com/79-016.png","8","House","79-016.png"
"","2506","image-button-response","47","null","389125","686d62ec803998618dffb3d1","686d9d1f19dde7f6578df9cb","6692c893ffa8d76ccb029717","false","false","House","https://kisumu-drawings.s3-us-west-1.amazonaws.com/18-005.png","7","Hat","18-005.png"
"","3847","image-button-response","48","null","393477","686d62ec803998618dffb3d1","686d9d1f19dde7f6578df9cb","6692c893ffa8d76ccb029717","false","false","Car","https://kisumu-drawings.s3-us-west-1.amazonaws.com/44-011.png","3","Car","44-011.png"
"","4848","image-button-response","49","null","398830","686d62ec803998618dffb3d1","686d9d1f19dde7f6578df9cb","6692c893ffa8d76ccb029717","false","false","Airplane","https://kisumu-drawings.s3-us-west-1.amazonaws.com/115-005.png","0","Airplane","115-005.png"
"","3670","image-button-response","50","null","403005","686d62ec803998618dffb3d1","686d9d1f19dde7f6578df9cb","6692c893ffa8d76ccb029717","false","false","Chair","https://kisumu-drawings.s3-us-west-1.amazonaws.com/10-016.png","5","Chair","10-016.png"
"","3902","image-button-response","51","null","407419","686d62ec803998618dffb3d1","686d9d1f19dde7f6578df9cb","6692c893ffa8d76ccb029717","false","false","Rabbit","https://kisumu-drawings.s3-us-west-1.amazonaws.com/114-006.png","9","Rabbit","114-006.png"
"","2207","image-button-response","52","null","410141","686d62ec803998618dffb3d1","686d9d1f19dde7f6578df9cb","6692c893ffa8d76ccb029717","false","false","Watch","https://kisumu-drawings.s3-us-west-1.amazonaws.com/46-011.png","11","Watch","46-011.png"
"","5287","image-button-response","53","null","415936","686d62ec803998618dffb3d1","686d9d1f19dde7f6578df9cb","6692c893ffa8d76ccb029717","false","false","Watch","https://kisumu-drawings.s3-us-west-1.amazonaws.com/112-012.png","4","Cat","112-012.png"
"","2120","image-button-response","54","null","418573","686d62ec803998618dffb3d1","686d9d1f19dde7f6578df9cb","6692c893ffa8d76ccb029717","true","false","airplane","stimuli/catch_trials/0_airplane_catch.jpg","0","Airplane",""
"","3574","image-button-response","55","null","422658","686d62ec803998618dffb3d1","686d9d1f19dde7f6578df9cb","6692c893ffa8d76ccb029717","false","false","Tree","https://kisumu-drawings.s3-us-west-1.amazonaws.com/75-015.png","10","Tree","75-015.png"
"","2143","image-button-response","56","null","425308","686d62ec803998618dffb3d1","686d9d1f19dde7f6578df9cb","6692c893ffa8d76ccb029717","false","false","Bicycle","https://kisumu-drawings.s3-us-west-1.amazonaws.com/110-006.png","1","Bicycle","110-006.png"
"","2457","image-button-response","57","null","428271","686d62ec803998618dffb3d1","686d9d1f19dde7f6578df9cb","6692c893ffa8d76ccb029717","false","false","Chair","https://kisumu-drawings.s3-us-west-1.amazonaws.com/120-016.png","5","Chair","120-016.png"
"","2649","image-button-response","58","null","431425","686d62ec803998618dffb3d1","686d9d1f19dde7f6578df9cb","6692c893ffa8d76ccb029717","false","false","Cup","https://kisumu-drawings.s3-us-west-1.amazonaws.com/55-015.png","6","Cup","55-015.png"
"","3079","image-button-response","59","null","435013","686d62ec803998618dffb3d1","686d9d1f19dde7f6578df9cb","6692c893ffa8d76ccb029717","false","false","Hat","https://kisumu-drawings.s3-us-west-1.amazonaws.com/116-009.png","7","Hat","116-009.png"
"","14408","image-button-response","60","null","449936","686d62ec803998618dffb3d1","686d9d1f19dde7f6578df9cb","6692c893ffa8d76ccb029717","false","false","Rabbit","https://kisumu-drawings.s3-us-west-1.amazonaws.com/45-011.png","2","Bird","45-011.png"
"","5520","image-button-response","61","null","455960","686d62ec803998618dffb3d1","686d9d1f19dde7f6578df9cb","6692c893ffa8d76ccb029717","false","false","Cat","https://kisumu-drawings.s3-us-west-1.amazonaws.com/41-011.png","4","Cat","41-011.png"
"","9390","image-button-response","62","null","465855","686d62ec803998618dffb3d1","686d9d1f19dde7f6578df9cb","6692c893ffa8d76ccb029717","false","false","Cup","https://kisumu-drawings.s3-us-west-1.amazonaws.com/39-011.png","7","Hat","39-011.png"
"","3378","image-button-response","63","null","469748","686d62ec803998618dffb3d1","686d9d1f19dde7f6578df9cb","6692c893ffa8d76ccb029717","false","false","Hat","https://kisumu-drawings.s3-us-west-1.amazonaws.com/82-011.png","7","Hat","82-011.png"
"","2342","image-button-response","64","null","472606","686d62ec803998618dffb3d1","686d9d1f19dde7f6578df9cb","6692c893ffa8d76ccb029717","false","false","Car","https://kisumu-drawings.s3-us-west-1.amazonaws.com/14-010.png","6","Cup","14-010.png"
"","5137","image-button-response","65","null","478257","686d62ec803998618dffb3d1","686d9d1f19dde7f6578df9cb","6692c893ffa8d76ccb029717","false","false","Chair","https://kisumu-drawings.s3-us-west-1.amazonaws.com/22-006.png","11","Watch","22-006.png"
"","3004","image-button-response","66","null","481781","686d62ec803998618dffb3d1","686d9d1f19dde7f6578df9cb","6692c893ffa8d76ccb029717","false","false","Watch","https://kisumu-drawings.s3-us-west-1.amazonaws.com/38-013.png","2","Bird","38-013.png"
"","10443","image-button-response","67","null","492742","686d62ec803998618dffb3d1","686d9d1f19dde7f6578df9cb","6692c893ffa8d76ccb029717","false","false","Hat","https://kisumu-drawings.s3-us-west-1.amazonaws.com/35-013.png","7","Hat","35-013.png"
"","4811","image-button-response","68","null","498060","686d62ec803998618dffb3d1","686d9d1f19dde7f6578df9cb","6692c893ffa8d76ccb029717","false","false","Bicycle","https://kisumu-drawings.s3-us-west-1.amazonaws.com/38-015.png","0","Airplane","38-015.png"
"","2523","image-button-response","69","null","501095","686d62ec803998618dffb3d1","686d9d1f19dde7f6578df9cb","6692c893ffa8d76ccb029717","false","false","Cat","https://kisumu-drawings.s3-us-west-1.amazonaws.com/39-007.png","5","Chair","39-007.png"
"","1624","image-button-response","70","null","503225","686d62ec803998618dffb3d1","686d9d1f19dde7f6578df9cb","6692c893ffa8d76ccb029717","false","false","Chair","https://kisumu-drawings.s3-us-west-1.amazonaws.com/81-012.png","5","Chair","81-012.png"
"","8704","image-button-response","71","null","512435","686d62ec803998618dffb3d1","686d9d1f19dde7f6578df9cb","6692c893ffa8d76ccb029717","false","false","Rabbit","https://kisumu-drawings.s3-us-west-1.amazonaws.com/11-006.png","9","Rabbit","11-006.png"
"","2541","image-button-response","72","null","515485","686d62ec803998618dffb3d1","686d9d1f19dde7f6578df9cb","6692c893ffa8d76ccb029717","false","false","Tree","https://kisumu-drawings.s3-us-west-1.amazonaws.com/12-016.png","10","Tree","12-016.png"
"","1801","image-button-response","73","null","517797","686d62ec803998618dffb3d1","686d9d1f19dde7f6578df9cb","6692c893ffa8d76ccb029717","false","false","Airplane","https://kisumu-drawings.s3-us-west-1.amazonaws.com/31-005.png","0","Airplane","31-005.png"
"","1590","image-button-response","74","null","519893","686d62ec803998618dffb3d1","686d9d1f19dde7f6578df9cb","6692c893ffa8d76ccb029717","false","false","Bird","https://kisumu-drawings.s3-us-west-1.amazonaws.com/38-016.png","0","Airplane","38-016.png"
"","2869","image-button-response","75","null","523281","686d62ec803998618dffb3d1","686d9d1f19dde7f6578df9cb","6692c893ffa8d76ccb029717","false","false","Cup","https://kisumu-drawings.s3-us-west-1.amazonaws.com/3-011.png","9","Rabbit","3-011.png"
