"view_history","rt","trial_type","trial_index","plugin_version","time_elapsed","study_id","session_id","participant_id","catch_trial","prep_trial","sketcher_category","stimulus","response","response_category","sketch_id"
"[{""page_index"":0,""viewing_time"":6816},{""page_index"":1,""viewing_time"":3915},{""page_index"":2,""viewing_time"":7668},{""page_index"":3,""viewing_time"":8433}]","26833","instructions","0","null","26851","686d62ec803998618dffb3d1","686da0be0c20637d2ffc6c84","66b8d74a8ce8e0d943a6b205","","","","","","",""
"","2694","image-button-response","1","null","30564","686d62ec803998618dffb3d1","686da0be0c20637d2ffc6c84","66b8d74a8ce8e0d943a6b205","false","true","car","stimuli/prep_trials/1_car_prep.png","3","Car",""
"","2139","image-button-response","2","null","33216","686d62ec803998618dffb3d1","686da0be0c20637d2ffc6c84","66b8d74a8ce8e0d943a6b205","false","true","cat","stimuli/prep_trials/0_cat_prep.jpg","4","Cat",""
"","4138","image-button-response","3","null","37865","686d62ec803998618dffb3d1","686da0be0c20637d2ffc6c84","66b8d74a8ce8e0d943a6b205","false","false","House","https://kisumu-drawings.s3-us-west-1.amazonaws.com/83-012.png","8","House","83-012.png"
"","3346","image-button-response","4","null","41716","686d62ec803998618dffb3d1","686da0be0c20637d2ffc6c84","66b8d74a8ce8e0d943a6b205","false","false","Rabbit","https://kisumu-drawings.s3-us-west-1.amazonaws.com/36-005.png","9","Rabbit","36-005.png"
"","3068","image-button-response","5","null","45300","686d62ec803998618dffb3d1","686da0be0c20637d2ffc6c84","66b8d74a8ce8e0d943a6b205","false","false","House","https://kisumu-drawings.s3-us-west-1.amazonaws.com/119-016.png","8","House","119-016.png"
"","7085","image-button-response","6","null","52900","686d62ec803998618dffb3d1","686da0be0c20637d2ffc6c84","66b8d74a8ce8e0d943a6b205","false","false","Chair","https://kisumu-drawings.s3-us-west-1.amazonaws.com/79-010.png","5","Chair","79-010.png"
"","12252","image-button-response","7","null","65666","686d62ec803998618dffb3d1","686da0be0c20637d2ffc6c84","66b8d74a8ce8e0d943a6b205","false","false","Watch","https://kisumu-drawings.s3-us-west-1.amazonaws.com/14-008.png","6","Cup","14-008.png"
"","4698","image-button-response","8","null","70882","686d62ec803998618dffb3d1","686da0be0c20637d2ffc6c84","66b8d74a8ce8e0d943a6b205","false","false","Cup","https://kisumu-drawings.s3-us-west-1.amazonaws.com/38-010.png","6","Cup","38-010.png"
"","3639","image-button-response","9","null","75084","686d62ec803998618dffb3d1","686da0be0c20637d2ffc6c84","66b8d74a8ce8e0d943a6b205","false","false","Cup","https://kisumu-drawings.s3-us-west-1.amazonaws.com/15-015.png","6","Cup","15-015.png"
"","3435","image-button-response","10","null","79032","686d62ec803998618dffb3d1","686da0be0c20637d2ffc6c84","66b8d74a8ce8e0d943a6b205","false","false","Bird","https://kisumu-drawings.s3-us-west-1.amazonaws.com/101-012.png","2","Bird","101-012.png"
"","3013","image-button-response","11","null","82550","686d62ec803998618dffb3d1","686da0be0c20637d2ffc6c84","66b8d74a8ce8e0d943a6b205","false","false","Bicycle","https://kisumu-drawings.s3-us-west-1.amazonaws.com/37-009.png","2","Bird","37-009.png"
"","5936","image-button-response","12","null","89000","686d62ec803998618dffb3d1","686da0be0c20637d2ffc6c84","66b8d74a8ce8e0d943a6b205","false","false","Car","https://kisumu-drawings.s3-us-west-1.amazonaws.com/39-006.png","3","Car","39-006.png"
"","17613","image-button-response","13","null","107132","686d62ec803998618dffb3d1","686da0be0c20637d2ffc6c84","66b8d74a8ce8e0d943a6b205","false","false","Hat","https://kisumu-drawings.s3-us-west-1.amazonaws.com/119-007.png","3","Car","119-007.png"
"","11355","image-button-response","14","null","119000","686d62ec803998618dffb3d1","686da0be0c20637d2ffc6c84","66b8d74a8ce8e0d943a6b205","false","false","Cat","https://kisumu-drawings.s3-us-west-1.amazonaws.com/6-011.png","8","House","6-011.png"
"","6902","image-button-response","15","null","126415","686d62ec803998618dffb3d1","686da0be0c20637d2ffc6c84","66b8d74a8ce8e0d943a6b205","false","false","Bicycle","https://kisumu-drawings.s3-us-west-1.amazonaws.com/101-016.png","3","Car","101-016.png"
"","9500","image-button-response","16","null","136430","686d62ec803998618dffb3d1","686da0be0c20637d2ffc6c84","66b8d74a8ce8e0d943a6b205","false","false","Tree","https://kisumu-drawings.s3-us-west-1.amazonaws.com/10-011.png","10","Tree","10-011.png"
"","2850","image-button-response","17","null","139784","686d62ec803998618dffb3d1","686da0be0c20637d2ffc6c84","66b8d74a8ce8e0d943a6b205","false","false","Tree","https://kisumu-drawings.s3-us-west-1.amazonaws.com/97-016.png","10","Tree","97-016.png"
"","6655","image-button-response","18","null","146950","686d62ec803998618dffb3d1","686da0be0c20637d2ffc6c84","66b8d74a8ce8e0d943a6b205","false","false","Hat","https://kisumu-drawings.s3-us-west-1.amazonaws.com/13-008.png","5","Chair","13-008.png"
"","7755","image-button-response","19","null","155216","686d62ec803998618dffb3d1","686da0be0c20637d2ffc6c84","66b8d74a8ce8e0d943a6b205","false","false","Cup","https://kisumu-drawings.s3-us-west-1.amazonaws.com/42-014.png","6","Cup","42-014.png"
"","4170","image-button-response","20","null","159899","686d62ec803998618dffb3d1","686da0be0c20637d2ffc6c84","66b8d74a8ce8e0d943a6b205","false","false","Tree","https://kisumu-drawings.s3-us-west-1.amazonaws.com/120-013.png","10","Tree","120-013.png"
"","11189","image-button-response","21","null","171599","686d62ec803998618dffb3d1","686da0be0c20637d2ffc6c84","66b8d74a8ce8e0d943a6b205","false","false","Tree","https://kisumu-drawings.s3-us-west-1.amazonaws.com/39-013.png","2","Bird","39-013.png"
"","21955","image-button-response","22","null","194066","686d62ec803998618dffb3d1","686da0be0c20637d2ffc6c84","66b8d74a8ce8e0d943a6b205","false","false","House","https://kisumu-drawings.s3-us-west-1.amazonaws.com/47-007.png","8","House","47-007.png"
"","4302","image-button-response","23","null","198883","686d62ec803998618dffb3d1","686da0be0c20637d2ffc6c84","66b8d74a8ce8e0d943a6b205","false","false","Hat","https://kisumu-drawings.s3-us-west-1.amazonaws.com/41-016.png","7","Hat","41-016.png"
"","9026","image-button-response","24","null","208415","686d62ec803998618dffb3d1","686da0be0c20637d2ffc6c84","66b8d74a8ce8e0d943a6b205","false","false","Bicycle","https://kisumu-drawings.s3-us-west-1.amazonaws.com/78-006.png","1","Bicycle","78-006.png"
"","4371","image-button-response","25","null","213299","686d62ec803998618dffb3d1","686da0be0c20637d2ffc6c84","66b8d74a8ce8e0d943a6b205","false","false","House","https://kisumu-drawings.s3-us-west-1.amazonaws.com/30-013.png","8","House","30-013.png"
"","6201","image-button-response","26","null","220016","686d62ec803998618dffb3d1","686da0be0c20637d2ffc6c84","66b8d74a8ce8e0d943a6b205","false","false","Airplane","https://kisumu-drawings.s3-us-west-1.amazonaws.com/120-005.png","3","Car","120-005.png"
"","6005","image-button-response","27","null","226532","686d62ec803998618dffb3d1","686da0be0c20637d2ffc6c84","66b8d74a8ce8e0d943a6b205","false","false","Airplane","https://kisumu-drawings.s3-us-west-1.amazonaws.com/87-005.png","0","Airplane","87-005.png"
"","2434","image-button-response","28","null","229480","686d62ec803998618dffb3d1","686da0be0c20637d2ffc6c84","66b8d74a8ce8e0d943a6b205","false","false","Bird","https://kisumu-drawings.s3-us-west-1.amazonaws.com/98-013.png","0","Airplane","98-013.png"
"","5330","image-button-response","29","null","235315","686d62ec803998618dffb3d1","686da0be0c20637d2ffc6c84","66b8d74a8ce8e0d943a6b205","false","false","Bird","https://kisumu-drawings.s3-us-west-1.amazonaws.com/1-014.png","2","Bird","1-014.png"
"","2970","image-button-response","30","null","238798","686d62ec803998618dffb3d1","686da0be0c20637d2ffc6c84","66b8d74a8ce8e0d943a6b205","false","false","Chair","https://kisumu-drawings.s3-us-west-1.amazonaws.com/47-013.png","8","House","47-013.png"
"","3102","image-button-response","31","null","242416","686d62ec803998618dffb3d1","686da0be0c20637d2ffc6c84","66b8d74a8ce8e0d943a6b205","false","false","Tree","https://kisumu-drawings.s3-us-west-1.amazonaws.com/54-011.png","10","Tree","54-011.png"
"","5937","image-button-response","32","null","248865","686d62ec803998618dffb3d1","686da0be0c20637d2ffc6c84","66b8d74a8ce8e0d943a6b205","false","false","Chair","https://kisumu-drawings.s3-us-west-1.amazonaws.com/87-007.png","5","Chair","87-007.png"
"","6456","image-button-response","33","null","255832","686d62ec803998618dffb3d1","686da0be0c20637d2ffc6c84","66b8d74a8ce8e0d943a6b205","false","false","Airplane","https://kisumu-drawings.s3-us-west-1.amazonaws.com/78-008.png","0","Airplane","78-008.png"
"","10005","image-button-response","34","null","266349","686d62ec803998618dffb3d1","686da0be0c20637d2ffc6c84","66b8d74a8ce8e0d943a6b205","false","false","Cat","https://kisumu-drawings.s3-us-west-1.amazonaws.com/57-008.png","4","Cat","57-008.png"
"","6004","image-button-response","35","null","272865","686d62ec803998618dffb3d1","686da0be0c20637d2ffc6c84","66b8d74a8ce8e0d943a6b205","false","false","Watch","https://kisumu-drawings.s3-us-west-1.amazonaws.com/54-012.png","11","Watch","54-012.png"
"","2136","image-button-response","36","null","275513","686d62ec803998618dffb3d1","686da0be0c20637d2ffc6c84","66b8d74a8ce8e0d943a6b205","false","false","Watch","https://kisumu-drawings.s3-us-west-1.amazonaws.com/78-014.png","11","Watch","78-014.png"
"","3736","image-button-response","37","null","279765","686d62ec803998618dffb3d1","686da0be0c20637d2ffc6c84","66b8d74a8ce8e0d943a6b205","false","false","Bird","https://kisumu-drawings.s3-us-west-1.amazonaws.com/80-008.png","2","Bird","80-008.png"
"","2368","image-button-response","38","null","282651","686d62ec803998618dffb3d1","686da0be0c20637d2ffc6c84","66b8d74a8ce8e0d943a6b205","false","false","Hat","https://kisumu-drawings.s3-us-west-1.amazonaws.com/86-006.png","7","Hat","86-006.png"
"","6579","image-button-response","39","null","289747","686d62ec803998618dffb3d1","686da0be0c20637d2ffc6c84","66b8d74a8ce8e0d943a6b205","false","false","Rabbit","https://kisumu-drawings.s3-us-west-1.amazonaws.com/61-009.png","9","Rabbit","61-009.png"
"","10172","image-button-response","40","null","300432","686d62ec803998618dffb3d1","686da0be0c20637d2ffc6c84","66b8d74a8ce8e0d943a6b205","false","false","Cup","https://kisumu-drawings.s3-us-west-1.amazonaws.com/112-009.png","6","Cup","112-009.png"
"","15171","image-button-response","41","null","316115","686d62ec803998618dffb3d1","686da0be0c20637d2ffc6c84","66b8d74a8ce8e0d943a6b205","false","false","Watch","https://kisumu-drawings.s3-us-west-1.amazonaws.com/93-016.png","11","Watch","93-016.png"
"","8354","image-button-response","42","null","324981","686d62ec803998618dffb3d1","686da0be0c20637d2ffc6c84","66b8d74a8ce8e0d943a6b205","false","false","Hat","https://kisumu-drawings.s3-us-west-1.amazonaws.com/39-016.png","10","Tree","39-016.png"
"","12686","image-button-response","43","null","338181","686d62ec803998618dffb3d1","686da0be0c20637d2ffc6c84","66b8d74a8ce8e0d943a6b205","false","false","Rabbit","https://kisumu-drawings.s3-us-west-1.amazonaws.com/82-009.png","0","Airplane","82-009.png"
"","8819","image-button-response","44","null","347513","686d62ec803998618dffb3d1","686da0be0c20637d2ffc6c84","66b8d74a8ce8e0d943a6b205","false","false","Rabbit","https://kisumu-drawings.s3-us-west-1.amazonaws.com/116-016.png","9","Rabbit","116-016.png"
"","3611","image-button-response","45","null","351640","686d62ec803998618dffb3d1","686da0be0c20637d2ffc6c84","66b8d74a8ce8e0d943a6b205","false","false","Bird","https://kisumu-drawings.s3-us-west-1.amazonaws.com/41-008.png","0","Airplane","41-008.png"
"","5028","image-button-response","46","null","357180","686d62ec803998618dffb3d1","686da0be0c20637d2ffc6c84","66b8d74a8ce8e0d943a6b205","false","false","Rabbit","https://kisumu-drawings.s3-us-west-1.amazonaws.com/47-010.png","4","Cat","47-010.png"
"","6202","image-button-response","47","null","363897","686d62ec803998618dffb3d1","686da0be0c20637d2ffc6c84","66b8d74a8ce8e0d943a6b205","false","false","Bird","https://kisumu-drawings.s3-us-west-1.amazonaws.com/37-006.png","3","Car","37-006.png"
"","7220","image-button-response","48","null","371629","686d62ec803998618dffb3d1","686da0be0c20637d2ffc6c84","66b8d74a8ce8e0d943a6b205","false","false","Airplane","https://kisumu-drawings.s3-us-west-1.amazonaws.com/37-008.png","0","Airplane","37-008.png"
"","8188","image-button-response","49","null","380331","686d62ec803998618dffb3d1","686da0be0c20637d2ffc6c84","66b8d74a8ce8e0d943a6b205","false","false","Cat","https://kisumu-drawings.s3-us-west-1.amazonaws.com/119-011.png","4","Cat","119-011.png"
"","4900","image-button-response","50","null","385745","686d62ec803998618dffb3d1","686da0be0c20637d2ffc6c84","66b8d74a8ce8e0d943a6b205","false","false","House","https://kisumu-drawings.s3-us-west-1.amazonaws.com/80-005.png","8","House","80-005.png"
"","4355","image-button-response","51","null","390614","686d62ec803998618dffb3d1","686da0be0c20637d2ffc6c84","66b8d74a8ce8e0d943a6b205","false","false","Tree","https://kisumu-drawings.s3-us-west-1.amazonaws.com/72-006.png","10","Tree","72-006.png"
"","12520","image-button-response","52","null","403650","686d62ec803998618dffb3d1","686da0be0c20637d2ffc6c84","66b8d74a8ce8e0d943a6b205","false","false","Rabbit","https://kisumu-drawings.s3-us-west-1.amazonaws.com/13-007.png","11","Watch","13-007.png"
"","7452","image-button-response","53","null","411615","686d62ec803998618dffb3d1","686da0be0c20637d2ffc6c84","66b8d74a8ce8e0d943a6b205","false","false","Hat","https://kisumu-drawings.s3-us-west-1.amazonaws.com/72-011.png","8","House","72-011.png"
"","17499","image-button-response","54","null","429631","686d62ec803998618dffb3d1","686da0be0c20637d2ffc6c84","66b8d74a8ce8e0d943a6b205","false","false","House","https://kisumu-drawings.s3-us-west-1.amazonaws.com/1-009.png","4","Cat","1-009.png"
"","4135","image-button-response","55","null","434280","686d62ec803998618dffb3d1","686da0be0c20637d2ffc6c84","66b8d74a8ce8e0d943a6b205","false","false","Cup","https://kisumu-drawings.s3-us-west-1.amazonaws.com/86-005.png","6","Cup","86-005.png"
"","3769","image-button-response","56","null","438565","686d62ec803998618dffb3d1","686da0be0c20637d2ffc6c84","66b8d74a8ce8e0d943a6b205","false","false","Chair","https://kisumu-drawings.s3-us-west-1.amazonaws.com/40-008.png","5","Chair","40-008.png"
"","4186","image-button-response","57","null","443264","686d62ec803998618dffb3d1","686da0be0c20637d2ffc6c84","66b8d74a8ce8e0d943a6b205","false","false","Car","https://kisumu-drawings.s3-us-west-1.amazonaws.com/79-008.png","3","Car","79-008.png"
"","10019","image-button-response","58","null","453797","686d62ec803998618dffb3d1","686da0be0c20637d2ffc6c84","66b8d74a8ce8e0d943a6b205","false","false","Car","https://kisumu-drawings.s3-us-west-1.amazonaws.com/6-010.png","6","Cup","6-010.png"
"","5267","image-button-response","59","null","459580","686d62ec803998618dffb3d1","686da0be0c20637d2ffc6c84","66b8d74a8ce8e0d943a6b205","false","false","Chair","https://kisumu-drawings.s3-us-west-1.amazonaws.com/119-013.png","5","Chair","119-013.png"
"","4451","image-button-response","60","null","464546","686d62ec803998618dffb3d1","686da0be0c20637d2ffc6c84","66b8d74a8ce8e0d943a6b205","false","false","Cat","https://kisumu-drawings.s3-us-west-1.amazonaws.com/100-011.png","4","Cat","100-011.png"
"","2905","image-button-response","61","null","467964","686d62ec803998618dffb3d1","686da0be0c20637d2ffc6c84","66b8d74a8ce8e0d943a6b205","false","false","Car","https://kisumu-drawings.s3-us-west-1.amazonaws.com/43-016.png","3","Car","43-016.png"
"","3233","image-button-response","62","null","471715","686d62ec803998618dffb3d1","686da0be0c20637d2ffc6c84","66b8d74a8ce8e0d943a6b205","false","false","Cat","https://kisumu-drawings.s3-us-west-1.amazonaws.com/73-009.png","4","Cat","73-009.png"
"","4264","image-button-response","63","null","476489","686d62ec803998618dffb3d1","686da0be0c20637d2ffc6c84","66b8d74a8ce8e0d943a6b205","false","false","Bicycle","https://kisumu-drawings.s3-us-west-1.amazonaws.com/18-012.png","6","Cup","18-012.png"
"","5836","image-button-response","64","null","482836","686d62ec803998618dffb3d1","686da0be0c20637d2ffc6c84","66b8d74a8ce8e0d943a6b205","false","false","Car","https://kisumu-drawings.s3-us-west-1.amazonaws.com/94-014.png","3","Car","94-014.png"
"","3953","image-button-response","65","null","487297","686d62ec803998618dffb3d1","686da0be0c20637d2ffc6c84","66b8d74a8ce8e0d943a6b205","false","false","Chair","https://kisumu-drawings.s3-us-west-1.amazonaws.com/19-010.png","6","Cup","19-010.png"
"","7543","image-button-response","66","null","495345","686d62ec803998618dffb3d1","686da0be0c20637d2ffc6c84","66b8d74a8ce8e0d943a6b205","false","false","Watch","https://kisumu-drawings.s3-us-west-1.amazonaws.com/118-014.png","11","Watch","118-014.png"
"","2913","image-button-response","67","null","498765","686d62ec803998618dffb3d1","686da0be0c20637d2ffc6c84","66b8d74a8ce8e0d943a6b205","false","false","Cup","https://kisumu-drawings.s3-us-west-1.amazonaws.com/62-012.png","6","Cup","62-012.png"
"","6049","image-button-response","68","null","505330","686d62ec803998618dffb3d1","686da0be0c20637d2ffc6c84","66b8d74a8ce8e0d943a6b205","false","false","Airplane","https://kisumu-drawings.s3-us-west-1.amazonaws.com/11-010.png","10","Tree","11-010.png"
"","4921","image-button-response","69","null","510763","686d62ec803998618dffb3d1","686da0be0c20637d2ffc6c84","66b8d74a8ce8e0d943a6b205","false","false","Cat","https://kisumu-drawings.s3-us-west-1.amazonaws.com/35-012.png","4","Cat","35-012.png"
"","3954","image-button-response","70","null","515230","686d62ec803998618dffb3d1","686da0be0c20637d2ffc6c84","66b8d74a8ce8e0d943a6b205","false","false","Car","https://kisumu-drawings.s3-us-west-1.amazonaws.com/120-008.png","3","Car","120-008.png"
"","3037","image-button-response","71","null","518780","686d62ec803998618dffb3d1","686da0be0c20637d2ffc6c84","66b8d74a8ce8e0d943a6b205","false","false","Bicycle","https://kisumu-drawings.s3-us-west-1.amazonaws.com/87-015.png","3","Car","87-015.png"
"","1701","image-button-response","72","null","520996","686d62ec803998618dffb3d1","686da0be0c20637d2ffc6c84","66b8d74a8ce8e0d943a6b205","false","false","Bicycle","https://kisumu-drawings.s3-us-west-1.amazonaws.com/50-006.png","3","Car","50-006.png"
"","2149","image-button-response","73","null","523663","686d62ec803998618dffb3d1","686da0be0c20637d2ffc6c84","66b8d74a8ce8e0d943a6b205","true","false","airplane","stimuli/catch_trials/0_airplane_catch.jpg","0","Airplane",""
"","6435","image-button-response","74","null","530613","686d62ec803998618dffb3d1","686da0be0c20637d2ffc6c84","66b8d74a8ce8e0d943a6b205","false","false","Airplane","https://kisumu-drawings.s3-us-west-1.amazonaws.com/45-014.png","3","Car","45-014.png"
"","4951","image-button-response","75","null","536079","686d62ec803998618dffb3d1","686da0be0c20637d2ffc6c84","66b8d74a8ce8e0d943a6b205","false","false","Watch","https://kisumu-drawings.s3-us-west-1.amazonaws.com/27-013.png","4","Cat","27-013.png"
