"view_history","rt","trial_type","trial_index","plugin_version","time_elapsed","study_id","session_id","participant_id","catch_trial","prep_trial","sketcher_category","stimulus","response","response_category","sketch_id"
"[{""page_index"":0,""viewing_time"":8620},{""page_index"":1,""viewing_time"":10233},{""page_index"":2,""viewing_time"":5550},{""page_index"":3,""viewing_time"":3567}]","27970","instructions","0","null","27984","686d62ec803998618dffb3d1","686dbbfe392a0366b86ef8c0","671c5ad0eb30c87c11b22ec4","","","","","","",""
"","3758","image-button-response","1","null","32750","686d62ec803998618dffb3d1","686dbbfe392a0366b86ef8c0","671c5ad0eb30c87c11b22ec4","false","true","car","stimuli/prep_trials/1_car_prep.png","3","Car",""
"","3036","image-button-response","2","null","36300","686d62ec803998618dffb3d1","686dbbfe392a0366b86ef8c0","671c5ad0eb30c87c11b22ec4","false","true","cat","stimuli/prep_trials/0_cat_prep.jpg","4","Cat",""
"","3629","image-button-response","3","null","40433","686d62ec803998618dffb3d1","686dbbfe392a0366b86ef8c0","671c5ad0eb30c87c11b22ec4","false","false","Rabbit","https://kisumu-drawings.s3-us-west-1.amazonaws.com/39-012.png","7","Hat","39-012.png"
"","2669","image-button-response","4","null","43617","686d62ec803998618dffb3d1","686dbbfe392a0366b86ef8c0","671c5ad0eb30c87c11b22ec4","false","false","Bird","https://kisumu-drawings.s3-us-west-1.amazonaws.com/61-006.png","2","Bird","61-006.png"
"","7330","image-button-response","5","null","51450","686d62ec803998618dffb3d1","686dbbfe392a0366b86ef8c0","671c5ad0eb30c87c11b22ec4","false","false","Hat","https://kisumu-drawings.s3-us-west-1.amazonaws.com/32-015.png","11","Watch","32-015.png"
"","2929","image-button-response","6","null","54883","686d62ec803998618dffb3d1","686dbbfe392a0366b86ef8c0","671c5ad0eb30c87c11b22ec4","false","false","Hat","https://kisumu-drawings.s3-us-west-1.amazonaws.com/43-006.png","7","Hat","43-006.png"
"","2046","image-button-response","7","null","57433","686d62ec803998618dffb3d1","686dbbfe392a0366b86ef8c0","671c5ad0eb30c87c11b22ec4","false","false","Cup","https://kisumu-drawings.s3-us-west-1.amazonaws.com/72-010.png","6","Cup","72-010.png"
"","12078","image-button-response","8","null","70014","686d62ec803998618dffb3d1","686dbbfe392a0366b86ef8c0","671c5ad0eb30c87c11b22ec4","false","false","Bicycle","https://kisumu-drawings.s3-us-west-1.amazonaws.com/26-005.png","1","Bicycle","26-005.png"
"","4698","image-button-response","9","null","75216","686d62ec803998618dffb3d1","686dbbfe392a0366b86ef8c0","671c5ad0eb30c87c11b22ec4","false","false","Cat","https://kisumu-drawings.s3-us-west-1.amazonaws.com/118-005.png","4","Cat","118-005.png"
"","2429","image-button-response","10","null","78149","686d62ec803998618dffb3d1","686dbbfe392a0366b86ef8c0","671c5ad0eb30c87c11b22ec4","false","false","Bicycle","https://kisumu-drawings.s3-us-west-1.amazonaws.com/76-012.png","3","Car","76-012.png"
"","13732","image-button-response","11","null","92384","686d62ec803998618dffb3d1","686dbbfe392a0366b86ef8c0","671c5ad0eb30c87c11b22ec4","false","false","Bicycle","https://kisumu-drawings.s3-us-west-1.amazonaws.com/50-006.png","1","Bicycle","50-006.png"
"","2462","image-button-response","12","null","95349","686d62ec803998618dffb3d1","686dbbfe392a0366b86ef8c0","671c5ad0eb30c87c11b22ec4","false","false","Watch","https://kisumu-drawings.s3-us-west-1.amazonaws.com/106-006.png","11","Watch","106-006.png"
"","1829","image-button-response","13","null","97682","686d62ec803998618dffb3d1","686dbbfe392a0366b86ef8c0","671c5ad0eb30c87c11b22ec4","false","false","Cup","https://kisumu-drawings.s3-us-west-1.amazonaws.com/100-008.png","6","Cup","100-008.png"
"","28681","image-button-response","14","null","126866","686d62ec803998618dffb3d1","686dbbfe392a0366b86ef8c0","671c5ad0eb30c87c11b22ec4","false","false","Bicycle","https://kisumu-drawings.s3-us-west-1.amazonaws.com/13-010.png","10","Tree","13-010.png"
"","11297","image-button-response","15","null","138666","686d62ec803998618dffb3d1","686dbbfe392a0366b86ef8c0","671c5ad0eb30c87c11b22ec4","false","false","Chair","https://kisumu-drawings.s3-us-west-1.amazonaws.com/36-013.png","5","Chair","36-013.png"
"","1780","image-button-response","16","null","140948","686d62ec803998618dffb3d1","686dbbfe392a0366b86ef8c0","671c5ad0eb30c87c11b22ec4","false","false","Chair","https://kisumu-drawings.s3-us-west-1.amazonaws.com/87-007.png","5","Chair","87-007.png"
"","2698","image-button-response","17","null","144149","686d62ec803998618dffb3d1","686dbbfe392a0366b86ef8c0","671c5ad0eb30c87c11b22ec4","false","false","Car","https://kisumu-drawings.s3-us-west-1.amazonaws.com/73-012.png","8","House","73-012.png"
"","10229","image-button-response","18","null","154880","686d62ec803998618dffb3d1","686dbbfe392a0366b86ef8c0","671c5ad0eb30c87c11b22ec4","false","false","Bird","https://kisumu-drawings.s3-us-west-1.amazonaws.com/33-007.png","0","Airplane","33-007.png"
"","4149","image-button-response","19","null","159533","686d62ec803998618dffb3d1","686dbbfe392a0366b86ef8c0","671c5ad0eb30c87c11b22ec4","false","false","Rabbit","https://kisumu-drawings.s3-us-west-1.amazonaws.com/85-010.png","9","Rabbit","85-010.png"
"","8714","image-button-response","20","null","168748","686d62ec803998618dffb3d1","686dbbfe392a0366b86ef8c0","671c5ad0eb30c87c11b22ec4","false","false","Tree","https://kisumu-drawings.s3-us-west-1.amazonaws.com/31-015.png","2","Bird","31-015.png"
"","2732","image-button-response","21","null","171983","686d62ec803998618dffb3d1","686dbbfe392a0366b86ef8c0","671c5ad0eb30c87c11b22ec4","false","false","House","https://kisumu-drawings.s3-us-west-1.amazonaws.com/15-005.png","8","House","15-005.png"
"","1747","image-button-response","22","null","174233","686d62ec803998618dffb3d1","686dbbfe392a0366b86ef8c0","671c5ad0eb30c87c11b22ec4","false","false","Hat","https://kisumu-drawings.s3-us-west-1.amazonaws.com/86-006.png","7","Hat","86-006.png"
"","1813","image-button-response","23","null","176549","686d62ec803998618dffb3d1","686dbbfe392a0366b86ef8c0","671c5ad0eb30c87c11b22ec4","false","false","Bird","https://kisumu-drawings.s3-us-west-1.amazonaws.com/118-008.png","2","Bird","118-008.png"
"","2862","image-button-response","24","null","179913","686d62ec803998618dffb3d1","686dbbfe392a0366b86ef8c0","671c5ad0eb30c87c11b22ec4","false","false","Watch","https://kisumu-drawings.s3-us-west-1.amazonaws.com/14-008.png","10","Tree","14-008.png"
"","2032","image-button-response","25","null","182449","686d62ec803998618dffb3d1","686dbbfe392a0366b86ef8c0","671c5ad0eb30c87c11b22ec4","false","false","Chair","https://kisumu-drawings.s3-us-west-1.amazonaws.com/119-013.png","5","Chair","119-013.png"
"","3812","image-button-response","26","null","186764","686d62ec803998618dffb3d1","686dbbfe392a0366b86ef8c0","671c5ad0eb30c87c11b22ec4","false","false","Cat","https://kisumu-drawings.s3-us-west-1.amazonaws.com/37-012.png","4","Cat","37-012.png"
"","8664","image-button-response","27","null","195932","686d62ec803998618dffb3d1","686dbbfe392a0366b86ef8c0","671c5ad0eb30c87c11b22ec4","false","false","Airplane","https://kisumu-drawings.s3-us-west-1.amazonaws.com/14-012.png","11","Watch","14-012.png"
"","6714","image-button-response","28","null","203149","686d62ec803998618dffb3d1","686dbbfe392a0366b86ef8c0","671c5ad0eb30c87c11b22ec4","false","false","Rabbit","https://kisumu-drawings.s3-us-west-1.amazonaws.com/74-008.png","2","Bird","74-008.png"
"","11980","image-button-response","29","null","215631","686d62ec803998618dffb3d1","686dbbfe392a0366b86ef8c0","671c5ad0eb30c87c11b22ec4","false","false","House","https://kisumu-drawings.s3-us-west-1.amazonaws.com/31-013.png","9","Rabbit","31-013.png"
"","1815","image-button-response","30","null","217949","686d62ec803998618dffb3d1","686dbbfe392a0366b86ef8c0","671c5ad0eb30c87c11b22ec4","false","false","Chair","https://kisumu-drawings.s3-us-west-1.amazonaws.com/61-015.png","5","Chair","61-015.png"
"","1880","image-button-response","31","null","220332","686d62ec803998618dffb3d1","686dbbfe392a0366b86ef8c0","671c5ad0eb30c87c11b22ec4","false","false","Chair","https://kisumu-drawings.s3-us-west-1.amazonaws.com/18-014.png","11","Watch","18-014.png"
"","9864","image-button-response","32","null","230699","686d62ec803998618dffb3d1","686dbbfe392a0366b86ef8c0","671c5ad0eb30c87c11b22ec4","false","false","Bird","https://kisumu-drawings.s3-us-west-1.amazonaws.com/1-014.png","2","Bird","1-014.png"
"","2412","image-button-response","33","null","233615","686d62ec803998618dffb3d1","686dbbfe392a0366b86ef8c0","671c5ad0eb30c87c11b22ec4","false","false","House","https://kisumu-drawings.s3-us-west-1.amazonaws.com/81-015.png","8","House","81-015.png"
"","1696","image-button-response","34","null","235814","686d62ec803998618dffb3d1","686dbbfe392a0366b86ef8c0","671c5ad0eb30c87c11b22ec4","false","false","Watch","https://kisumu-drawings.s3-us-west-1.amazonaws.com/54-012.png","11","Watch","54-012.png"
"","1714","image-button-response","35","null","238031","686d62ec803998618dffb3d1","686dbbfe392a0366b86ef8c0","671c5ad0eb30c87c11b22ec4","false","false","Chair","https://kisumu-drawings.s3-us-west-1.amazonaws.com/42-007.png","5","Chair","42-007.png"
"","1796","image-button-response","36","null","240331","686d62ec803998618dffb3d1","686dbbfe392a0366b86ef8c0","671c5ad0eb30c87c11b22ec4","false","false","Cup","https://kisumu-drawings.s3-us-west-1.amazonaws.com/115-007.png","6","Cup","115-007.png"
"","2847","image-button-response","37","null","243681","686d62ec803998618dffb3d1","686dbbfe392a0366b86ef8c0","671c5ad0eb30c87c11b22ec4","false","false","Tree","https://kisumu-drawings.s3-us-west-1.amazonaws.com/14-007.png","10","Tree","14-007.png"
"","2979","image-button-response","38","null","247164","686d62ec803998618dffb3d1","686dbbfe392a0366b86ef8c0","671c5ad0eb30c87c11b22ec4","false","false","Cat","https://kisumu-drawings.s3-us-west-1.amazonaws.com/81-013.png","4","Cat","81-013.png"
"","3647","image-button-response","39","null","251314","686d62ec803998618dffb3d1","686dbbfe392a0366b86ef8c0","671c5ad0eb30c87c11b22ec4","false","false","Car","https://kisumu-drawings.s3-us-west-1.amazonaws.com/96-013.png","3","Car","96-013.png"
"","2582","image-button-response","40","null","254398","686d62ec803998618dffb3d1","686dbbfe392a0366b86ef8c0","671c5ad0eb30c87c11b22ec4","false","false","Airplane","https://kisumu-drawings.s3-us-west-1.amazonaws.com/77-006.png","2","Bird","77-006.png"
"","1764","image-button-response","41","null","256664","686d62ec803998618dffb3d1","686dbbfe392a0366b86ef8c0","671c5ad0eb30c87c11b22ec4","false","false","Tree","https://kisumu-drawings.s3-us-west-1.amazonaws.com/81-009.png","10","Tree","81-009.png"
"","6697","image-button-response","42","null","263864","686d62ec803998618dffb3d1","686dbbfe392a0366b86ef8c0","671c5ad0eb30c87c11b22ec4","false","false","Watch","https://kisumu-drawings.s3-us-west-1.amazonaws.com/76-007.png","11","Watch","76-007.png"
"","2797","image-button-response","43","null","267164","686d62ec803998618dffb3d1","686dbbfe392a0366b86ef8c0","671c5ad0eb30c87c11b22ec4","false","false","Cup","https://kisumu-drawings.s3-us-west-1.amazonaws.com/15-015.png","6","Cup","15-015.png"
"","2380","image-button-response","44","null","270047","686d62ec803998618dffb3d1","686dbbfe392a0366b86ef8c0","671c5ad0eb30c87c11b22ec4","false","false","Airplane","https://kisumu-drawings.s3-us-west-1.amazonaws.com/40-012.png","0","Airplane","40-012.png"
"","1814","image-button-response","45","null","272364","686d62ec803998618dffb3d1","686dbbfe392a0366b86ef8c0","671c5ad0eb30c87c11b22ec4","false","false","Airplane","https://kisumu-drawings.s3-us-west-1.amazonaws.com/100-014.png","0","Airplane","100-014.png"
"","1230","image-button-response","46","null","274098","686d62ec803998618dffb3d1","686dbbfe392a0366b86ef8c0","671c5ad0eb30c87c11b22ec4","false","false","Airplane","https://kisumu-drawings.s3-us-west-1.amazonaws.com/113-014.png","0","Airplane","113-014.png"
"","5395","image-button-response","47","null","279996","686d62ec803998618dffb3d1","686dbbfe392a0366b86ef8c0","671c5ad0eb30c87c11b22ec4","false","false","Car","https://kisumu-drawings.s3-us-west-1.amazonaws.com/39-006.png","11","Watch","39-006.png"
"","4365","image-button-response","48","null","284864","686d62ec803998618dffb3d1","686dbbfe392a0366b86ef8c0","671c5ad0eb30c87c11b22ec4","false","false","Car","https://kisumu-drawings.s3-us-west-1.amazonaws.com/119-010.png","3","Car","119-010.png"
"","1964","image-button-response","49","null","287331","686d62ec803998618dffb3d1","686dbbfe392a0366b86ef8c0","671c5ad0eb30c87c11b22ec4","false","false","Hat","https://kisumu-drawings.s3-us-west-1.amazonaws.com/13-008.png","10","Tree","13-008.png"
"","2464","image-button-response","50","null","290298","686d62ec803998618dffb3d1","686dbbfe392a0366b86ef8c0","671c5ad0eb30c87c11b22ec4","false","false","Cat","https://kisumu-drawings.s3-us-west-1.amazonaws.com/79-009.png","9","Rabbit","79-009.png"
"","4163","image-button-response","51","null","294963","686d62ec803998618dffb3d1","686dbbfe392a0366b86ef8c0","671c5ad0eb30c87c11b22ec4","false","false","Rabbit","https://kisumu-drawings.s3-us-west-1.amazonaws.com/6-008.png","10","Tree","6-008.png"
"","1664","image-button-response","52","null","297130","686d62ec803998618dffb3d1","686dbbfe392a0366b86ef8c0","671c5ad0eb30c87c11b22ec4","false","false","Watch","https://kisumu-drawings.s3-us-west-1.amazonaws.com/35-014.png","11","Watch","35-014.png"
"","1964","image-button-response","53","null","299598","686d62ec803998618dffb3d1","686dbbfe392a0366b86ef8c0","671c5ad0eb30c87c11b22ec4","false","false","Car","https://kisumu-drawings.s3-us-west-1.amazonaws.com/45-005.png","3","Car","45-005.png"
"","1664","image-button-response","54","null","301764","686d62ec803998618dffb3d1","686dbbfe392a0366b86ef8c0","671c5ad0eb30c87c11b22ec4","false","false","Tree","https://kisumu-drawings.s3-us-west-1.amazonaws.com/55-009.png","10","Tree","55-009.png"
"","2146","image-button-response","55","null","304414","686d62ec803998618dffb3d1","686dbbfe392a0366b86ef8c0","671c5ad0eb30c87c11b22ec4","false","false","Bicycle","https://kisumu-drawings.s3-us-west-1.amazonaws.com/115-008.png","1","Bicycle","115-008.png"
"","1482","image-button-response","56","null","306398","686d62ec803998618dffb3d1","686dbbfe392a0366b86ef8c0","671c5ad0eb30c87c11b22ec4","false","false","Tree","https://kisumu-drawings.s3-us-west-1.amazonaws.com/101-007.png","10","Tree","101-007.png"
"","1962","image-button-response","57","null","308864","686d62ec803998618dffb3d1","686dbbfe392a0366b86ef8c0","671c5ad0eb30c87c11b22ec4","false","false","Cup","https://kisumu-drawings.s3-us-west-1.amazonaws.com/33-014.png","6","Cup","33-014.png"
"","5446","image-button-response","58","null","314812","686d62ec803998618dffb3d1","686dbbfe392a0366b86ef8c0","671c5ad0eb30c87c11b22ec4","false","false","Hat","https://kisumu-drawings.s3-us-west-1.amazonaws.com/120-007.png","11","Watch","120-007.png"
"","1581","image-button-response","59","null","316897","686d62ec803998618dffb3d1","686dbbfe392a0366b86ef8c0","671c5ad0eb30c87c11b22ec4","false","false","Bicycle","https://kisumu-drawings.s3-us-west-1.amazonaws.com/84-009.png","1","Bicycle","84-009.png"
"","2830","image-button-response","60","null","320230","686d62ec803998618dffb3d1","686dbbfe392a0366b86ef8c0","671c5ad0eb30c87c11b22ec4","false","false","Rabbit","https://kisumu-drawings.s3-us-west-1.amazonaws.com/115-014.png","9","Rabbit","115-014.png"
"","1497","image-button-response","61","null","322231","686d62ec803998618dffb3d1","686dbbfe392a0366b86ef8c0","671c5ad0eb30c87c11b22ec4","true","false","airplane","stimuli/catch_trials/0_airplane_catch.jpg","0","Airplane",""
"","2480","image-button-response","62","null","325214","686d62ec803998618dffb3d1","686dbbfe392a0366b86ef8c0","671c5ad0eb30c87c11b22ec4","false","false","Cat","https://kisumu-drawings.s3-us-west-1.amazonaws.com/17-013.png","4","Cat","17-013.png"
"","1697","image-button-response","63","null","327414","686d62ec803998618dffb3d1","686dbbfe392a0366b86ef8c0","671c5ad0eb30c87c11b22ec4","false","false","Cup","https://kisumu-drawings.s3-us-west-1.amazonaws.com/42-014.png","6","Cup","42-014.png"
"","2313","image-button-response","64","null","330231","686d62ec803998618dffb3d1","686dbbfe392a0366b86ef8c0","671c5ad0eb30c87c11b22ec4","false","false","Cat","https://kisumu-drawings.s3-us-west-1.amazonaws.com/42-008.png","4","Cat","42-008.png"
"","1289","image-button-response","65","null","332022","686d62ec803998618dffb3d1","686dbbfe392a0366b86ef8c0","671c5ad0eb30c87c11b22ec4","false","false","Tree","https://kisumu-drawings.s3-us-west-1.amazonaws.com/78-016.png","10","Tree","78-016.png"
"","1755","image-button-response","66","null","334280","686d62ec803998618dffb3d1","686dbbfe392a0366b86ef8c0","671c5ad0eb30c87c11b22ec4","false","false","House","https://kisumu-drawings.s3-us-west-1.amazonaws.com/53-015.png","8","House","53-015.png"
"","2467","image-button-response","67","null","337248","686d62ec803998618dffb3d1","686dbbfe392a0366b86ef8c0","671c5ad0eb30c87c11b22ec4","false","false","Hat","https://kisumu-drawings.s3-us-west-1.amazonaws.com/76-011.png","11","Watch","76-011.png"
"","2514","image-button-response","68","null","340264","686d62ec803998618dffb3d1","686dbbfe392a0366b86ef8c0","671c5ad0eb30c87c11b22ec4","false","false","Bird","https://kisumu-drawings.s3-us-west-1.amazonaws.com/55-007.png","2","Bird","55-007.png"
"","1564","image-button-response","69","null","342330","686d62ec803998618dffb3d1","686dbbfe392a0366b86ef8c0","671c5ad0eb30c87c11b22ec4","false","false","Watch","https://kisumu-drawings.s3-us-west-1.amazonaws.com/85-012.png","11","Watch","85-012.png"
"","1732","image-button-response","70","null","344565","686d62ec803998618dffb3d1","686dbbfe392a0366b86ef8c0","671c5ad0eb30c87c11b22ec4","false","false","House","https://kisumu-drawings.s3-us-west-1.amazonaws.com/68-014.png","8","House","68-014.png"
"","2996","image-button-response","71","null","348064","686d62ec803998618dffb3d1","686dbbfe392a0366b86ef8c0","671c5ad0eb30c87c11b22ec4","false","false","Car","https://kisumu-drawings.s3-us-west-1.amazonaws.com/11-012.png","11","Watch","11-012.png"
"","1697","image-button-response","72","null","350264","686d62ec803998618dffb3d1","686dbbfe392a0366b86ef8c0","671c5ad0eb30c87c11b22ec4","false","false","House","https://kisumu-drawings.s3-us-west-1.amazonaws.com/112-007.png","8","House","112-007.png"
"","3014","image-button-response","73","null","353780","686d62ec803998618dffb3d1","686dbbfe392a0366b86ef8c0","671c5ad0eb30c87c11b22ec4","false","false","Bird","https://kisumu-drawings.s3-us-west-1.amazonaws.com/83-007.png","2","Bird","83-007.png"
"","2864","image-button-response","74","null","357147","686d62ec803998618dffb3d1","686dbbfe392a0366b86ef8c0","671c5ad0eb30c87c11b22ec4","false","false","Rabbit","https://kisumu-drawings.s3-us-west-1.amazonaws.com/41-012.png","4","Cat","41-012.png"
"","2947","image-button-response","75","null","360597","686d62ec803998618dffb3d1","686dbbfe392a0366b86ef8c0","671c5ad0eb30c87c11b22ec4","false","false","Airplane","https://kisumu-drawings.s3-us-west-1.amazonaws.com/42-016.png","0","Airplane","42-016.png"
