"view_history","rt","trial_type","trial_index","plugin_version","time_elapsed","study_id","session_id","participant_id","catch_trial","prep_trial","sketcher_category","stimulus","response","response_category","sketch_id"
"[{""page_index"":0,""viewing_time"":14238},{""page_index"":1,""viewing_time"":6400},{""page_index"":2,""viewing_time"":7568},{""page_index"":3,""viewing_time"":13056}]","41262","instructions","0","null","41271","686d62ec803998618dffb3d1","686da2f7864f46e0e983e0d1","673276b17430c6ece3a6d874","","","","","","",""
"","3106","image-button-response","1","null","45391","686d62ec803998618dffb3d1","686da2f7864f46e0e983e0d1","673276b17430c6ece3a6d874","false","true","car","stimuli/prep_trials/1_car_prep.png","3","Car",""
"","1384","image-button-response","2","null","47278","686d62ec803998618dffb3d1","686da2f7864f46e0e983e0d1","673276b17430c6ece3a6d874","false","true","cat","stimuli/prep_trials/0_cat_prep.jpg","4","Cat",""
"","12882","image-button-response","3","null","60662","686d62ec803998618dffb3d1","686da2f7864f46e0e983e0d1","673276b17430c6ece3a6d874","false","false","Bicycle","https://kisumu-drawings.s3-us-west-1.amazonaws.com/52-005.png","1","Bicycle","52-005.png"
"","4256","image-button-response","4","null","65422","686d62ec803998618dffb3d1","686da2f7864f46e0e983e0d1","673276b17430c6ece3a6d874","false","false","Hat","https://kisumu-drawings.s3-us-west-1.amazonaws.com/21-008.png","6","Cup","21-008.png"
"","4618","image-button-response","5","null","70542","686d62ec803998618dffb3d1","686da2f7864f46e0e983e0d1","673276b17430c6ece3a6d874","false","false","Bird","https://kisumu-drawings.s3-us-west-1.amazonaws.com/117-011.png","2","Bird","117-011.png"
"","2859","image-button-response","6","null","73918","686d62ec803998618dffb3d1","686da2f7864f46e0e983e0d1","673276b17430c6ece3a6d874","true","false","airplane","stimuli/catch_trials/0_airplane_catch.jpg","0","Airplane",""
"","15202","image-button-response","7","null","89622","686d62ec803998618dffb3d1","686da2f7864f46e0e983e0d1","673276b17430c6ece3a6d874","false","false","Rabbit","https://kisumu-drawings.s3-us-west-1.amazonaws.com/82-009.png","5","Chair","82-009.png"
"","8822","image-button-response","8","null","98951","686d62ec803998618dffb3d1","686da2f7864f46e0e983e0d1","673276b17430c6ece3a6d874","false","false","Watch","https://kisumu-drawings.s3-us-west-1.amazonaws.com/35-014.png","11","Watch","35-014.png"
"","22567","image-button-response","9","null","122022","686d62ec803998618dffb3d1","686da2f7864f46e0e983e0d1","673276b17430c6ece3a6d874","false","false","Tree","https://kisumu-drawings.s3-us-west-1.amazonaws.com/18-016.png","6","Cup","18-016.png"
"","3488","image-button-response","10","null","126014","686d62ec803998618dffb3d1","686da2f7864f46e0e983e0d1","673276b17430c6ece3a6d874","false","false","Airplane","https://kisumu-drawings.s3-us-west-1.amazonaws.com/46-006.png","0","Airplane","46-006.png"
"","4743","image-button-response","11","null","131262","686d62ec803998618dffb3d1","686da2f7864f46e0e983e0d1","673276b17430c6ece3a6d874","false","false","Watch","https://kisumu-drawings.s3-us-west-1.amazonaws.com/97-010.png","7","Hat","97-010.png"
"","3265","image-button-response","12","null","135030","686d62ec803998618dffb3d1","686da2f7864f46e0e983e0d1","673276b17430c6ece3a6d874","false","false","Chair","https://kisumu-drawings.s3-us-west-1.amazonaws.com/33-013.png","7","Hat","33-013.png"
"","2863","image-button-response","13","null","138398","686d62ec803998618dffb3d1","686da2f7864f46e0e983e0d1","673276b17430c6ece3a6d874","false","false","House","https://kisumu-drawings.s3-us-west-1.amazonaws.com/80-005.png","8","House","80-005.png"
"","2575","image-button-response","14","null","141486","686d62ec803998618dffb3d1","686da2f7864f46e0e983e0d1","673276b17430c6ece3a6d874","false","false","Cup","https://kisumu-drawings.s3-us-west-1.amazonaws.com/49-013.png","6","Cup","49-013.png"
"","8737","image-button-response","15","null","150726","686d62ec803998618dffb3d1","686da2f7864f46e0e983e0d1","673276b17430c6ece3a6d874","false","false","Hat","https://kisumu-drawings.s3-us-west-1.amazonaws.com/79-015.png","9","Rabbit","79-015.png"
"","3118","image-button-response","16","null","154350","686d62ec803998618dffb3d1","686da2f7864f46e0e983e0d1","673276b17430c6ece3a6d874","false","false","Bicycle","https://kisumu-drawings.s3-us-west-1.amazonaws.com/84-009.png","1","Bicycle","84-009.png"
"","2238","image-button-response","17","null","157094","686d62ec803998618dffb3d1","686da2f7864f46e0e983e0d1","673276b17430c6ece3a6d874","false","false","Bicycle","https://kisumu-drawings.s3-us-west-1.amazonaws.com/73-007.png","1","Bicycle","73-007.png"
"","9254","image-button-response","18","null","166870","686d62ec803998618dffb3d1","686da2f7864f46e0e983e0d1","673276b17430c6ece3a6d874","false","false","Cat","https://kisumu-drawings.s3-us-west-1.amazonaws.com/78-010.png","4","Cat","78-010.png"
"","7432","image-button-response","19","null","174806","686d62ec803998618dffb3d1","686da2f7864f46e0e983e0d1","673276b17430c6ece3a6d874","false","false","Airplane","https://kisumu-drawings.s3-us-west-1.amazonaws.com/100-014.png","0","Airplane","100-014.png"
"","4575","image-button-response","20","null","179894","686d62ec803998618dffb3d1","686da2f7864f46e0e983e0d1","673276b17430c6ece3a6d874","false","false","Airplane","https://kisumu-drawings.s3-us-west-1.amazonaws.com/119-012.png","0","Airplane","119-012.png"
"","36295","image-button-response","21","null","216694","686d62ec803998618dffb3d1","686da2f7864f46e0e983e0d1","673276b17430c6ece3a6d874","false","false","Car","https://kisumu-drawings.s3-us-west-1.amazonaws.com/83-009.png","4","Cat","83-009.png"
"","5514","image-button-response","22","null","222710","686d62ec803998618dffb3d1","686da2f7864f46e0e983e0d1","673276b17430c6ece3a6d874","false","false","Watch","https://kisumu-drawings.s3-us-west-1.amazonaws.com/11-016.png","2","Bird","11-016.png"
"","2871","image-button-response","23","null","226094","686d62ec803998618dffb3d1","686da2f7864f46e0e983e0d1","673276b17430c6ece3a6d874","false","false","Airplane","https://kisumu-drawings.s3-us-west-1.amazonaws.com/37-008.png","2","Bird","37-008.png"
"","2520","image-button-response","24","null","229126","686d62ec803998618dffb3d1","686da2f7864f46e0e983e0d1","673276b17430c6ece3a6d874","false","false","Cup","https://kisumu-drawings.s3-us-west-1.amazonaws.com/80-006.png","6","Cup","80-006.png"
"","2664","image-button-response","25","null","232294","686d62ec803998618dffb3d1","686da2f7864f46e0e983e0d1","673276b17430c6ece3a6d874","false","false","Watch","https://kisumu-drawings.s3-us-west-1.amazonaws.com/111-015.png","11","Watch","111-015.png"
"","3345","image-button-response","26","null","236150","686d62ec803998618dffb3d1","686da2f7864f46e0e983e0d1","673276b17430c6ece3a6d874","false","false","Hat","https://kisumu-drawings.s3-us-west-1.amazonaws.com/48-016.png","6","Cup","48-016.png"
"","4019","image-button-response","27","null","240686","686d62ec803998618dffb3d1","686da2f7864f46e0e983e0d1","673276b17430c6ece3a6d874","false","false","House","https://kisumu-drawings.s3-us-west-1.amazonaws.com/11-015.png","2","Bird","11-015.png"
"","3072","image-button-response","28","null","244262","686d62ec803998618dffb3d1","686da2f7864f46e0e983e0d1","673276b17430c6ece3a6d874","false","false","Car","https://kisumu-drawings.s3-us-west-1.amazonaws.com/74-016.png","3","Car","74-016.png"
"","4401","image-button-response","29","null","249166","686d62ec803998618dffb3d1","686da2f7864f46e0e983e0d1","673276b17430c6ece3a6d874","false","false","Chair","https://kisumu-drawings.s3-us-west-1.amazonaws.com/82-007.png","5","Chair","82-007.png"
"","4211","image-button-response","30","null","253894","686d62ec803998618dffb3d1","686da2f7864f46e0e983e0d1","673276b17430c6ece3a6d874","false","false","Cat","https://kisumu-drawings.s3-us-west-1.amazonaws.com/47-008.png","4","Cat","47-008.png"
"","2255","image-button-response","31","null","256670","686d62ec803998618dffb3d1","686da2f7864f46e0e983e0d1","673276b17430c6ece3a6d874","false","false","Chair","https://kisumu-drawings.s3-us-west-1.amazonaws.com/112-008.png","5","Chair","112-008.png"
"","2310","image-button-response","32","null","259486","686d62ec803998618dffb3d1","686da2f7864f46e0e983e0d1","673276b17430c6ece3a6d874","false","false","Cup","https://kisumu-drawings.s3-us-west-1.amazonaws.com/17-014.png","6","Cup","17-014.png"
"","6607","image-button-response","33","null","266608","686d62ec803998618dffb3d1","686da2f7864f46e0e983e0d1","673276b17430c6ece3a6d874","false","false","Tree","https://kisumu-drawings.s3-us-west-1.amazonaws.com/46-005.png","10","Tree","46-005.png"
"","3500","image-button-response","34","null","270622","686d62ec803998618dffb3d1","686da2f7864f46e0e983e0d1","673276b17430c6ece3a6d874","false","false","Airplane","https://kisumu-drawings.s3-us-west-1.amazonaws.com/15-011.png","6","Cup","15-011.png"
"","18770","image-button-response","35","null","289894","686d62ec803998618dffb3d1","686da2f7864f46e0e983e0d1","673276b17430c6ece3a6d874","false","false","Bird","https://kisumu-drawings.s3-us-west-1.amazonaws.com/1-014.png","10","Tree","1-014.png"
"","2257","image-button-response","36","null","292654","686d62ec803998618dffb3d1","686da2f7864f46e0e983e0d1","673276b17430c6ece3a6d874","false","false","Chair","https://kisumu-drawings.s3-us-west-1.amazonaws.com/41-006.png","5","Chair","41-006.png"
"","2636","image-button-response","37","null","295806","686d62ec803998618dffb3d1","686da2f7864f46e0e983e0d1","673276b17430c6ece3a6d874","false","false","Tree","https://kisumu-drawings.s3-us-west-1.amazonaws.com/84-005.png","10","Tree","84-005.png"
"","2522","image-button-response","38","null","298830","686d62ec803998618dffb3d1","686da2f7864f46e0e983e0d1","673276b17430c6ece3a6d874","false","false","Cup","https://kisumu-drawings.s3-us-west-1.amazonaws.com/112-009.png","6","Cup","112-009.png"
"","11978","image-button-response","39","null","311310","686d62ec803998618dffb3d1","686da2f7864f46e0e983e0d1","673276b17430c6ece3a6d874","false","false","Cat","https://kisumu-drawings.s3-us-west-1.amazonaws.com/15-014.png","6","Cup","15-014.png"
"","3919","image-button-response","40","null","315734","686d62ec803998618dffb3d1","686da2f7864f46e0e983e0d1","673276b17430c6ece3a6d874","false","false","Rabbit","https://kisumu-drawings.s3-us-west-1.amazonaws.com/36-005.png","9","Rabbit","36-005.png"
"","2949","image-button-response","41","null","319190","686d62ec803998618dffb3d1","686da2f7864f46e0e983e0d1","673276b17430c6ece3a6d874","false","false","Chair","https://kisumu-drawings.s3-us-west-1.amazonaws.com/19-010.png","2","Bird","19-010.png"
"","2442","image-button-response","42","null","322142","686d62ec803998618dffb3d1","686da2f7864f46e0e983e0d1","673276b17430c6ece3a6d874","false","false","Tree","https://kisumu-drawings.s3-us-west-1.amazonaws.com/104-007.png","10","Tree","104-007.png"
"","2210","image-button-response","43","null","324870","686d62ec803998618dffb3d1","686da2f7864f46e0e983e0d1","673276b17430c6ece3a6d874","false","false","Rabbit","https://kisumu-drawings.s3-us-west-1.amazonaws.com/19-007.png","10","Tree","19-007.png"
"","2181","image-button-response","44","null","327558","686d62ec803998618dffb3d1","686da2f7864f46e0e983e0d1","673276b17430c6ece3a6d874","false","false","Cup","https://kisumu-drawings.s3-us-west-1.amazonaws.com/40-010.png","6","Cup","40-010.png"
"","2898","image-button-response","45","null","330958","686d62ec803998618dffb3d1","686da2f7864f46e0e983e0d1","673276b17430c6ece3a6d874","false","false","Bicycle","https://kisumu-drawings.s3-us-west-1.amazonaws.com/37-009.png","9","Rabbit","37-009.png"
"","3873","image-button-response","46","null","335334","686d62ec803998618dffb3d1","686da2f7864f46e0e983e0d1","673276b17430c6ece3a6d874","false","false","Bird","https://kisumu-drawings.s3-us-west-1.amazonaws.com/49-008.png","2","Bird","49-008.png"
"","3856","image-button-response","47","null","339702","686d62ec803998618dffb3d1","686da2f7864f46e0e983e0d1","673276b17430c6ece3a6d874","false","false","Car","https://kisumu-drawings.s3-us-west-1.amazonaws.com/50-015.png","3","Car","50-015.png"
"","3001","image-button-response","48","null","343206","686d62ec803998618dffb3d1","686da2f7864f46e0e983e0d1","673276b17430c6ece3a6d874","false","false","Hat","https://kisumu-drawings.s3-us-west-1.amazonaws.com/19-005.png","0","Airplane","19-005.png"
"","2812","image-button-response","49","null","346534","686d62ec803998618dffb3d1","686da2f7864f46e0e983e0d1","673276b17430c6ece3a6d874","false","false","Rabbit","https://kisumu-drawings.s3-us-west-1.amazonaws.com/74-008.png","4","Cat","74-008.png"
"","2492","image-button-response","50","null","349542","686d62ec803998618dffb3d1","686da2f7864f46e0e983e0d1","673276b17430c6ece3a6d874","false","false","Chair","https://kisumu-drawings.s3-us-west-1.amazonaws.com/80-013.png","5","Chair","80-013.png"
"","2244","image-button-response","51","null","352294","686d62ec803998618dffb3d1","686da2f7864f46e0e983e0d1","673276b17430c6ece3a6d874","false","false","Watch","https://kisumu-drawings.s3-us-west-1.amazonaws.com/74-013.png","11","Watch","74-013.png"
"","2928","image-button-response","52","null","355726","686d62ec803998618dffb3d1","686da2f7864f46e0e983e0d1","673276b17430c6ece3a6d874","false","false","House","https://kisumu-drawings.s3-us-west-1.amazonaws.com/40-011.png","8","House","40-011.png"
"","2313","image-button-response","53","null","358542","686d62ec803998618dffb3d1","686da2f7864f46e0e983e0d1","673276b17430c6ece3a6d874","false","false","Bird","https://kisumu-drawings.s3-us-west-1.amazonaws.com/40-007.png","2","Bird","40-007.png"
"","1855","image-button-response","54","null","360902","686d62ec803998618dffb3d1","686da2f7864f46e0e983e0d1","673276b17430c6ece3a6d874","false","false","Car","https://kisumu-drawings.s3-us-west-1.amazonaws.com/22-009.png","3","Car","22-009.png"
"","2069","image-button-response","55","null","363486","686d62ec803998618dffb3d1","686da2f7864f46e0e983e0d1","673276b17430c6ece3a6d874","false","false","House","https://kisumu-drawings.s3-us-west-1.amazonaws.com/44-009.png","8","House","44-009.png"
"","2306","image-button-response","56","null","366294","686d62ec803998618dffb3d1","686da2f7864f46e0e983e0d1","673276b17430c6ece3a6d874","false","false","Car","https://kisumu-drawings.s3-us-west-1.amazonaws.com/112-013.png","3","Car","112-013.png"
"","9632","image-button-response","57","null","376430","686d62ec803998618dffb3d1","686da2f7864f46e0e983e0d1","673276b17430c6ece3a6d874","false","false","Bicycle","https://kisumu-drawings.s3-us-west-1.amazonaws.com/11-009.png","9","Rabbit","11-009.png"
"","9411","image-button-response","58","null","386350","686d62ec803998618dffb3d1","686da2f7864f46e0e983e0d1","673276b17430c6ece3a6d874","false","false","House","https://kisumu-drawings.s3-us-west-1.amazonaws.com/112-007.png","8","House","112-007.png"
"","3634","image-button-response","59","null","390486","686d62ec803998618dffb3d1","686da2f7864f46e0e983e0d1","673276b17430c6ece3a6d874","false","false","Bicycle","https://kisumu-drawings.s3-us-west-1.amazonaws.com/119-009.png","1","Bicycle","119-009.png"
"","2958","image-button-response","60","null","393950","686d62ec803998618dffb3d1","686da2f7864f46e0e983e0d1","673276b17430c6ece3a6d874","false","false","Cat","https://kisumu-drawings.s3-us-west-1.amazonaws.com/81-013.png","4","Cat","81-013.png"
"","9779","image-button-response","61","null","404246","686d62ec803998618dffb3d1","686da2f7864f46e0e983e0d1","673276b17430c6ece3a6d874","false","false","Hat","https://kisumu-drawings.s3-us-west-1.amazonaws.com/81-006.png","4","Cat","81-006.png"
"","2533","image-button-response","62","null","407286","686d62ec803998618dffb3d1","686da2f7864f46e0e983e0d1","673276b17430c6ece3a6d874","false","false","Cup","https://kisumu-drawings.s3-us-west-1.amazonaws.com/100-008.png","6","Cup","100-008.png"
"","9672","image-button-response","63","null","417462","686d62ec803998618dffb3d1","686da2f7864f46e0e983e0d1","673276b17430c6ece3a6d874","false","false","Cat","https://kisumu-drawings.s3-us-west-1.amazonaws.com/40-009.png","10","Tree","40-009.png"
"","9036","image-button-response","64","null","427006","686d62ec803998618dffb3d1","686da2f7864f46e0e983e0d1","673276b17430c6ece3a6d874","false","false","Cat","https://kisumu-drawings.s3-us-west-1.amazonaws.com/118-005.png","4","Cat","118-005.png"
"","4751","image-button-response","65","null","432262","686d62ec803998618dffb3d1","686da2f7864f46e0e983e0d1","673276b17430c6ece3a6d874","false","false","Bird","https://kisumu-drawings.s3-us-west-1.amazonaws.com/83-007.png","2","Bird","83-007.png"
"","4895","image-button-response","66","null","437662","686d62ec803998618dffb3d1","686da2f7864f46e0e983e0d1","673276b17430c6ece3a6d874","false","false","Rabbit","https://kisumu-drawings.s3-us-west-1.amazonaws.com/46-016.png","4","Cat","46-016.png"
"","2858","image-button-response","67","null","441022","686d62ec803998618dffb3d1","686da2f7864f46e0e983e0d1","673276b17430c6ece3a6d874","false","false","Watch","https://kisumu-drawings.s3-us-west-1.amazonaws.com/52-013.png","11","Watch","52-013.png"
"","2345","image-button-response","68","null","443870","686d62ec803998618dffb3d1","686da2f7864f46e0e983e0d1","673276b17430c6ece3a6d874","false","false","House","https://kisumu-drawings.s3-us-west-1.amazonaws.com/98-005.png","8","House","98-005.png"
"","3894","image-button-response","69","null","448270","686d62ec803998618dffb3d1","686da2f7864f46e0e983e0d1","673276b17430c6ece3a6d874","false","false","Hat","https://kisumu-drawings.s3-us-west-1.amazonaws.com/112-014.png","0","Airplane","112-014.png"
"","7674","image-button-response","70","null","456446","686d62ec803998618dffb3d1","686da2f7864f46e0e983e0d1","673276b17430c6ece3a6d874","false","false","Car","https://kisumu-drawings.s3-us-west-1.amazonaws.com/16-006.png","7","Hat","16-006.png"
"","5531","image-button-response","71","null","462494","686d62ec803998618dffb3d1","686da2f7864f46e0e983e0d1","673276b17430c6ece3a6d874","false","false","Tree","https://kisumu-drawings.s3-us-west-1.amazonaws.com/28-015.png","9","Rabbit","28-015.png"
"","2983","image-button-response","72","null","465990","686d62ec803998618dffb3d1","686da2f7864f46e0e983e0d1","673276b17430c6ece3a6d874","false","false","Airplane","https://kisumu-drawings.s3-us-west-1.amazonaws.com/77-006.png","2","Bird","77-006.png"
"","2086","image-button-response","73","null","468590","686d62ec803998618dffb3d1","686da2f7864f46e0e983e0d1","673276b17430c6ece3a6d874","false","false","Tree","https://kisumu-drawings.s3-us-west-1.amazonaws.com/63-016.png","10","Tree","63-016.png"
"","2975","image-button-response","74","null","472070","686d62ec803998618dffb3d1","686da2f7864f46e0e983e0d1","673276b17430c6ece3a6d874","false","false","Rabbit","https://kisumu-drawings.s3-us-west-1.amazonaws.com/113-009.png","4","Cat","113-009.png"
"","2177","image-button-response","75","null","474758","686d62ec803998618dffb3d1","686da2f7864f46e0e983e0d1","673276b17430c6ece3a6d874","false","false","Bird","https://kisumu-drawings.s3-us-west-1.amazonaws.com/68-007.png","2","Bird","68-007.png"
