"view_history","rt","trial_type","trial_index","plugin_version","time_elapsed","study_id","session_id","participant_id","catch_trial","prep_trial","sketcher_category","stimulus","response","response_category","sketch_id"
"[{""page_index"":0,""viewing_time"":21144},{""page_index"":1,""viewing_time"":12466},{""page_index"":2,""viewing_time"":15465},{""page_index"":3,""viewing_time"":30226}]","79301","instructions","0","null","79321","686d62ec803998618dffb3d1","686db64223b4f6cf657a9035","67e88a0303c1b7693d1a0c6f","","","","","","",""
"","10634","image-button-response","1","null","90979","686d62ec803998618dffb3d1","686db64223b4f6cf657a9035","67e88a0303c1b7693d1a0c6f","false","true","car","stimuli/prep_trials/1_car_prep.png","3","Car",""
"","4528","image-button-response","2","null","96039","686d62ec803998618dffb3d1","686db64223b4f6cf657a9035","67e88a0303c1b7693d1a0c6f","false","true","cat","stimuli/prep_trials/0_cat_prep.jpg","4","Cat",""
"","12291","image-button-response","3","null","108843","686d62ec803998618dffb3d1","686db64223b4f6cf657a9035","67e88a0303c1b7693d1a0c6f","false","false","Car","https://kisumu-drawings.s3-us-west-1.amazonaws.com/100-012.png","3","Car","100-012.png"
"","7786","image-button-response","4","null","117136","686d62ec803998618dffb3d1","686db64223b4f6cf657a9035","67e88a0303c1b7693d1a0c6f","false","false","Bird","https://kisumu-drawings.s3-us-west-1.amazonaws.com/81-007.png","2","Bird","81-007.png"
"","14036","image-button-response","5","null","131696","686d62ec803998618dffb3d1","686db64223b4f6cf657a9035","67e88a0303c1b7693d1a0c6f","false","false","Tree","https://kisumu-drawings.s3-us-west-1.amazonaws.com/97-016.png","10","Tree","97-016.png"
"","5323","image-button-response","6","null","137528","686d62ec803998618dffb3d1","686db64223b4f6cf657a9035","67e88a0303c1b7693d1a0c6f","false","false","Airplane","https://kisumu-drawings.s3-us-west-1.amazonaws.com/17-005.png","0","Airplane","17-005.png"
"","7270","image-button-response","7","null","145321","686d62ec803998618dffb3d1","686db64223b4f6cf657a9035","67e88a0303c1b7693d1a0c6f","false","false","Chair","https://kisumu-drawings.s3-us-west-1.amazonaws.com/38-007.png","5","Chair","38-007.png"
"","21811","image-button-response","8","null","167641","686d62ec803998618dffb3d1","686db64223b4f6cf657a9035","67e88a0303c1b7693d1a0c6f","false","false","Chair","https://kisumu-drawings.s3-us-west-1.amazonaws.com/82-007.png","5","Chair","82-007.png"
"","15622","image-button-response","9","null","183773","686d62ec803998618dffb3d1","686db64223b4f6cf657a9035","67e88a0303c1b7693d1a0c6f","false","false","Tree","https://kisumu-drawings.s3-us-west-1.amazonaws.com/43-012.png","10","Tree","43-012.png"
"","33927","image-button-response","10","null","218207","686d62ec803998618dffb3d1","686db64223b4f6cf657a9035","67e88a0303c1b7693d1a0c6f","false","false","Tree","https://kisumu-drawings.s3-us-west-1.amazonaws.com/36-006.png","4","Cat","36-006.png"
"","6739","image-button-response","11","null","225455","686d62ec803998618dffb3d1","686db64223b4f6cf657a9035","67e88a0303c1b7693d1a0c6f","false","false","Car","https://kisumu-drawings.s3-us-west-1.amazonaws.com/118-009.png","3","Car","118-009.png"
"","6292","image-button-response","12","null","232257","686d62ec803998618dffb3d1","686db64223b4f6cf657a9035","67e88a0303c1b7693d1a0c6f","false","false","Tree","https://kisumu-drawings.s3-us-west-1.amazonaws.com/12-016.png","10","Tree","12-016.png"
"","4488","image-button-response","13","null","237257","686d62ec803998618dffb3d1","686db64223b4f6cf657a9035","67e88a0303c1b7693d1a0c6f","false","false","Cat","https://kisumu-drawings.s3-us-west-1.amazonaws.com/75-014.png","4","Cat","75-014.png"
"","27118","image-button-response","14","null","264898","686d62ec803998618dffb3d1","686db64223b4f6cf657a9035","67e88a0303c1b7693d1a0c6f","false","false","Hat","https://kisumu-drawings.s3-us-west-1.amazonaws.com/40-013.png","7","Hat","40-013.png"
"","5994","image-button-response","15","null","271404","686d62ec803998618dffb3d1","686db64223b4f6cf657a9035","67e88a0303c1b7693d1a0c6f","false","false","Airplane","https://kisumu-drawings.s3-us-west-1.amazonaws.com/87-005.png","0","Airplane","87-005.png"
"","13239","image-button-response","16","null","285150","686d62ec803998618dffb3d1","686db64223b4f6cf657a9035","67e88a0303c1b7693d1a0c6f","false","false","House","https://kisumu-drawings.s3-us-west-1.amazonaws.com/39-005.png","7","Hat","39-005.png"
"","20509","image-button-response","17","null","306168","686d62ec803998618dffb3d1","686db64223b4f6cf657a9035","67e88a0303c1b7693d1a0c6f","false","false","Bird","https://kisumu-drawings.s3-us-west-1.amazonaws.com/79-005.png","9","Rabbit","79-005.png"
"","19241","image-button-response","18","null","325920","686d62ec803998618dffb3d1","686db64223b4f6cf657a9035","67e88a0303c1b7693d1a0c6f","false","false","Cat","https://kisumu-drawings.s3-us-west-1.amazonaws.com/86-015.png","4","Cat","86-015.png"
"","6864","image-button-response","19","null","333304","686d62ec803998618dffb3d1","686db64223b4f6cf657a9035","67e88a0303c1b7693d1a0c6f","false","false","Chair","https://kisumu-drawings.s3-us-west-1.amazonaws.com/114-010.png","5","Chair","114-010.png"
"","6575","image-button-response","20","null","340399","686d62ec803998618dffb3d1","686db64223b4f6cf657a9035","67e88a0303c1b7693d1a0c6f","false","false","Cup","https://kisumu-drawings.s3-us-west-1.amazonaws.com/43-013.png","6","Cup","43-013.png"
"","3202","image-button-response","21","null","344111","686d62ec803998618dffb3d1","686db64223b4f6cf657a9035","67e88a0303c1b7693d1a0c6f","false","false","Cup","https://kisumu-drawings.s3-us-west-1.amazonaws.com/35-010.png","6","Cup","35-010.png"
"","20686","image-button-response","22","null","365306","686d62ec803998618dffb3d1","686db64223b4f6cf657a9035","67e88a0303c1b7693d1a0c6f","false","false","Chair","https://kisumu-drawings.s3-us-west-1.amazonaws.com/47-013.png","5","Chair","47-013.png"
"","6231","image-button-response","23","null","372060","686d62ec803998618dffb3d1","686db64223b4f6cf657a9035","67e88a0303c1b7693d1a0c6f","false","false","Cup","https://kisumu-drawings.s3-us-west-1.amazonaws.com/115-007.png","6","Cup","115-007.png"
"","4733","image-button-response","24","null","377313","686d62ec803998618dffb3d1","686db64223b4f6cf657a9035","67e88a0303c1b7693d1a0c6f","false","false","Chair","https://kisumu-drawings.s3-us-west-1.amazonaws.com/72-015.png","5","Chair","72-015.png"
"","3980","image-button-response","25","null","381809","686d62ec803998618dffb3d1","686db64223b4f6cf657a9035","67e88a0303c1b7693d1a0c6f","false","false","Bird","https://kisumu-drawings.s3-us-west-1.amazonaws.com/41-008.png","0","Airplane","41-008.png"
"","26500","image-button-response","26","null","408817","686d62ec803998618dffb3d1","686db64223b4f6cf657a9035","67e88a0303c1b7693d1a0c6f","false","false","Watch","https://kisumu-drawings.s3-us-west-1.amazonaws.com/87-010.png","8","House","87-010.png"
"","10534","image-button-response","27","null","419863","686d62ec803998618dffb3d1","686db64223b4f6cf657a9035","67e88a0303c1b7693d1a0c6f","false","false","Car","https://kisumu-drawings.s3-us-west-1.amazonaws.com/78-005.png","3","Car","78-005.png"
"","5269","image-button-response","28","null","425638","686d62ec803998618dffb3d1","686db64223b4f6cf657a9035","67e88a0303c1b7693d1a0c6f","false","false","Bird","https://kisumu-drawings.s3-us-west-1.amazonaws.com/101-012.png","2","Bird","101-012.png"
"","7151","image-button-response","29","null","433310","686d62ec803998618dffb3d1","686db64223b4f6cf657a9035","67e88a0303c1b7693d1a0c6f","false","false","Cat","https://kisumu-drawings.s3-us-west-1.amazonaws.com/32-014.png","4","Cat","32-014.png"
"","5370","image-button-response","30","null","439189","686d62ec803998618dffb3d1","686db64223b4f6cf657a9035","67e88a0303c1b7693d1a0c6f","false","false","Tree","https://kisumu-drawings.s3-us-west-1.amazonaws.com/120-013.png","10","Tree","120-013.png"
"","3982","image-button-response","31","null","443691","686d62ec803998618dffb3d1","686db64223b4f6cf657a9035","67e88a0303c1b7693d1a0c6f","false","false","House","https://kisumu-drawings.s3-us-west-1.amazonaws.com/94-016.png","8","House","94-016.png"
"","8821","image-button-response","32","null","453029","686d62ec803998618dffb3d1","686db64223b4f6cf657a9035","67e88a0303c1b7693d1a0c6f","false","false","Bird","https://kisumu-drawings.s3-us-west-1.amazonaws.com/15-010.png","7","Hat","15-010.png"
"","23603","image-button-response","33","null","477152","686d62ec803998618dffb3d1","686db64223b4f6cf657a9035","67e88a0303c1b7693d1a0c6f","false","false","Rabbit","https://kisumu-drawings.s3-us-west-1.amazonaws.com/31-014.png","9","Rabbit","31-014.png"
"","6853","image-button-response","34","null","484515","686d62ec803998618dffb3d1","686db64223b4f6cf657a9035","67e88a0303c1b7693d1a0c6f","false","false","Hat","https://kisumu-drawings.s3-us-west-1.amazonaws.com/18-007.png","7","Hat","18-007.png"
"","20003","image-button-response","35","null","505026","686d62ec803998618dffb3d1","686db64223b4f6cf657a9035","67e88a0303c1b7693d1a0c6f","false","false","Car","https://kisumu-drawings.s3-us-west-1.amazonaws.com/40-005.png","3","Car","40-005.png"
"","15694","image-button-response","36","null","521232","686d62ec803998618dffb3d1","686db64223b4f6cf657a9035","67e88a0303c1b7693d1a0c6f","false","false","Bicycle","https://kisumu-drawings.s3-us-west-1.amazonaws.com/44-007.png","1","Bicycle","44-007.png"
"","6317","image-button-response","37","null","528070","686d62ec803998618dffb3d1","686db64223b4f6cf657a9035","67e88a0303c1b7693d1a0c6f","false","false","Cup","https://kisumu-drawings.s3-us-west-1.amazonaws.com/74-007.png","6","Cup","74-007.png"
"","7479","image-button-response","38","null","536055","686d62ec803998618dffb3d1","686db64223b4f6cf657a9035","67e88a0303c1b7693d1a0c6f","false","false","Bicycle","https://kisumu-drawings.s3-us-west-1.amazonaws.com/72-008.png","5","Chair","72-008.png"
"","6216","image-button-response","39","null","542784","686d62ec803998618dffb3d1","686db64223b4f6cf657a9035","67e88a0303c1b7693d1a0c6f","false","false","Airplane","https://kisumu-drawings.s3-us-west-1.amazonaws.com/61-014.png","0","Airplane","61-014.png"
"","12550","image-button-response","40","null","555848","686d62ec803998618dffb3d1","686db64223b4f6cf657a9035","67e88a0303c1b7693d1a0c6f","false","false","Bicycle","https://kisumu-drawings.s3-us-west-1.amazonaws.com/38-015.png","0","Airplane","38-015.png"
"","39820","image-button-response","41","null","596179","686d62ec803998618dffb3d1","686db64223b4f6cf657a9035","67e88a0303c1b7693d1a0c6f","false","false","Cat","https://kisumu-drawings.s3-us-west-1.amazonaws.com/11-008.png","10","Tree","11-008.png"
"","31634","image-button-response","42","null","628332","686d62ec803998618dffb3d1","686db64223b4f6cf657a9035","67e88a0303c1b7693d1a0c6f","false","false","Hat","https://kisumu-drawings.s3-us-west-1.amazonaws.com/112-014.png","7","Hat","112-014.png"
"","28015","image-button-response","43","null","656857","686d62ec803998618dffb3d1","686db64223b4f6cf657a9035","67e88a0303c1b7693d1a0c6f","false","false","Car","https://kisumu-drawings.s3-us-west-1.amazonaws.com/18-009.png","7","Hat","18-009.png"
"","5730","image-button-response","44","null","663108","686d62ec803998618dffb3d1","686db64223b4f6cf657a9035","67e88a0303c1b7693d1a0c6f","false","false","Bicycle","https://kisumu-drawings.s3-us-west-1.amazonaws.com/119-009.png","1","Bicycle","119-009.png"
"","4180","image-button-response","45","null","667807","686d62ec803998618dffb3d1","686db64223b4f6cf657a9035","67e88a0303c1b7693d1a0c6f","false","false","Watch","https://kisumu-drawings.s3-us-west-1.amazonaws.com/117-007.png","11","Watch","117-007.png"
"","6400","image-button-response","46","null","674715","686d62ec803998618dffb3d1","686db64223b4f6cf657a9035","67e88a0303c1b7693d1a0c6f","false","false","Bicycle","https://kisumu-drawings.s3-us-west-1.amazonaws.com/16-011.png","7","Hat","16-011.png"
"","16108","image-button-response","47","null","691346","686d62ec803998618dffb3d1","686db64223b4f6cf657a9035","67e88a0303c1b7693d1a0c6f","false","false","Airplane","https://kisumu-drawings.s3-us-west-1.amazonaws.com/36-014.png","0","Airplane","36-014.png"
"","6315","image-button-response","48","null","698172","686d62ec803998618dffb3d1","686db64223b4f6cf657a9035","67e88a0303c1b7693d1a0c6f","false","false","Watch","https://kisumu-drawings.s3-us-west-1.amazonaws.com/46-011.png","11","Watch","46-011.png"
"","4102","image-button-response","49","null","702788","686d62ec803998618dffb3d1","686db64223b4f6cf657a9035","67e88a0303c1b7693d1a0c6f","false","false","Bird","https://kisumu-drawings.s3-us-west-1.amazonaws.com/38-016.png","0","Airplane","38-016.png"
"","3793","image-button-response","50","null","707090","686d62ec803998618dffb3d1","686db64223b4f6cf657a9035","67e88a0303c1b7693d1a0c6f","false","false","Watch","https://kisumu-drawings.s3-us-west-1.amazonaws.com/36-007.png","11","Watch","36-007.png"
"","8385","image-button-response","51","null","715982","686d62ec803998618dffb3d1","686db64223b4f6cf657a9035","67e88a0303c1b7693d1a0c6f","false","false","Chair","https://kisumu-drawings.s3-us-west-1.amazonaws.com/10-016.png","5","Chair","10-016.png"
"","4130","image-button-response","52","null","720626","686d62ec803998618dffb3d1","686db64223b4f6cf657a9035","67e88a0303c1b7693d1a0c6f","true","false","airplane","stimuli/catch_trials/0_airplane_catch.jpg","0","Airplane",""
"","17473","image-button-response","53","null","738608","686d62ec803998618dffb3d1","686db64223b4f6cf657a9035","67e88a0303c1b7693d1a0c6f","false","false","House","https://kisumu-drawings.s3-us-west-1.amazonaws.com/49-007.png","8","House","49-007.png"
"","9699","image-button-response","54","null","748825","686d62ec803998618dffb3d1","686db64223b4f6cf657a9035","67e88a0303c1b7693d1a0c6f","false","false","Car","https://kisumu-drawings.s3-us-west-1.amazonaws.com/42-006.png","0","Airplane","42-006.png"
"","8359","image-button-response","55","null","757705","686d62ec803998618dffb3d1","686db64223b4f6cf657a9035","67e88a0303c1b7693d1a0c6f","false","false","Bicycle","https://kisumu-drawings.s3-us-west-1.amazonaws.com/100-010.png","0","Airplane","100-010.png"
"","24328","image-button-response","56","null","782544","686d62ec803998618dffb3d1","686db64223b4f6cf657a9035","67e88a0303c1b7693d1a0c6f","false","false","Rabbit","https://kisumu-drawings.s3-us-west-1.amazonaws.com/81-016.png","4","Cat","81-016.png"
"","37929","image-button-response","57","null","820984","686d62ec803998618dffb3d1","686db64223b4f6cf657a9035","67e88a0303c1b7693d1a0c6f","false","false","Airplane","https://kisumu-drawings.s3-us-west-1.amazonaws.com/47-016.png","11","Watch","47-016.png"
"","7461","image-button-response","58","null","828968","686d62ec803998618dffb3d1","686db64223b4f6cf657a9035","67e88a0303c1b7693d1a0c6f","false","false","Hat","https://kisumu-drawings.s3-us-west-1.amazonaws.com/88-011.png","6","Cup","88-011.png"
"","35060","image-button-response","59","null","864546","686d62ec803998618dffb3d1","686db64223b4f6cf657a9035","67e88a0303c1b7693d1a0c6f","false","false","House","https://kisumu-drawings.s3-us-west-1.amazonaws.com/18-005.png","7","Hat","18-005.png"
"","5580","image-button-response","60","null","870645","686d62ec803998618dffb3d1","686db64223b4f6cf657a9035","67e88a0303c1b7693d1a0c6f","false","false","Watch","https://kisumu-drawings.s3-us-west-1.amazonaws.com/17-011.png","11","Watch","17-011.png"
"","5944","image-button-response","61","null","877110","686d62ec803998618dffb3d1","686db64223b4f6cf657a9035","67e88a0303c1b7693d1a0c6f","false","false","Rabbit","https://kisumu-drawings.s3-us-west-1.amazonaws.com/77-009.png","4","Cat","77-009.png"
"","7603","image-button-response","62","null","885228","686d62ec803998618dffb3d1","686db64223b4f6cf657a9035","67e88a0303c1b7693d1a0c6f","false","false","Tree","https://kisumu-drawings.s3-us-west-1.amazonaws.com/63-016.png","10","Tree","63-016.png"
"","9751","image-button-response","63","null","895493","686d62ec803998618dffb3d1","686db64223b4f6cf657a9035","67e88a0303c1b7693d1a0c6f","false","false","Cup","https://kisumu-drawings.s3-us-west-1.amazonaws.com/93-005.png","6","Cup","93-005.png"
"","21189","image-button-response","64","null","917195","686d62ec803998618dffb3d1","686db64223b4f6cf657a9035","67e88a0303c1b7693d1a0c6f","false","false","Rabbit","https://kisumu-drawings.s3-us-west-1.amazonaws.com/19-007.png","11","Watch","19-007.png"
"","10655","image-button-response","65","null","928371","686d62ec803998618dffb3d1","686db64223b4f6cf657a9035","67e88a0303c1b7693d1a0c6f","false","false","Cat","https://kisumu-drawings.s3-us-west-1.amazonaws.com/41-011.png","9","Rabbit","41-011.png"
"","6345","image-button-response","66","null","935233","686d62ec803998618dffb3d1","686db64223b4f6cf657a9035","67e88a0303c1b7693d1a0c6f","false","false","House","https://kisumu-drawings.s3-us-west-1.amazonaws.com/79-016.png","8","House","79-016.png"
"","7292","image-button-response","67","null","943037","686d62ec803998618dffb3d1","686db64223b4f6cf657a9035","67e88a0303c1b7693d1a0c6f","false","false","Cat","https://kisumu-drawings.s3-us-west-1.amazonaws.com/114-013.png","9","Rabbit","114-013.png"
"","8695","image-button-response","68","null","952251","686d62ec803998618dffb3d1","686db64223b4f6cf657a9035","67e88a0303c1b7693d1a0c6f","false","false","Watch","https://kisumu-drawings.s3-us-west-1.amazonaws.com/77-013.png","11","Watch","77-013.png"
"","19466","image-button-response","69","null","972241","686d62ec803998618dffb3d1","686db64223b4f6cf657a9035","67e88a0303c1b7693d1a0c6f","false","false","Rabbit","https://kisumu-drawings.s3-us-west-1.amazonaws.com/55-008.png","0","Airplane","55-008.png"
"","10084","image-button-response","70","null","982833","686d62ec803998618dffb3d1","686db64223b4f6cf657a9035","67e88a0303c1b7693d1a0c6f","false","false","House","https://kisumu-drawings.s3-us-west-1.amazonaws.com/114-007.png","8","House","114-007.png"
"","5320","image-button-response","71","null","988664","686d62ec803998618dffb3d1","686db64223b4f6cf657a9035","67e88a0303c1b7693d1a0c6f","false","false","Airplane","https://kisumu-drawings.s3-us-west-1.amazonaws.com/103-005.png","0","Airplane","103-005.png"
"","3157","image-button-response","72","null","992342","686d62ec803998618dffb3d1","686db64223b4f6cf657a9035","67e88a0303c1b7693d1a0c6f","false","false","Cup","https://kisumu-drawings.s3-us-west-1.amazonaws.com/12-005.png","6","Cup","12-005.png"
"","6151","image-button-response","73","null","999006","686d62ec803998618dffb3d1","686db64223b4f6cf657a9035","67e88a0303c1b7693d1a0c6f","false","false","Rabbit","https://kisumu-drawings.s3-us-west-1.amazonaws.com/101-006.png","4","Cat","101-006.png"
"","6497","image-button-response","74","null","1006022","686d62ec803998618dffb3d1","686db64223b4f6cf657a9035","67e88a0303c1b7693d1a0c6f","false","false","Hat","https://kisumu-drawings.s3-us-west-1.amazonaws.com/78-013.png","7","Hat","78-013.png"
"","7880","image-button-response","75","null","1014410","686d62ec803998618dffb3d1","686db64223b4f6cf657a9035","67e88a0303c1b7693d1a0c6f","false","false","Hat","https://kisumu-drawings.s3-us-west-1.amazonaws.com/46-014.png","5","Chair","46-014.png"
