view_history,rt,trial_type,trial_index,plugin_version,time_elapsed,study_id,session_id,participant_id,catch_trial,prep_trial,sketcher_category,stimulus,response,response_category,sketch_id
"[{""page_index"":0,""viewing_time"":8392},{""page_index"":1,""viewing_time"":29414},{""page_index"":2,""viewing_time"":4878},{""page_index"":3,""viewing_time"":8291}]",50975,instructions,0,,50992,686d62ec803998618dffb3d1,686d64e8e02ca607eecc5755,210,,,,,,,
,3934,image-button-response,1,,55943,686d62ec803998618dffb3d1,686d64e8e02ca607eecc5755,210,False,True,car,stimuli/prep_trials/1_car_prep.png,3.0,Car,
,1590,image-button-response,2,,58037,686d62ec803998618dffb3d1,686d64e8e02ca607eecc5755,210,False,True,cat,stimuli/prep_trials/0_cat_prep.jpg,4.0,Cat,
,3729,image-button-response,3,,62276,686d62ec803998618dffb3d1,686d64e8e02ca607eecc5755,210,False,False,Chair,https://kisumu-drawings.s3-us-west-1.amazonaws.com/80-013.png,5.0,Chair,80-013.png
,45187,image-button-response,4,,107975,686d62ec803998618dffb3d1,686d64e8e02ca607eecc5755,210,False,False,Watch,https://kisumu-drawings.s3-us-west-1.amazonaws.com/31-016.png,10.0,Tree,31-016.png
,2997,image-button-response,5,,111481,686d62ec803998618dffb3d1,686d64e8e02ca607eecc5755,210,False,False,Chair,https://kisumu-drawings.s3-us-west-1.amazonaws.com/40-008.png,5.0,Chair,40-008.png
,4456,image-button-response,6,,116456,686d62ec803998618dffb3d1,686d64e8e02ca607eecc5755,210,False,False,Hat,https://kisumu-drawings.s3-us-west-1.amazonaws.com/40-013.png,7.0,Hat,40-013.png
,6149,image-button-response,7,,123114,686d62ec803998618dffb3d1,686d64e8e02ca607eecc5755,210,False,False,Cup,https://kisumu-drawings.s3-us-west-1.amazonaws.com/79-011.png,6.0,Cup,79-011.png
,26662,image-button-response,8,,150290,686d62ec803998618dffb3d1,686d64e8e02ca607eecc5755,210,False,False,House,https://kisumu-drawings.s3-us-west-1.amazonaws.com/48-013.png,6.0,Cup,48-013.png
,4508,image-button-response,9,,155313,686d62ec803998618dffb3d1,686d64e8e02ca607eecc5755,210,False,False,Hat,https://kisumu-drawings.s3-us-west-1.amazonaws.com/119-007.png,7.0,Hat,119-007.png
,22289,image-button-response,10,,178108,686d62ec803998618dffb3d1,686d64e8e02ca607eecc5755,210,False,False,Cat,https://kisumu-drawings.s3-us-west-1.amazonaws.com/120-015.png,2.0,Bird,120-015.png
,35342,image-button-response,11,,213969,686d62ec803998618dffb3d1,686d64e8e02ca607eecc5755,210,False,False,Tree,https://kisumu-drawings.s3-us-west-1.amazonaws.com/19-008.png,10.0,Tree,19-008.png
,50214,image-button-response,12,,264690,686d62ec803998618dffb3d1,686d64e8e02ca607eecc5755,210,False,False,Bicycle,https://kisumu-drawings.s3-us-west-1.amazonaws.com/39-009.png,0.0,Airplane,39-009.png
,5512,image-button-response,13,,270706,686d62ec803998618dffb3d1,686d64e8e02ca607eecc5755,210,False,False,Cat,https://kisumu-drawings.s3-us-west-1.amazonaws.com/48-011.png,4.0,Cat,48-011.png
,3860,image-button-response,14,,275080,686d62ec803998618dffb3d1,686d64e8e02ca607eecc5755,210,False,False,Airplane,https://kisumu-drawings.s3-us-west-1.amazonaws.com/77-006.png,0.0,Airplane,77-006.png
,2754,image-button-response,15,,278344,686d62ec803998618dffb3d1,686d64e8e02ca607eecc5755,210,False,False,House,https://kisumu-drawings.s3-us-west-1.amazonaws.com/119-016.png,8.0,House,119-016.png
,2498,image-button-response,16,,281355,686d62ec803998618dffb3d1,686d64e8e02ca607eecc5755,210,False,False,Chair,https://kisumu-drawings.s3-us-west-1.amazonaws.com/112-008.png,5.0,Chair,112-008.png
,5897,image-button-response,17,,287762,686d62ec803998618dffb3d1,686d64e8e02ca607eecc5755,210,False,False,Car,https://kisumu-drawings.s3-us-west-1.amazonaws.com/44-011.png,3.0,Car,44-011.png
,2863,image-button-response,18,,291137,686d62ec803998618dffb3d1,686d64e8e02ca607eecc5755,210,False,False,Cup,https://kisumu-drawings.s3-us-west-1.amazonaws.com/86-005.png,6.0,Cup,86-005.png
,20057,image-button-response,19,,311712,686d62ec803998618dffb3d1,686d64e8e02ca607eecc5755,210,False,False,Bicycle,https://kisumu-drawings.s3-us-west-1.amazonaws.com/77-014.png,5.0,Chair,77-014.png
,11861,image-button-response,20,,324083,686d62ec803998618dffb3d1,686d64e8e02ca607eecc5755,210,False,False,Cat,https://kisumu-drawings.s3-us-west-1.amazonaws.com/35-012.png,2.0,Bird,35-012.png
,4644,image-button-response,21,,329246,686d62ec803998618dffb3d1,686d64e8e02ca607eecc5755,210,False,False,Watch,https://kisumu-drawings.s3-us-west-1.amazonaws.com/117-007.png,11.0,Watch,117-007.png
,2889,image-button-response,22,,332641,686d62ec803998618dffb3d1,686d64e8e02ca607eecc5755,210,False,False,Tree,https://kisumu-drawings.s3-us-west-1.amazonaws.com/118-013.png,10.0,Tree,118-013.png
,3046,image-button-response,23,,336199,686d62ec803998618dffb3d1,686d64e8e02ca607eecc5755,210,False,False,Airplane,https://kisumu-drawings.s3-us-west-1.amazonaws.com/84-010.png,0.0,Airplane,84-010.png
,25773,image-button-response,24,,362489,686d62ec803998618dffb3d1,686d64e8e02ca607eecc5755,210,False,False,Cat,https://kisumu-drawings.s3-us-west-1.amazonaws.com/18-010.png,7.0,Hat,18-010.png
,7378,image-button-response,25,,370375,686d62ec803998618dffb3d1,686d64e8e02ca607eecc5755,210,False,False,Rabbit,https://kisumu-drawings.s3-us-west-1.amazonaws.com/43-015.png,4.0,Cat,43-015.png
,9126,image-button-response,26,,380016,686d62ec803998618dffb3d1,686d64e8e02ca607eecc5755,210,False,False,Tree,https://kisumu-drawings.s3-us-west-1.amazonaws.com/47-011.png,10.0,Tree,47-011.png
,9332,image-button-response,27,,389865,686d62ec803998618dffb3d1,686d64e8e02ca607eecc5755,210,False,False,Bird,https://kisumu-drawings.s3-us-west-1.amazonaws.com/118-008.png,2.0,Bird,118-008.png
,3751,image-button-response,28,,394120,686d62ec803998618dffb3d1,686d64e8e02ca607eecc5755,210,False,False,Rabbit,https://kisumu-drawings.s3-us-west-1.amazonaws.com/39-012.png,7.0,Hat,39-012.png
,3391,image-button-response,29,,398017,686d62ec803998618dffb3d1,686d64e8e02ca607eecc5755,210,False,False,Cup,https://kisumu-drawings.s3-us-west-1.amazonaws.com/120-006.png,6.0,Cup,120-006.png
,3272,image-button-response,30,,401794,686d62ec803998618dffb3d1,686d64e8e02ca607eecc5755,210,False,False,Bird,https://kisumu-drawings.s3-us-west-1.amazonaws.com/84-012.png,2.0,Bird,84-012.png
,2914,image-button-response,31,,405223,686d62ec803998618dffb3d1,686d64e8e02ca607eecc5755,210,False,False,Chair,https://kisumu-drawings.s3-us-west-1.amazonaws.com/46-012.png,5.0,Chair,46-012.png
,49918,image-button-response,32,,455656,686d62ec803998618dffb3d1,686d64e8e02ca607eecc5755,210,False,False,Bird,https://kisumu-drawings.s3-us-west-1.amazonaws.com/39-015.png,4.0,Cat,39-015.png
,3387,image-button-response,33,,459559,686d62ec803998618dffb3d1,686d64e8e02ca607eecc5755,210,False,False,Bicycle,https://kisumu-drawings.s3-us-west-1.amazonaws.com/110-006.png,1.0,Bicycle,110-006.png
,3611,image-button-response,34,,463684,686d62ec803998618dffb3d1,686d64e8e02ca607eecc5755,210,False,False,Bird,https://kisumu-drawings.s3-us-west-1.amazonaws.com/45-016.png,0.0,Airplane,45-016.png
,3660,image-button-response,35,,467848,686d62ec803998618dffb3d1,686d64e8e02ca607eecc5755,210,False,False,Bird,https://kisumu-drawings.s3-us-west-1.amazonaws.com/79-005.png,2.0,Bird,79-005.png
,4978,image-button-response,36,,473334,686d62ec803998618dffb3d1,686d64e8e02ca607eecc5755,210,False,False,Bicycle,https://kisumu-drawings.s3-us-west-1.amazonaws.com/16-011.png,5.0,Chair,16-011.png
,3552,image-button-response,37,,477393,686d62ec803998618dffb3d1,686d64e8e02ca607eecc5755,210,False,False,Tree,https://kisumu-drawings.s3-us-west-1.amazonaws.com/79-006.png,10.0,Tree,79-006.png
,13059,image-button-response,38,,490966,686d62ec803998618dffb3d1,686d64e8e02ca607eecc5755,210,False,False,Tree,https://kisumu-drawings.s3-us-west-1.amazonaws.com/39-013.png,7.0,Hat,39-013.png
,6258,image-button-response,39,,497742,686d62ec803998618dffb3d1,686d64e8e02ca607eecc5755,210,False,False,Cat,https://kisumu-drawings.s3-us-west-1.amazonaws.com/86-015.png,4.0,Cat,86-015.png
,1962,image-button-response,40,,500225,686d62ec803998618dffb3d1,686d64e8e02ca607eecc5755,210,False,False,Cat,https://kisumu-drawings.s3-us-west-1.amazonaws.com/80-012.png,4.0,Cat,80-012.png
,12385,image-button-response,41,,513116,686d62ec803998618dffb3d1,686d64e8e02ca607eecc5755,210,False,False,Chair,https://kisumu-drawings.s3-us-west-1.amazonaws.com/19-010.png,1.0,Bicycle,19-010.png
,3904,image-button-response,42,,517532,686d62ec803998618dffb3d1,686d64e8e02ca607eecc5755,210,False,False,Rabbit,https://kisumu-drawings.s3-us-west-1.amazonaws.com/120-012.png,4.0,Cat,120-012.png
,8811,image-button-response,43,,526848,686d62ec803998618dffb3d1,686d64e8e02ca607eecc5755,210,False,False,Hat,https://kisumu-drawings.s3-us-west-1.amazonaws.com/14-005.png,7.0,Hat,14-005.png
,6532,image-button-response,44,,533888,686d62ec803998618dffb3d1,686d64e8e02ca607eecc5755,210,False,False,Watch,https://kisumu-drawings.s3-us-west-1.amazonaws.com/84-006.png,11.0,Watch,84-006.png
,2827,image-button-response,45,,537225,686d62ec803998618dffb3d1,686d64e8e02ca607eecc5755,210,False,False,Hat,https://kisumu-drawings.s3-us-west-1.amazonaws.com/80-007.png,7.0,Hat,80-007.png
,2705,image-button-response,46,,540446,686d62ec803998618dffb3d1,686d64e8e02ca607eecc5755,210,False,False,Car,https://kisumu-drawings.s3-us-west-1.amazonaws.com/83-009.png,0.0,Airplane,83-009.png
,3690,image-button-response,47,,544650,686d62ec803998618dffb3d1,686d64e8e02ca607eecc5755,210,False,False,Watch,https://kisumu-drawings.s3-us-west-1.amazonaws.com/78-014.png,11.0,Watch,78-014.png
,2576,image-button-response,48,,547730,686d62ec803998618dffb3d1,686d64e8e02ca607eecc5755,210,False,False,House,https://kisumu-drawings.s3-us-west-1.amazonaws.com/80-005.png,8.0,House,80-005.png
,2203,image-button-response,49,,550443,686d62ec803998618dffb3d1,686d64e8e02ca607eecc5755,210,False,False,House,https://kisumu-drawings.s3-us-west-1.amazonaws.com/87-012.png,8.0,House,87-012.png
,6267,image-button-response,50,,557222,686d62ec803998618dffb3d1,686d64e8e02ca607eecc5755,210,False,False,Car,https://kisumu-drawings.s3-us-west-1.amazonaws.com/118-009.png,3.0,Car,118-009.png
,3842,image-button-response,51,,561578,686d62ec803998618dffb3d1,686d64e8e02ca607eecc5755,210,False,False,Bicycle,https://kisumu-drawings.s3-us-west-1.amazonaws.com/83-008.png,1.0,Bicycle,83-008.png
,15642,image-button-response,52,,577732,686d62ec803998618dffb3d1,686d64e8e02ca607eecc5755,210,False,False,Watch,https://kisumu-drawings.s3-us-west-1.amazonaws.com/14-008.png,5.0,Chair,14-008.png
,10693,image-button-response,53,,588935,686d62ec803998618dffb3d1,686d64e8e02ca607eecc5755,210,False,False,Car,https://kisumu-drawings.s3-us-west-1.amazonaws.com/18-009.png,2.0,Bird,18-009.png
,7858,image-button-response,54,,597299,686d62ec803998618dffb3d1,686d64e8e02ca607eecc5755,210,False,False,Bicycle,https://kisumu-drawings.s3-us-west-1.amazonaws.com/47-009.png,1.0,Bicycle,47-009.png
,4005,image-button-response,55,,601821,686d62ec803998618dffb3d1,686d64e8e02ca607eecc5755,210,False,False,Bird,https://kisumu-drawings.s3-us-west-1.amazonaws.com/16-012.png,5.0,Chair,16-012.png
,4896,image-button-response,56,,607223,686d62ec803998618dffb3d1,686d64e8e02ca607eecc5755,210,False,False,Tree,https://kisumu-drawings.s3-us-west-1.amazonaws.com/87-009.png,2.0,Bird,87-009.png
,5352,image-button-response,57,,613095,686d62ec803998618dffb3d1,686d64e8e02ca607eecc5755,210,False,False,Airplane,https://kisumu-drawings.s3-us-west-1.amazonaws.com/17-005.png,0.0,Airplane,17-005.png
,3968,image-button-response,58,,617570,686d62ec803998618dffb3d1,686d64e8e02ca607eecc5755,210,False,False,Airplane,https://kisumu-drawings.s3-us-west-1.amazonaws.com/45-014.png,0.0,Airplane,45-014.png
,19406,image-button-response,59,,637491,686d62ec803998618dffb3d1,686d64e8e02ca607eecc5755,210,False,False,House,https://kisumu-drawings.s3-us-west-1.amazonaws.com/39-005.png,7.0,Hat,39-005.png
,4192,image-button-response,60,,642194,686d62ec803998618dffb3d1,686d64e8e02ca607eecc5755,210,False,False,Airplane,https://kisumu-drawings.s3-us-west-1.amazonaws.com/116-014.png,0.0,Airplane,116-014.png
,1167,image-button-response,61,,643873,686d62ec803998618dffb3d1,686d64e8e02ca607eecc5755,210,True,False,airplane,stimuli/catch_trials/0_airplane_catch.jpg,0.0,Airplane,
,2445,image-button-response,62,,646827,686d62ec803998618dffb3d1,686d64e8e02ca607eecc5755,210,False,False,Rabbit,https://kisumu-drawings.s3-us-west-1.amazonaws.com/19-007.png,10.0,Tree,19-007.png
,4926,image-button-response,63,,652263,686d62ec803998618dffb3d1,686d64e8e02ca607eecc5755,210,False,False,Airplane,https://kisumu-drawings.s3-us-west-1.amazonaws.com/37-008.png,0.0,Airplane,37-008.png
,3191,image-button-response,64,,655966,686d62ec803998618dffb3d1,686d64e8e02ca607eecc5755,210,False,False,Rabbit,https://kisumu-drawings.s3-us-west-1.amazonaws.com/80-016.png,9.0,Rabbit,80-016.png
,3263,image-button-response,65,,659744,686d62ec803998618dffb3d1,686d64e8e02ca607eecc5755,210,False,False,Car,https://kisumu-drawings.s3-us-west-1.amazonaws.com/31-008.png,3.0,Car,31-008.png
,2783,image-button-response,66,,663034,686d62ec803998618dffb3d1,686d64e8e02ca607eecc5755,210,False,False,Hat,https://kisumu-drawings.s3-us-west-1.amazonaws.com/48-016.png,5.0,Chair,48-016.png
,3016,image-button-response,67,,666564,686d62ec803998618dffb3d1,686d64e8e02ca607eecc5755,210,False,False,Cup,https://kisumu-drawings.s3-us-west-1.amazonaws.com/47-014.png,6.0,Cup,47-014.png
,4776,image-button-response,68,,671859,686d62ec803998618dffb3d1,686d64e8e02ca607eecc5755,210,False,False,House,https://kisumu-drawings.s3-us-west-1.amazonaws.com/18-005.png,6.0,Cup,18-005.png
,6443,image-button-response,69,,678819,686d62ec803998618dffb3d1,686d64e8e02ca607eecc5755,210,False,False,Watch,https://kisumu-drawings.s3-us-west-1.amazonaws.com/46-011.png,11.0,Watch,46-011.png
,3035,image-button-response,70,,682374,686d62ec803998618dffb3d1,686d64e8e02ca607eecc5755,210,False,False,Hat,https://kisumu-drawings.s3-us-west-1.amazonaws.com/86-006.png,7.0,Hat,86-006.png
,2356,image-button-response,71,,685235,686d62ec803998618dffb3d1,686d64e8e02ca607eecc5755,210,False,False,Chair,https://kisumu-drawings.s3-us-west-1.amazonaws.com/87-007.png,5.0,Chair,87-007.png
,2799,image-button-response,72,,688554,686d62ec803998618dffb3d1,686d64e8e02ca607eecc5755,210,False,False,Cup,https://kisumu-drawings.s3-us-west-1.amazonaws.com/38-010.png,6.0,Cup,38-010.png
,5599,image-button-response,73,,694665,686d62ec803998618dffb3d1,686d64e8e02ca607eecc5755,210,False,False,Cup,https://kisumu-drawings.s3-us-west-1.amazonaws.com/13-014.png,6.0,Cup,13-014.png
,2399,image-button-response,74,,697574,686d62ec803998618dffb3d1,686d64e8e02ca607eecc5755,210,False,False,Rabbit,https://kisumu-drawings.s3-us-west-1.amazonaws.com/86-016.png,2.0,Bird,86-016.png
,3187,image-button-response,75,,701272,686d62ec803998618dffb3d1,686d64e8e02ca607eecc5755,210,False,False,Car,https://kisumu-drawings.s3-us-west-1.amazonaws.com/78-005.png,3.0,Car,78-005.png
