view_history,rt,trial_type,trial_index,plugin_version,time_elapsed,study_id,session_id,participant_id,catch_trial,prep_trial,sketcher_category,stimulus,response,response_category,sketch_id
"[{""page_index"":0,""viewing_time"":4805},{""page_index"":1,""viewing_time"":2350},{""page_index"":2,""viewing_time"":3295},{""page_index"":3,""viewing_time"":7746}]",18195,instructions,0,,18199,686d62ec803998618dffb3d1,686dbf34e79a6d54f1008361,218,,,,,,,
,3210,image-button-response,1,,22424,686d62ec803998618dffb3d1,686dbf34e79a6d54f1008361,218,False,True,car,stimuli/prep_trials/1_car_prep.png,3.0,Car,
,1932,image-button-response,2,,24859,686d62ec803998618dffb3d1,686dbf34e79a6d54f1008361,218,False,True,cat,stimuli/prep_trials/0_cat_prep.jpg,4.0,Cat,
,4302,image-button-response,3,,29664,686d62ec803998618dffb3d1,686dbf34e79a6d54f1008361,218,False,False,Chair,https://kisumu-drawings.s3-us-west-1.amazonaws.com/119-013.png,5.0,Chair,119-013.png
,2459,image-button-response,4,,32634,686d62ec803998618dffb3d1,686dbf34e79a6d54f1008361,218,False,False,House,https://kisumu-drawings.s3-us-west-1.amazonaws.com/95-006.png,8.0,House,95-006.png
,3986,image-button-response,5,,37123,686d62ec803998618dffb3d1,686dbf34e79a6d54f1008361,218,True,False,airplane,stimuli/catch_trials/0_airplane_catch.jpg,0.0,Airplane,
,2180,image-button-response,6,,39818,686d62ec803998618dffb3d1,686dbf34e79a6d54f1008361,218,False,False,Bicycle,https://kisumu-drawings.s3-us-west-1.amazonaws.com/99-013.png,1.0,Bicycle,99-013.png
,24131,image-button-response,7,,64453,686d62ec803998618dffb3d1,686dbf34e79a6d54f1008361,218,False,False,Bicycle,https://kisumu-drawings.s3-us-west-1.amazonaws.com/39-009.png,1.0,Bicycle,39-009.png
,30375,image-button-response,8,,95329,686d62ec803998618dffb3d1,686dbf34e79a6d54f1008361,218,False,False,Cat,https://kisumu-drawings.s3-us-west-1.amazonaws.com/15-014.png,3.0,Car,15-014.png
,10039,image-button-response,9,,105879,686d62ec803998618dffb3d1,686dbf34e79a6d54f1008361,218,False,False,Bird,https://kisumu-drawings.s3-us-west-1.amazonaws.com/88-015.png,4.0,Cat,88-015.png
,8227,image-button-response,10,,114608,686d62ec803998618dffb3d1,686dbf34e79a6d54f1008361,218,False,False,Car,https://kisumu-drawings.s3-us-west-1.amazonaws.com/119-010.png,3.0,Car,119-010.png
,4909,image-button-response,11,,120019,686d62ec803998618dffb3d1,686dbf34e79a6d54f1008361,218,False,False,Airplane,https://kisumu-drawings.s3-us-west-1.amazonaws.com/84-010.png,0.0,Airplane,84-010.png
,49338,image-button-response,12,,169858,686d62ec803998618dffb3d1,686dbf34e79a6d54f1008361,218,False,False,Watch,https://kisumu-drawings.s3-us-west-1.amazonaws.com/54-012.png,11.0,Watch,54-012.png
,11995,image-button-response,13,,182359,686d62ec803998618dffb3d1,686dbf34e79a6d54f1008361,218,False,False,Hat,https://kisumu-drawings.s3-us-west-1.amazonaws.com/40-013.png,11.0,Watch,40-013.png
,3149,image-button-response,14,,186008,686d62ec803998618dffb3d1,686dbf34e79a6d54f1008361,218,False,False,Watch,https://kisumu-drawings.s3-us-west-1.amazonaws.com/104-005.png,11.0,Watch,104-005.png
,1804,image-button-response,15,,188313,686d62ec803998618dffb3d1,686dbf34e79a6d54f1008361,218,False,False,Car,https://kisumu-drawings.s3-us-west-1.amazonaws.com/100-012.png,3.0,Car,100-012.png
,2109,image-button-response,16,,190924,686d62ec803998618dffb3d1,686dbf34e79a6d54f1008361,218,False,False,Cup,https://kisumu-drawings.s3-us-west-1.amazonaws.com/72-010.png,6.0,Cup,72-010.png
,2913,image-button-response,17,,194338,686d62ec803998618dffb3d1,686dbf34e79a6d54f1008361,218,False,False,Tree,https://kisumu-drawings.s3-us-west-1.amazonaws.com/72-006.png,10.0,Tree,72-006.png
,1467,image-button-response,18,,196319,686d62ec803998618dffb3d1,686dbf34e79a6d54f1008361,218,False,False,Tree,https://kisumu-drawings.s3-us-west-1.amazonaws.com/112-005.png,10.0,Tree,112-005.png
,1900,image-button-response,19,,198730,686d62ec803998618dffb3d1,686dbf34e79a6d54f1008361,218,False,False,Airplane,https://kisumu-drawings.s3-us-west-1.amazonaws.com/1-007.png,9.0,Rabbit,1-007.png
,2662,image-button-response,20,,201903,686d62ec803998618dffb3d1,686dbf34e79a6d54f1008361,218,False,False,House,https://kisumu-drawings.s3-us-west-1.amazonaws.com/31-013.png,2.0,Bird,31-013.png
,10635,image-button-response,21,,213043,686d62ec803998618dffb3d1,686dbf34e79a6d54f1008361,218,False,False,Chair,https://kisumu-drawings.s3-us-west-1.amazonaws.com/40-008.png,4.0,Cat,40-008.png
,8893,image-button-response,22,,222443,686d62ec803998618dffb3d1,686dbf34e79a6d54f1008361,218,False,False,Airplane,https://kisumu-drawings.s3-us-west-1.amazonaws.com/37-008.png,0.0,Airplane,37-008.png
,25230,image-button-response,23,,248183,686d62ec803998618dffb3d1,686dbf34e79a6d54f1008361,218,False,False,Hat,https://kisumu-drawings.s3-us-west-1.amazonaws.com/81-006.png,9.0,Rabbit,81-006.png
,9054,image-button-response,24,,257743,686d62ec803998618dffb3d1,686dbf34e79a6d54f1008361,218,False,False,Cup,https://kisumu-drawings.s3-us-west-1.amazonaws.com/84-007.png,6.0,Cup,84-007.png
,30441,image-button-response,25,,288694,686d62ec803998618dffb3d1,686dbf34e79a6d54f1008361,218,False,False,Bird,https://kisumu-drawings.s3-us-west-1.amazonaws.com/11-011.png,5.0,Chair,11-011.png
,15859,image-button-response,26,,305058,686d62ec803998618dffb3d1,686dbf34e79a6d54f1008361,218,False,False,Hat,https://kisumu-drawings.s3-us-west-1.amazonaws.com/46-014.png,5.0,Chair,46-014.png
,12463,image-button-response,27,,318023,686d62ec803998618dffb3d1,686dbf34e79a6d54f1008361,218,False,False,Watch,https://kisumu-drawings.s3-us-west-1.amazonaws.com/38-013.png,0.0,Airplane,38-013.png
,3196,image-button-response,28,,321724,686d62ec803998618dffb3d1,686dbf34e79a6d54f1008361,218,False,False,Airplane,https://kisumu-drawings.s3-us-west-1.amazonaws.com/119-012.png,0.0,Airplane,119-012.png
,4631,image-button-response,29,,326859,686d62ec803998618dffb3d1,686dbf34e79a6d54f1008361,218,False,False,Bicycle,https://kisumu-drawings.s3-us-west-1.amazonaws.com/11-009.png,10.0,Tree,11-009.png
,2843,image-button-response,30,,330208,686d62ec803998618dffb3d1,686dbf34e79a6d54f1008361,218,False,False,Bicycle,https://kisumu-drawings.s3-us-west-1.amazonaws.com/76-012.png,3.0,Car,76-012.png
,3484,image-button-response,31,,334193,686d62ec803998618dffb3d1,686dbf34e79a6d54f1008361,218,False,False,House,https://kisumu-drawings.s3-us-west-1.amazonaws.com/11-015.png,9.0,Rabbit,11-015.png
,5341,image-button-response,32,,340039,686d62ec803998618dffb3d1,686dbf34e79a6d54f1008361,218,False,False,Bird,https://kisumu-drawings.s3-us-west-1.amazonaws.com/40-007.png,2.0,Bird,40-007.png
,3355,image-button-response,33,,343899,686d62ec803998618dffb3d1,686dbf34e79a6d54f1008361,218,False,False,Watch,https://kisumu-drawings.s3-us-west-1.amazonaws.com/17-011.png,0.0,Airplane,17-011.png
,1988,image-button-response,34,,346399,686d62ec803998618dffb3d1,686dbf34e79a6d54f1008361,218,False,False,Bicycle,https://kisumu-drawings.s3-us-west-1.amazonaws.com/101-016.png,3.0,Car,101-016.png
,1644,image-button-response,35,,348553,686d62ec803998618dffb3d1,686dbf34e79a6d54f1008361,218,False,False,House,https://kisumu-drawings.s3-us-west-1.amazonaws.com/44-009.png,8.0,House,44-009.png
,2415,image-button-response,36,,351484,686d62ec803998618dffb3d1,686dbf34e79a6d54f1008361,218,False,False,Cat,https://kisumu-drawings.s3-us-west-1.amazonaws.com/113-006.png,4.0,Cat,113-006.png
,4129,image-button-response,37,,356128,686d62ec803998618dffb3d1,686dbf34e79a6d54f1008361,218,False,False,House,https://kisumu-drawings.s3-us-west-1.amazonaws.com/115-010.png,8.0,House,115-010.png
,3693,image-button-response,38,,360324,686d62ec803998618dffb3d1,686dbf34e79a6d54f1008361,218,False,False,Chair,https://kisumu-drawings.s3-us-west-1.amazonaws.com/18-014.png,11.0,Watch,18-014.png
,1634,image-button-response,39,,362459,686d62ec803998618dffb3d1,686dbf34e79a6d54f1008361,218,False,False,House,https://kisumu-drawings.s3-us-west-1.amazonaws.com/75-007.png,8.0,House,75-007.png
,1454,image-button-response,40,,364429,686d62ec803998618dffb3d1,686dbf34e79a6d54f1008361,218,False,False,Bird,https://kisumu-drawings.s3-us-west-1.amazonaws.com/71-010.png,2.0,Bird,71-010.png
,1444,image-button-response,41,,366373,686d62ec803998618dffb3d1,686dbf34e79a6d54f1008361,218,False,False,Car,https://kisumu-drawings.s3-us-west-1.amazonaws.com/54-005.png,3.0,Car,54-005.png
,1583,image-button-response,42,,368465,686d62ec803998618dffb3d1,686dbf34e79a6d54f1008361,218,False,False,Bird,https://kisumu-drawings.s3-us-west-1.amazonaws.com/120-009.png,2.0,Bird,120-009.png
,2112,image-button-response,43,,371084,686d62ec803998618dffb3d1,686dbf34e79a6d54f1008361,218,False,False,Cup,https://kisumu-drawings.s3-us-west-1.amazonaws.com/112-009.png,6.0,Cup,112-009.png
,44841,image-button-response,44,,416429,686d62ec803998618dffb3d1,686dbf34e79a6d54f1008361,218,False,False,Airplane,https://kisumu-drawings.s3-us-west-1.amazonaws.com/46-006.png,0.0,Airplane,46-006.png
,3733,image-button-response,45,,420669,686d62ec803998618dffb3d1,686dbf34e79a6d54f1008361,218,False,False,Watch,https://kisumu-drawings.s3-us-west-1.amazonaws.com/81-010.png,11.0,Watch,81-010.png
,3680,image-button-response,46,,424854,686d62ec803998618dffb3d1,686dbf34e79a6d54f1008361,218,False,False,Airplane,https://kisumu-drawings.s3-us-west-1.amazonaws.com/67-014.png,0.0,Airplane,67-014.png
,4363,image-button-response,47,,429719,686d62ec803998618dffb3d1,686dbf34e79a6d54f1008361,218,False,False,Cat,https://kisumu-drawings.s3-us-west-1.amazonaws.com/35-012.png,4.0,Cat,35-012.png
,4875,image-button-response,48,,435104,686d62ec803998618dffb3d1,686dbf34e79a6d54f1008361,218,False,False,Tree,https://kisumu-drawings.s3-us-west-1.amazonaws.com/44-005.png,10.0,Tree,44-005.png
,3250,image-button-response,49,,438859,686d62ec803998618dffb3d1,686dbf34e79a6d54f1008361,218,False,False,Hat,https://kisumu-drawings.s3-us-west-1.amazonaws.com/116-009.png,6.0,Cup,116-009.png
,4263,image-button-response,50,,443623,686d62ec803998618dffb3d1,686dbf34e79a6d54f1008361,218,False,False,Rabbit,https://kisumu-drawings.s3-us-west-1.amazonaws.com/13-007.png,7.0,Hat,13-007.png
,2332,image-button-response,51,,446459,686d62ec803998618dffb3d1,686dbf34e79a6d54f1008361,218,False,False,Chair,https://kisumu-drawings.s3-us-west-1.amazonaws.com/81-012.png,5.0,Chair,81-012.png
,1854,image-button-response,52,,448814,686d62ec803998618dffb3d1,686dbf34e79a6d54f1008361,218,False,False,Cat,https://kisumu-drawings.s3-us-west-1.amazonaws.com/100-011.png,4.0,Cat,100-011.png
,1682,image-button-response,53,,450998,686d62ec803998618dffb3d1,686dbf34e79a6d54f1008361,218,False,False,Car,https://kisumu-drawings.s3-us-west-1.amazonaws.com/79-008.png,3.0,Car,79-008.png
,1533,image-button-response,54,,453048,686d62ec803998618dffb3d1,686dbf34e79a6d54f1008361,218,False,False,Rabbit,https://kisumu-drawings.s3-us-west-1.amazonaws.com/38-009.png,9.0,Rabbit,38-009.png
,2529,image-button-response,55,,456089,686d62ec803998618dffb3d1,686dbf34e79a6d54f1008361,218,False,False,Rabbit,https://kisumu-drawings.s3-us-west-1.amazonaws.com/118-012.png,4.0,Cat,118-012.png
,2090,image-button-response,56,,458684,686d62ec803998618dffb3d1,686dbf34e79a6d54f1008361,218,False,False,Rabbit,https://kisumu-drawings.s3-us-west-1.amazonaws.com/44-016.png,4.0,Cat,44-016.png
,2853,image-button-response,57,,462038,686d62ec803998618dffb3d1,686dbf34e79a6d54f1008361,218,False,False,Car,https://kisumu-drawings.s3-us-west-1.amazonaws.com/31-008.png,5.0,Chair,31-008.png
,3267,image-button-response,58,,465814,686d62ec803998618dffb3d1,686dbf34e79a6d54f1008361,218,False,False,Bicycle,https://kisumu-drawings.s3-us-west-1.amazonaws.com/47-009.png,3.0,Car,47-009.png
,1778,image-button-response,59,,468103,686d62ec803998618dffb3d1,686dbf34e79a6d54f1008361,218,False,False,Chair,https://kisumu-drawings.s3-us-west-1.amazonaws.com/80-013.png,5.0,Chair,80-013.png
,3451,image-button-response,60,,472059,686d62ec803998618dffb3d1,686dbf34e79a6d54f1008361,218,False,False,Rabbit,https://kisumu-drawings.s3-us-west-1.amazonaws.com/86-016.png,9.0,Rabbit,86-016.png
,2090,image-button-response,61,,474664,686d62ec803998618dffb3d1,686dbf34e79a6d54f1008361,218,False,False,Tree,https://kisumu-drawings.s3-us-west-1.amazonaws.com/18-016.png,2.0,Bird,18-016.png
,1823,image-button-response,62,,476999,686d62ec803998618dffb3d1,686dbf34e79a6d54f1008361,218,False,False,Car,https://kisumu-drawings.s3-us-west-1.amazonaws.com/17-012.png,3.0,Car,17-012.png
,2497,image-button-response,63,,480008,686d62ec803998618dffb3d1,686dbf34e79a6d54f1008361,218,False,False,Cup,https://kisumu-drawings.s3-us-west-1.amazonaws.com/31-011.png,6.0,Cup,31-011.png
,3879,image-button-response,64,,484394,686d62ec803998618dffb3d1,686dbf34e79a6d54f1008361,218,False,False,Tree,https://kisumu-drawings.s3-us-west-1.amazonaws.com/84-005.png,10.0,Tree,84-005.png
,2553,image-button-response,65,,487449,686d62ec803998618dffb3d1,686dbf34e79a6d54f1008361,218,False,False,Cup,https://kisumu-drawings.s3-us-west-1.amazonaws.com/3-011.png,6.0,Cup,3-011.png
,1392,image-button-response,66,,489344,686d62ec803998618dffb3d1,686dbf34e79a6d54f1008361,218,False,False,Cup,https://kisumu-drawings.s3-us-west-1.amazonaws.com/42-014.png,6.0,Cup,42-014.png
,1805,image-button-response,67,,491653,686d62ec803998618dffb3d1,686dbf34e79a6d54f1008361,218,False,False,Cat,https://kisumu-drawings.s3-us-west-1.amazonaws.com/42-008.png,4.0,Cat,42-008.png
,2070,image-button-response,68,,494229,686d62ec803998618dffb3d1,686dbf34e79a6d54f1008361,218,False,False,Rabbit,https://kisumu-drawings.s3-us-west-1.amazonaws.com/80-016.png,9.0,Rabbit,80-016.png
,2727,image-button-response,69,,497463,686d62ec803998618dffb3d1,686dbf34e79a6d54f1008361,218,False,False,Hat,https://kisumu-drawings.s3-us-west-1.amazonaws.com/17-015.png,5.0,Chair,17-015.png
,2828,image-button-response,70,,500799,686d62ec803998618dffb3d1,686dbf34e79a6d54f1008361,218,False,False,Chair,https://kisumu-drawings.s3-us-west-1.amazonaws.com/41-006.png,5.0,Chair,41-006.png
,5648,image-button-response,71,,506949,686d62ec803998618dffb3d1,686dbf34e79a6d54f1008361,218,False,False,Hat,https://kisumu-drawings.s3-us-west-1.amazonaws.com/80-007.png,6.0,Cup,80-007.png
,7314,image-button-response,72,,514778,686d62ec803998618dffb3d1,686dbf34e79a6d54f1008361,218,False,False,Tree,https://kisumu-drawings.s3-us-west-1.amazonaws.com/31-015.png,2.0,Bird,31-015.png
,9454,image-button-response,73,,524734,686d62ec803998618dffb3d1,686dbf34e79a6d54f1008361,218,False,False,Cat,https://kisumu-drawings.s3-us-west-1.amazonaws.com/76-015.png,4.0,Cat,76-015.png
,6271,image-button-response,74,,531514,686d62ec803998618dffb3d1,686dbf34e79a6d54f1008361,218,False,False,Bird,https://kisumu-drawings.s3-us-west-1.amazonaws.com/47-005.png,9.0,Rabbit,47-005.png
,8079,image-button-response,75,,540109,686d62ec803998618dffb3d1,686dbf34e79a6d54f1008361,218,False,False,Watch,https://kisumu-drawings.s3-us-west-1.amazonaws.com/78-014.png,11.0,Watch,78-014.png
