view_history,rt,trial_type,trial_index,plugin_version,time_elapsed,study_id,session_id,participant_id,catch_trial,prep_trial,sketcher_category,stimulus,response,response_category,sketch_id
"[{""page_index"":0,""viewing_time"":8620},{""page_index"":1,""viewing_time"":10233},{""page_index"":2,""viewing_time"":5550},{""page_index"":3,""viewing_time"":3567}]",27970,instructions,0,,27984,686d62ec803998618dffb3d1,686dbbfe392a0366b86ef8c0,224,,,,,,,
,3758,image-button-response,1,,32750,686d62ec803998618dffb3d1,686dbbfe392a0366b86ef8c0,224,False,True,car,stimuli/prep_trials/1_car_prep.png,3.0,Car,
,3036,image-button-response,2,,36300,686d62ec803998618dffb3d1,686dbbfe392a0366b86ef8c0,224,False,True,cat,stimuli/prep_trials/0_cat_prep.jpg,4.0,Cat,
,3629,image-button-response,3,,40433,686d62ec803998618dffb3d1,686dbbfe392a0366b86ef8c0,224,False,False,Rabbit,https://kisumu-drawings.s3-us-west-1.amazonaws.com/39-012.png,7.0,Hat,39-012.png
,2669,image-button-response,4,,43617,686d62ec803998618dffb3d1,686dbbfe392a0366b86ef8c0,224,False,False,Bird,https://kisumu-drawings.s3-us-west-1.amazonaws.com/61-006.png,2.0,Bird,61-006.png
,7330,image-button-response,5,,51450,686d62ec803998618dffb3d1,686dbbfe392a0366b86ef8c0,224,False,False,Hat,https://kisumu-drawings.s3-us-west-1.amazonaws.com/32-015.png,11.0,Watch,32-015.png
,2929,image-button-response,6,,54883,686d62ec803998618dffb3d1,686dbbfe392a0366b86ef8c0,224,False,False,Hat,https://kisumu-drawings.s3-us-west-1.amazonaws.com/43-006.png,7.0,Hat,43-006.png
,2046,image-button-response,7,,57433,686d62ec803998618dffb3d1,686dbbfe392a0366b86ef8c0,224,False,False,Cup,https://kisumu-drawings.s3-us-west-1.amazonaws.com/72-010.png,6.0,Cup,72-010.png
,12078,image-button-response,8,,70014,686d62ec803998618dffb3d1,686dbbfe392a0366b86ef8c0,224,False,False,Bicycle,https://kisumu-drawings.s3-us-west-1.amazonaws.com/26-005.png,1.0,Bicycle,26-005.png
,4698,image-button-response,9,,75216,686d62ec803998618dffb3d1,686dbbfe392a0366b86ef8c0,224,False,False,Cat,https://kisumu-drawings.s3-us-west-1.amazonaws.com/118-005.png,4.0,Cat,118-005.png
,2429,image-button-response,10,,78149,686d62ec803998618dffb3d1,686dbbfe392a0366b86ef8c0,224,False,False,Bicycle,https://kisumu-drawings.s3-us-west-1.amazonaws.com/76-012.png,3.0,Car,76-012.png
,13732,image-button-response,11,,92384,686d62ec803998618dffb3d1,686dbbfe392a0366b86ef8c0,224,False,False,Bicycle,https://kisumu-drawings.s3-us-west-1.amazonaws.com/50-006.png,1.0,Bicycle,50-006.png
,2462,image-button-response,12,,95349,686d62ec803998618dffb3d1,686dbbfe392a0366b86ef8c0,224,False,False,Watch,https://kisumu-drawings.s3-us-west-1.amazonaws.com/106-006.png,11.0,Watch,106-006.png
,1829,image-button-response,13,,97682,686d62ec803998618dffb3d1,686dbbfe392a0366b86ef8c0,224,False,False,Cup,https://kisumu-drawings.s3-us-west-1.amazonaws.com/100-008.png,6.0,Cup,100-008.png
,28681,image-button-response,14,,126866,686d62ec803998618dffb3d1,686dbbfe392a0366b86ef8c0,224,False,False,Bicycle,https://kisumu-drawings.s3-us-west-1.amazonaws.com/13-010.png,10.0,Tree,13-010.png
,11297,image-button-response,15,,138666,686d62ec803998618dffb3d1,686dbbfe392a0366b86ef8c0,224,False,False,Chair,https://kisumu-drawings.s3-us-west-1.amazonaws.com/36-013.png,5.0,Chair,36-013.png
,1780,image-button-response,16,,140948,686d62ec803998618dffb3d1,686dbbfe392a0366b86ef8c0,224,False,False,Chair,https://kisumu-drawings.s3-us-west-1.amazonaws.com/87-007.png,5.0,Chair,87-007.png
,2698,image-button-response,17,,144149,686d62ec803998618dffb3d1,686dbbfe392a0366b86ef8c0,224,False,False,Car,https://kisumu-drawings.s3-us-west-1.amazonaws.com/73-012.png,8.0,House,73-012.png
,10229,image-button-response,18,,154880,686d62ec803998618dffb3d1,686dbbfe392a0366b86ef8c0,224,False,False,Bird,https://kisumu-drawings.s3-us-west-1.amazonaws.com/33-007.png,0.0,Airplane,33-007.png
,4149,image-button-response,19,,159533,686d62ec803998618dffb3d1,686dbbfe392a0366b86ef8c0,224,False,False,Rabbit,https://kisumu-drawings.s3-us-west-1.amazonaws.com/85-010.png,9.0,Rabbit,85-010.png
,8714,image-button-response,20,,168748,686d62ec803998618dffb3d1,686dbbfe392a0366b86ef8c0,224,False,False,Tree,https://kisumu-drawings.s3-us-west-1.amazonaws.com/31-015.png,2.0,Bird,31-015.png
,2732,image-button-response,21,,171983,686d62ec803998618dffb3d1,686dbbfe392a0366b86ef8c0,224,False,False,House,https://kisumu-drawings.s3-us-west-1.amazonaws.com/15-005.png,8.0,House,15-005.png
,1747,image-button-response,22,,174233,686d62ec803998618dffb3d1,686dbbfe392a0366b86ef8c0,224,False,False,Hat,https://kisumu-drawings.s3-us-west-1.amazonaws.com/86-006.png,7.0,Hat,86-006.png
,1813,image-button-response,23,,176549,686d62ec803998618dffb3d1,686dbbfe392a0366b86ef8c0,224,False,False,Bird,https://kisumu-drawings.s3-us-west-1.amazonaws.com/118-008.png,2.0,Bird,118-008.png
,2862,image-button-response,24,,179913,686d62ec803998618dffb3d1,686dbbfe392a0366b86ef8c0,224,False,False,Watch,https://kisumu-drawings.s3-us-west-1.amazonaws.com/14-008.png,10.0,Tree,14-008.png
,2032,image-button-response,25,,182449,686d62ec803998618dffb3d1,686dbbfe392a0366b86ef8c0,224,False,False,Chair,https://kisumu-drawings.s3-us-west-1.amazonaws.com/119-013.png,5.0,Chair,119-013.png
,3812,image-button-response,26,,186764,686d62ec803998618dffb3d1,686dbbfe392a0366b86ef8c0,224,False,False,Cat,https://kisumu-drawings.s3-us-west-1.amazonaws.com/37-012.png,4.0,Cat,37-012.png
,8664,image-button-response,27,,195932,686d62ec803998618dffb3d1,686dbbfe392a0366b86ef8c0,224,False,False,Airplane,https://kisumu-drawings.s3-us-west-1.amazonaws.com/14-012.png,11.0,Watch,14-012.png
,6714,image-button-response,28,,203149,686d62ec803998618dffb3d1,686dbbfe392a0366b86ef8c0,224,False,False,Rabbit,https://kisumu-drawings.s3-us-west-1.amazonaws.com/74-008.png,2.0,Bird,74-008.png
,11980,image-button-response,29,,215631,686d62ec803998618dffb3d1,686dbbfe392a0366b86ef8c0,224,False,False,House,https://kisumu-drawings.s3-us-west-1.amazonaws.com/31-013.png,9.0,Rabbit,31-013.png
,1815,image-button-response,30,,217949,686d62ec803998618dffb3d1,686dbbfe392a0366b86ef8c0,224,False,False,Chair,https://kisumu-drawings.s3-us-west-1.amazonaws.com/61-015.png,5.0,Chair,61-015.png
,1880,image-button-response,31,,220332,686d62ec803998618dffb3d1,686dbbfe392a0366b86ef8c0,224,False,False,Chair,https://kisumu-drawings.s3-us-west-1.amazonaws.com/18-014.png,11.0,Watch,18-014.png
,9864,image-button-response,32,,230699,686d62ec803998618dffb3d1,686dbbfe392a0366b86ef8c0,224,False,False,Bird,https://kisumu-drawings.s3-us-west-1.amazonaws.com/1-014.png,2.0,Bird,1-014.png
,2412,image-button-response,33,,233615,686d62ec803998618dffb3d1,686dbbfe392a0366b86ef8c0,224,False,False,House,https://kisumu-drawings.s3-us-west-1.amazonaws.com/81-015.png,8.0,House,81-015.png
,1696,image-button-response,34,,235814,686d62ec803998618dffb3d1,686dbbfe392a0366b86ef8c0,224,False,False,Watch,https://kisumu-drawings.s3-us-west-1.amazonaws.com/54-012.png,11.0,Watch,54-012.png
,1714,image-button-response,35,,238031,686d62ec803998618dffb3d1,686dbbfe392a0366b86ef8c0,224,False,False,Chair,https://kisumu-drawings.s3-us-west-1.amazonaws.com/42-007.png,5.0,Chair,42-007.png
,1796,image-button-response,36,,240331,686d62ec803998618dffb3d1,686dbbfe392a0366b86ef8c0,224,False,False,Cup,https://kisumu-drawings.s3-us-west-1.amazonaws.com/115-007.png,6.0,Cup,115-007.png
,2847,image-button-response,37,,243681,686d62ec803998618dffb3d1,686dbbfe392a0366b86ef8c0,224,False,False,Tree,https://kisumu-drawings.s3-us-west-1.amazonaws.com/14-007.png,10.0,Tree,14-007.png
,2979,image-button-response,38,,247164,686d62ec803998618dffb3d1,686dbbfe392a0366b86ef8c0,224,False,False,Cat,https://kisumu-drawings.s3-us-west-1.amazonaws.com/81-013.png,4.0,Cat,81-013.png
,3647,image-button-response,39,,251314,686d62ec803998618dffb3d1,686dbbfe392a0366b86ef8c0,224,False,False,Car,https://kisumu-drawings.s3-us-west-1.amazonaws.com/96-013.png,3.0,Car,96-013.png
,2582,image-button-response,40,,254398,686d62ec803998618dffb3d1,686dbbfe392a0366b86ef8c0,224,False,False,Airplane,https://kisumu-drawings.s3-us-west-1.amazonaws.com/77-006.png,2.0,Bird,77-006.png
,1764,image-button-response,41,,256664,686d62ec803998618dffb3d1,686dbbfe392a0366b86ef8c0,224,False,False,Tree,https://kisumu-drawings.s3-us-west-1.amazonaws.com/81-009.png,10.0,Tree,81-009.png
,6697,image-button-response,42,,263864,686d62ec803998618dffb3d1,686dbbfe392a0366b86ef8c0,224,False,False,Watch,https://kisumu-drawings.s3-us-west-1.amazonaws.com/76-007.png,11.0,Watch,76-007.png
,2797,image-button-response,43,,267164,686d62ec803998618dffb3d1,686dbbfe392a0366b86ef8c0,224,False,False,Cup,https://kisumu-drawings.s3-us-west-1.amazonaws.com/15-015.png,6.0,Cup,15-015.png
,2380,image-button-response,44,,270047,686d62ec803998618dffb3d1,686dbbfe392a0366b86ef8c0,224,False,False,Airplane,https://kisumu-drawings.s3-us-west-1.amazonaws.com/40-012.png,0.0,Airplane,40-012.png
,1814,image-button-response,45,,272364,686d62ec803998618dffb3d1,686dbbfe392a0366b86ef8c0,224,False,False,Airplane,https://kisumu-drawings.s3-us-west-1.amazonaws.com/100-014.png,0.0,Airplane,100-014.png
,1230,image-button-response,46,,274098,686d62ec803998618dffb3d1,686dbbfe392a0366b86ef8c0,224,False,False,Airplane,https://kisumu-drawings.s3-us-west-1.amazonaws.com/113-014.png,0.0,Airplane,113-014.png
,5395,image-button-response,47,,279996,686d62ec803998618dffb3d1,686dbbfe392a0366b86ef8c0,224,False,False,Car,https://kisumu-drawings.s3-us-west-1.amazonaws.com/39-006.png,11.0,Watch,39-006.png
,4365,image-button-response,48,,284864,686d62ec803998618dffb3d1,686dbbfe392a0366b86ef8c0,224,False,False,Car,https://kisumu-drawings.s3-us-west-1.amazonaws.com/119-010.png,3.0,Car,119-010.png
,1964,image-button-response,49,,287331,686d62ec803998618dffb3d1,686dbbfe392a0366b86ef8c0,224,False,False,Hat,https://kisumu-drawings.s3-us-west-1.amazonaws.com/13-008.png,10.0,Tree,13-008.png
,2464,image-button-response,50,,290298,686d62ec803998618dffb3d1,686dbbfe392a0366b86ef8c0,224,False,False,Cat,https://kisumu-drawings.s3-us-west-1.amazonaws.com/79-009.png,9.0,Rabbit,79-009.png
,4163,image-button-response,51,,294963,686d62ec803998618dffb3d1,686dbbfe392a0366b86ef8c0,224,False,False,Rabbit,https://kisumu-drawings.s3-us-west-1.amazonaws.com/6-008.png,10.0,Tree,6-008.png
,1664,image-button-response,52,,297130,686d62ec803998618dffb3d1,686dbbfe392a0366b86ef8c0,224,False,False,Watch,https://kisumu-drawings.s3-us-west-1.amazonaws.com/35-014.png,11.0,Watch,35-014.png
,1964,image-button-response,53,,299598,686d62ec803998618dffb3d1,686dbbfe392a0366b86ef8c0,224,False,False,Car,https://kisumu-drawings.s3-us-west-1.amazonaws.com/45-005.png,3.0,Car,45-005.png
,1664,image-button-response,54,,301764,686d62ec803998618dffb3d1,686dbbfe392a0366b86ef8c0,224,False,False,Tree,https://kisumu-drawings.s3-us-west-1.amazonaws.com/55-009.png,10.0,Tree,55-009.png
,2146,image-button-response,55,,304414,686d62ec803998618dffb3d1,686dbbfe392a0366b86ef8c0,224,False,False,Bicycle,https://kisumu-drawings.s3-us-west-1.amazonaws.com/115-008.png,1.0,Bicycle,115-008.png
,1482,image-button-response,56,,306398,686d62ec803998618dffb3d1,686dbbfe392a0366b86ef8c0,224,False,False,Tree,https://kisumu-drawings.s3-us-west-1.amazonaws.com/101-007.png,10.0,Tree,101-007.png
,1962,image-button-response,57,,308864,686d62ec803998618dffb3d1,686dbbfe392a0366b86ef8c0,224,False,False,Cup,https://kisumu-drawings.s3-us-west-1.amazonaws.com/33-014.png,6.0,Cup,33-014.png
,5446,image-button-response,58,,314812,686d62ec803998618dffb3d1,686dbbfe392a0366b86ef8c0,224,False,False,Hat,https://kisumu-drawings.s3-us-west-1.amazonaws.com/120-007.png,11.0,Watch,120-007.png
,1581,image-button-response,59,,316897,686d62ec803998618dffb3d1,686dbbfe392a0366b86ef8c0,224,False,False,Bicycle,https://kisumu-drawings.s3-us-west-1.amazonaws.com/84-009.png,1.0,Bicycle,84-009.png
,2830,image-button-response,60,,320230,686d62ec803998618dffb3d1,686dbbfe392a0366b86ef8c0,224,False,False,Rabbit,https://kisumu-drawings.s3-us-west-1.amazonaws.com/115-014.png,9.0,Rabbit,115-014.png
,1497,image-button-response,61,,322231,686d62ec803998618dffb3d1,686dbbfe392a0366b86ef8c0,224,True,False,airplane,stimuli/catch_trials/0_airplane_catch.jpg,0.0,Airplane,
,2480,image-button-response,62,,325214,686d62ec803998618dffb3d1,686dbbfe392a0366b86ef8c0,224,False,False,Cat,https://kisumu-drawings.s3-us-west-1.amazonaws.com/17-013.png,4.0,Cat,17-013.png
,1697,image-button-response,63,,327414,686d62ec803998618dffb3d1,686dbbfe392a0366b86ef8c0,224,False,False,Cup,https://kisumu-drawings.s3-us-west-1.amazonaws.com/42-014.png,6.0,Cup,42-014.png
,2313,image-button-response,64,,330231,686d62ec803998618dffb3d1,686dbbfe392a0366b86ef8c0,224,False,False,Cat,https://kisumu-drawings.s3-us-west-1.amazonaws.com/42-008.png,4.0,Cat,42-008.png
,1289,image-button-response,65,,332022,686d62ec803998618dffb3d1,686dbbfe392a0366b86ef8c0,224,False,False,Tree,https://kisumu-drawings.s3-us-west-1.amazonaws.com/78-016.png,10.0,Tree,78-016.png
,1755,image-button-response,66,,334280,686d62ec803998618dffb3d1,686dbbfe392a0366b86ef8c0,224,False,False,House,https://kisumu-drawings.s3-us-west-1.amazonaws.com/53-015.png,8.0,House,53-015.png
,2467,image-button-response,67,,337248,686d62ec803998618dffb3d1,686dbbfe392a0366b86ef8c0,224,False,False,Hat,https://kisumu-drawings.s3-us-west-1.amazonaws.com/76-011.png,11.0,Watch,76-011.png
,2514,image-button-response,68,,340264,686d62ec803998618dffb3d1,686dbbfe392a0366b86ef8c0,224,False,False,Bird,https://kisumu-drawings.s3-us-west-1.amazonaws.com/55-007.png,2.0,Bird,55-007.png
,1564,image-button-response,69,,342330,686d62ec803998618dffb3d1,686dbbfe392a0366b86ef8c0,224,False,False,Watch,https://kisumu-drawings.s3-us-west-1.amazonaws.com/85-012.png,11.0,Watch,85-012.png
,1732,image-button-response,70,,344565,686d62ec803998618dffb3d1,686dbbfe392a0366b86ef8c0,224,False,False,House,https://kisumu-drawings.s3-us-west-1.amazonaws.com/68-014.png,8.0,House,68-014.png
,2996,image-button-response,71,,348064,686d62ec803998618dffb3d1,686dbbfe392a0366b86ef8c0,224,False,False,Car,https://kisumu-drawings.s3-us-west-1.amazonaws.com/11-012.png,11.0,Watch,11-012.png
,1697,image-button-response,72,,350264,686d62ec803998618dffb3d1,686dbbfe392a0366b86ef8c0,224,False,False,House,https://kisumu-drawings.s3-us-west-1.amazonaws.com/112-007.png,8.0,House,112-007.png
,3014,image-button-response,73,,353780,686d62ec803998618dffb3d1,686dbbfe392a0366b86ef8c0,224,False,False,Bird,https://kisumu-drawings.s3-us-west-1.amazonaws.com/83-007.png,2.0,Bird,83-007.png
,2864,image-button-response,74,,357147,686d62ec803998618dffb3d1,686dbbfe392a0366b86ef8c0,224,False,False,Rabbit,https://kisumu-drawings.s3-us-west-1.amazonaws.com/41-012.png,4.0,Cat,41-012.png
,2947,image-button-response,75,,360597,686d62ec803998618dffb3d1,686dbbfe392a0366b86ef8c0,224,False,False,Airplane,https://kisumu-drawings.s3-us-west-1.amazonaws.com/42-016.png,0.0,Airplane,42-016.png
